
time,ax,ay,az,wx,wy,wz,
0.020825,0.0000,0.0000,0.0000,-0.1055,-0.4210,-0.1946,
0.021216,0.0000,0.0000,0.0000,-0.1055,-0.4210,-0.1946,
0.031869,0.0000,0.0000,0.0000,-0.0131,-0.3005,-0.1310,
0.084202,0.0000,0.0000,0.0000,-0.0131,-0.3005,-0.1310,
0.096877,0.0000,0.0000,0.0000,0.0176,-0.1159,0.0266,
0.150921,0.0000,0.0000,0.0000,0.0176,-0.1159,0.0266,
0.161316,0.0000,0.0000,0.0000,-0.0160,-0.0139,0.0388,
0.215994,0.0000,0.0000,0.0000,-0.0160,-0.0139,0.0388,
0.227672,0.0000,0.0000,0.0000,-0.0447,0.0017,-0.0099,
0.280935,0.0000,0.0000,0.0000,-0.0447,0.0017,-0.0099,
0.292681,0.0000,0.0000,0.0000,-0.0452,-0.0273,0.0081,
0.347170,0.0000,0.0000,0.0000,-0.0452,-0.0273,0.0081,
0.358734,0.0000,0.0000,0.0000,-0.0735,-0.0307,0.0066,
0.412713,0.0000,0.0000,0.0000,-0.0735,-0.0307,0.0066,
0.423666,0.0000,0.0000,0.0000,-0.1860,-0.0901,-0.0571,
0.477442,0.0000,0.0000,0.0000,-0.1860,-0.0901,-0.0571,
0.478175,0.1136,-0.4882,-0.0738,-0.1860,-0.0901,-0.0571,
0.489316,0.1136,-0.4882,-0.0738,-0.2990,-0.2540,-0.0935,
0.542792,0.1136,-0.4882,-0.0738,-0.2990,-0.2540,-0.0935,
0.544031,0.8298,-1.3496,-0.1347,-0.2990,-0.2540,-0.0935,
0.554936,0.8298,-1.3496,-0.1347,-0.9320,-0.6831,-0.2201,
0.608055,0.8298,-1.3496,-0.1347,-0.9320,-0.6831,-0.2201,
0.609330,0.7678,-0.5948,0.2460,-0.9320,-0.6831,-0.2201,
0.620340,0.7678,-0.5948,0.2460,-1.8039,-1.0736,-0.5525,
0.673620,0.7678,-0.5948,0.2460,-1.8039,-1.0736,-0.5525,
0.674750,-1.0687,2.4035,1.2009,-1.8039,-1.0736,-0.5525,
0.686162,-1.0687,2.4035,1.2009,-0.6971,-0.3181,-0.3801,
0.751947,-1.0687,2.4035,1.2009,-0.3610,0.2784,-0.2949,
0.788462,-1.0687,2.4035,1.2009,-0.3610,0.2784,-0.2949,
0.789792,0.7159,-0.8466,-1.1125,-0.3610,0.2784,-0.2949,
0.805031,0.7159,-0.8466,-1.1125,-0.3610,0.2784,-0.2949,
0.816068,0.7159,-0.8466,-1.1125,0.1381,0.0139,-0.2830,
0.870593,0.7159,-0.8466,-1.1125,0.1381,0.0139,-0.2830,
0.871387,0.3873,0.0271,-0.8347,0.1381,0.0139,-0.2830,
0.882157,0.3873,0.0271,-0.8347,-0.0515,0.2511,0.0841,
0.937284,0.3873,0.0271,-0.8347,-0.0515,0.2511,0.0841,
0.938511,-0.3146,0.1467,0.7633,-0.0515,0.2511,0.0841,
0.947651,-0.3146,0.1467,0.7633,0.5243,-0.9467,0.8946,
1.001703,-0.3146,0.1467,0.7633,0.5243,-0.9467,0.8946,
1.003355,-1.2559,-0.4764,1.3249,0.5243,-0.9467,0.8946,
1.012674,-1.2559,-0.4764,1.3249,0.6547,1.9623,-0.0205,
1.066656,-1.2559,-0.4764,1.3249,0.6547,1.9623,-0.0205,
1.067830,-0.4219,-0.8276,1.1817,0.6547,1.9623,-0.0205,
1.078500,-0.4219,-0.8276,1.1817,-0.2607,-0.4517,-0.8873,
1.132133,-0.4219,-0.8276,1.1817,-0.2607,-0.4517,-0.8873,
1.133609,0.2246,-1.0126,-0.1696,-0.2607,-0.4517,-0.8873,
1.143942,0.2246,-1.0126,-0.1696,0.0562,-0.3259,-0.9810,
1.198091,0.2246,-1.0126,-0.1696,0.0562,-0.3259,-0.9810,
1.199449,0.1666,0.0966,0.9634,0.0562,-0.3259,-0.9810,
1.209087,0.1666,0.0966,0.9634,0.5458,0.8980,-0.9980,
1.262311,0.1666,0.0966,0.9634,0.5458,0.8980,-0.9980,
1.263117,-0.4090,-0.6773,0.7704,0.5458,0.8980,-0.9980,
1.274998,-0.4090,-0.6773,0.7704,0.0822,-1.5162,-0.6338,
1.328566,-0.4090,-0.6773,0.7704,0.0822,-1.5162,-0.6338,
1.329646,-0.3770,-0.8902,0.0534,0.0822,-1.5162,-0.6338,
1.339911,-0.3770,-0.8902,0.0534,0.2622,-1.3755,-0.6154,
1.395034,-0.3770,-0.8902,0.0534,0.2622,-1.3755,-0.6154,
1.397253,0.3545,-1.1265,1.1718,0.2622,-1.3755,-0.6154,
1.406707,0.3545,-1.1265,1.1718,0.3566,-1.3491,-0.4165,
1.459757,0.3545,-1.1265,1.1718,0.3566,-1.3491,-0.4165,
1.461382,0.0596,-0.4612,-0.2761,0.3566,-1.3491,-0.4165,
1.471743,0.0596,-0.4612,-0.2761,0.1695,-1.1956,-0.0220,
1.524727,0.0596,-0.4612,-0.2761,0.1695,-1.1956,-0.0220,
1.525895,0.3468,-0.3577,0.9433,0.1695,-1.1956,-0.0220,
1.537184,0.3468,-0.3577,0.9433,0.0644,-0.9219,0.3493,
1.591373,0.3468,-0.3577,0.9433,0.0644,-0.9219,0.3493,
1.592226,-0.3931,0.1097,2.2514,0.0644,-0.9219,0.3493,
1.603489,-0.3931,0.1097,2.2514,0.3474,-0.2892,0.2668,
1.656004,-0.3931,0.1097,2.2514,0.3474,-0.2892,0.2668,
1.658028,-0.0208,-0.8325,1.7764,0.3474,-0.2892,0.2668,
1.666849,-0.0208,-0.8325,1.7764,0.2239,-1.7995,0.4261,
1.721247,-0.0208,-0.8325,1.7764,0.2239,-1.7995,0.4261,
1.722076,-0.2642,-0.1291,-1.0420,0.2239,-1.7995,0.4261,
1.732735,-0.2642,-0.1291,-1.0420,0.1483,-1.9798,0.0551,
1.787380,-0.2642,-0.1291,-1.0420,0.1483,-1.9798,0.0551,
1.788779,-0.0517,1.3747,0.1984,0.1483,-1.9798,0.0551,
1.798722,-0.0517,1.3747,0.1984,0.2813,-1.6921,0.3752,
1.853592,-0.0517,1.3747,0.1984,0.2813,-1.6921,0.3752,
1.854505,0.1600,0.2685,0.3044,0.2813,-1.6921,0.3752,
1.863521,0.1600,0.2685,0.3044,0.4737,-2.3915,0.5722,
1.917939,0.1600,0.2685,0.3044,0.4737,-2.3915,0.5722,
1.919115,0.0248,0.0363,-0.7490,0.4737,-2.3915,0.5722,
1.930101,0.0248,0.0363,-0.7490,0.5244,-1.1800,0.2447,
1.982858,0.0248,0.0363,-0.7490,0.5244,-1.1800,0.2447,
1.984124,0.4152,-0.6728,0.6666,0.5244,-1.1800,0.2447,
1.995585,0.4152,-0.6728,0.6666,0.5124,-0.7931,0.0930,
2.049121,0.4152,-0.6728,0.6666,0.5124,-0.7931,0.0930,
2.050701,0.4893,-0.8090,0.7487,0.5124,-0.7931,0.0930,
2.061094,0.4893,-0.8090,0.7487,0.3829,-1.0988,0.0147,
2.113576,0.4893,-0.8090,0.7487,0.3829,-1.0988,0.0147,
2.114459,0.5022,-1.0171,1.1181,0.3829,-1.0988,0.0147,
2.125429,0.5022,-1.0171,1.1181,0.4693,-1.0377,-0.1701,
2.179866,0.5022,-1.0171,1.1181,0.4693,-1.0377,-0.1701,
2.181077,0.0590,-0.5213,1.8986,0.4693,-1.0377,-0.1701,
2.191256,0.0590,-0.5213,1.8986,0.6733,-1.3664,-0.0664,
2.245662,0.0590,-0.5213,1.8986,0.6733,-1.3664,-0.0664,
2.247540,0.5198,-1.4082,1.6044,0.6733,-1.3664,-0.0664,
2.256355,0.5198,-1.4082,1.6044,0.7051,-1.4723,-0.3487,
2.313152,0.5198,-1.4082,1.6044,0.7051,-1.4723,-0.3487,
2.314100,0.9755,-0.3405,0.7418,0.7051,-1.4723,-0.3487,
2.322519,0.9755,-0.3405,0.7418,-0.0131,-0.9467,-0.3916,
2.377097,0.9755,-0.3405,0.7418,-0.0131,-0.9467,-0.3916,
2.378464,2.3472,4.0242,-1.2825,-0.0131,-0.9467,-0.3916,
2.388141,2.3472,4.0242,-1.2825,-0.9792,-0.5391,0.6582,
2.441906,2.3472,4.0242,-1.2825,-0.9792,-0.5391,0.6582,
2.442815,0.1664,1.2798,-0.4196,-0.9792,-0.5391,0.6582,
2.453207,0.1664,1.2798,-0.4196,-2.2911,-1.0721,-0.0163,
2.507281,0.1664,1.2798,-0.4196,-2.2911,-1.0721,-0.0163,
2.508165,-0.3586,0.8089,-0.3184,-2.2911,-1.0721,-0.0163,
2.519008,-0.3586,0.8089,-0.3184,-0.9896,-0.0379,0.2422,
2.572825,-0.3586,0.8089,-0.3184,-0.9896,-0.0379,0.2422,
2.574294,-0.5375,-0.1850,-1.0966,-0.9896,-0.0379,0.2422,
2.584120,-0.5375,-0.1850,-1.0966,-1.0362,0.2133,0.9158,
2.638445,-0.5375,-0.1850,-1.0966,-1.0362,0.2133,0.9158,
2.639306,-0.0273,-0.4375,-1.2163,-1.0362,0.2133,0.9158,
2.657290,-0.0273,-0.4375,-1.2163,-0.8062,-0.1640,1.1994,
2.704634,-0.0273,-0.4375,-1.2163,-0.8062,-0.1640,1.1994,
2.706242,-0.0891,-2.9232,-0.8949,-0.8062,-0.1640,1.1994,
2.715631,-0.0891,-2.9232,-0.8949,-0.8584,0.6355,0.6303,
2.769396,-0.0891,-2.9232,-0.8949,-0.8584,0.6355,0.6303,
2.770215,-0.4041,-2.7366,0.8969,-0.8584,0.6355,0.6303,
2.780151,-0.4041,-2.7366,0.8969,0.0263,0.2045,-0.0470,
2.835171,-0.4041,-2.7366,0.8969,0.0263,0.2045,-0.0470,
2.836045,0.2736,-2.2554,0.5885,0.0263,0.2045,-0.0470,
2.845841,0.2736,-2.2554,0.5885,1.1310,0.2462,-0.6428,
2.899675,0.2736,-2.2554,0.5885,1.1310,0.2462,-0.6428,
2.901202,1.0319,4.5572,-0.5502,1.1310,0.2462,-0.6428,
2.911300,1.0319,4.5572,-0.5502,1.4803,0.1144,-0.1167,
2.965771,1.0319,4.5572,-0.5502,1.4803,0.1144,-0.1167,
2.966603,-1.3464,-0.1049,-2.4333,1.4803,0.1144,-0.1167,
2.978085,-1.3464,-0.1049,-2.4333,1.1938,-0.1516,-0.1713,
3.031800,-1.3464,-0.1049,-2.4333,1.1938,-0.1516,-0.1713,
3.032896,-0.5380,0.5467,-0.6505,1.1938,-0.1516,-0.1713,
3.042607,-0.5380,0.5467,-0.6505,-0.6212,-1.3836,-0.3367,
3.096748,-0.5380,0.5467,-0.6505,-0.6212,-1.3836,-0.3367,
3.097678,0.2983,-0.5841,0.0247,-0.6212,-1.3836,-0.3367,
3.107634,0.2983,-0.5841,0.0247,0.2847,-0.5267,0.0935,
3.161693,0.2983,-0.5841,0.0247,0.2847,-0.5267,0.0935,
3.163151,3.2529,-1.5460,-0.4226,0.2847,-0.5267,0.0935,
3.173417,3.2529,-1.5460,-0.4226,0.4177,0.3549,-0.3325,
3.227780,3.2529,-1.5460,-0.4226,0.4177,0.3549,-0.3325,
3.229295,0.8776,-1.5335,0.0017,0.4177,0.3549,-0.3325,
3.239546,0.8776,-1.5335,0.0017,0.5867,0.4907,-0.5107,
3.294173,0.8776,-1.5335,0.0017,0.5867,0.4907,-0.5107,
3.295561,1.4094,-0.9494,0.0945,0.5867,0.4907,-0.5107,
3.304723,1.4094,-0.9494,0.0945,0.7191,0.4636,-0.5736,
3.359714,1.4094,-0.9494,0.0945,0.7191,0.4636,-0.5736,
3.361623,1.1836,-1.7772,0.6862,0.7191,0.4636,-0.5736,
3.370244,1.1836,-1.7772,0.6862,0.4859,-0.6794,-0.4852,
3.424494,1.1836,-1.7772,0.6862,0.4859,-0.6794,-0.4852,
3.426510,2.0410,0.3945,-0.4233,0.4859,-0.6794,-0.4852,
3.437330,2.0410,0.3945,-0.4233,0.2257,0.2465,-0.1859,
3.489804,2.0410,0.3945,-0.4233,0.2257,0.2465,-0.1859,
3.491747,2.4298,4.9657,1.6219,0.2257,0.2465,-0.1859,
3.500918,2.4298,4.9657,1.6219,0.3293,-0.2385,0.0244,
3.556078,2.4298,4.9657,1.6219,0.3293,-0.2385,0.0244,
3.558046,-1.4446,0.6890,-0.6468,0.3293,-0.2385,0.0244,
3.566920,-1.4446,0.6890,-0.6468,-0.9123,-0.6072,-0.1758,
3.619702,-1.4446,0.6890,-0.6468,-0.9123,-0.6072,-0.1758,
3.620760,-1.2176,0.8561,-0.1782,-0.9123,-0.6072,-0.1758,
3.632655,-1.2176,0.8561,-0.1782,-1.0673,-0.3677,0.4404,
3.685890,-1.2176,0.8561,-0.1782,-1.0673,-0.3677,0.4404,
3.687631,-1.0393,-0.6477,-0.8494,-1.0673,-0.3677,0.4404,
3.698200,-1.0393,-0.6477,-0.8494,-1.2956,-0.9387,0.3745,
3.753197,-1.0393,-0.6477,-0.8494,-1.2956,-0.9387,0.3745,
3.754885,-0.5733,-0.0310,-1.2336,-1.2956,-0.9387,0.3745,
3.763058,-0.5733,-0.0310,-1.2336,-0.9421,0.2802,0.5930,
3.817985,-0.5733,-0.0310,-1.2336,-0.9421,0.2802,0.5930,
3.819654,0.0386,-1.3211,-0.5165,-0.9421,0.2802,0.5930,
3.828823,0.0386,-1.3211,-0.5165,-1.0905,-0.0296,1.1110,
3.882580,0.0386,-1.3211,-0.5165,-1.0905,-0.0296,1.1110,
3.884260,0.3998,-1.6125,-0.1697,-1.0905,-0.0296,1.1110,
3.894515,0.3998,-1.6125,-0.1697,-0.1901,0.6807,0.2998,
3.948467,0.3998,-1.6125,-0.1697,-0.1901,0.6807,0.2998,
3.950008,0.0237,-1.6484,1.1132,-0.1901,0.6807,0.2998,
3.959493,0.0237,-1.6484,1.1132,0.4323,0.2101,-0.0741,
4.015200,0.0237,-1.6484,1.1132,0.4323,0.2101,-0.0741,
4.015952,1.1348,2.2929,1.2189,0.4323,0.2101,-0.0741,
4.026645,1.1348,2.2929,1.2189,0.3299,-0.5860,0.7674,
4.079096,1.1348,2.2929,1.2189,0.3299,-0.5860,0.7674,
4.080596,0.0037,-0.2112,-0.4880,0.3299,-0.5860,0.7674,
4.092292,0.0037,-0.2112,-0.4880,1.5059,0.7285,-1.1083,
4.145707,0.0037,-0.2112,-0.4880,1.5059,0.7285,-1.1083,
4.147661,-0.2909,0.7476,-2.6523,1.5059,0.7285,-1.1083,
4.157280,-0.2909,0.7476,-2.6523,0.6706,0.3503,-0.4800,
4.211475,-0.2909,0.7476,-2.6523,0.6706,0.3503,-0.4800,
4.213752,-0.8162,-0.6204,-0.5831,0.6706,0.3503,-0.4800,
4.223439,-0.8162,-0.6204,-0.5831,0.5560,0.3838,0.0785,
4.276685,-0.8162,-0.6204,-0.5831,0.5560,0.3838,0.0785,
4.278337,0.1596,-0.4134,0.2671,0.5560,0.3838,0.0785,
4.287981,0.1596,-0.4134,0.2671,0.5699,-0.8511,-0.1555,
4.342464,0.1596,-0.4134,0.2671,0.5699,-0.8511,-0.1555,
4.344289,1.6019,-1.3785,0.5737,0.5699,-0.8511,-0.1555,
4.356013,1.6019,-1.3785,0.5737,0.4907,0.2720,-0.1709,
4.407686,1.6019,-1.3785,0.5737,0.4907,0.2720,-0.1709,
4.409486,0.6626,-1.4687,-0.2491,0.4907,0.2720,-0.1709,
4.419655,0.6626,-1.4687,-0.2491,0.7303,0.7126,-0.2340,
4.472123,0.6626,-1.4687,-0.2491,0.7303,0.7126,-0.2340,
4.473887,0.3577,-0.1726,0.3813,0.7303,0.7126,-0.2340,
4.483350,0.3577,-0.1726,0.3813,0.4090,-0.0790,-0.3676,
4.537400,0.3577,-0.1726,0.3813,0.4090,-0.0790,-0.3676,
4.538115,0.8374,-0.3442,0.6974,0.4090,-0.0790,-0.3676,
4.548937,0.8374,-0.3442,0.6974,0.1451,-1.0095,-0.5066,
4.603893,0.8374,-0.3442,0.6974,0.1451,-1.0095,-0.5066,
4.605980,0.7720,-1.7034,1.6646,0.1451,-1.0095,-0.5066,
4.615711,0.7720,-1.7034,1.6646,-0.6556,-1.9032,-0.5760,
4.670032,0.7720,-1.7034,1.6646,-0.6556,-1.9032,-0.5760,
4.671547,2.7089,5.3766,-0.8510,-0.6556,-1.9032,-0.5760,
4.678802,2.7089,5.3766,-0.8510,-0.1626,2.1527,0.9690,
4.734962,2.7089,5.3766,-0.8510,-0.1626,2.1527,0.9690,
4.736753,1.1044,1.2229,0.0779,-0.1626,2.1527,0.9690,
4.746207,1.1044,1.2229,0.0779,-0.3833,-0.5895,-0.0994,
4.800000,1.1044,1.2229,0.0779,-0.3833,-0.5895,-0.0994,
4.801909,-1.5625,-0.4912,-1.8096,-0.3833,-0.5895,-0.0994,
4.813057,-1.5625,-0.4912,-1.8096,-1.2281,-0.2324,0.2282,
4.866370,-1.5625,-0.4912,-1.8096,-1.2281,-0.2324,0.2282,
4.868207,-1.4391,-0.2496,-2.3133,-1.2281,-0.2324,0.2282,
4.875398,-1.4391,-0.2496,-2.3133,-1.0495,1.7078,0.1197,
4.931514,-1.4391,-0.2496,-2.3133,-1.0495,1.7078,0.1197,
4.933553,0.2079,0.5915,-0.4206,-1.0495,1.7078,0.1197,
4.942349,0.2079,0.5915,-0.4206,-1.6075,0.4452,0.5545,
4.996923,0.2079,0.5915,-0.4206,-1.6075,0.4452,0.5545,
4.998608,0.3067,-1.7259,-0.5072,-1.6075,0.4452,0.5545,
5.006930,0.3067,-1.7259,-0.5072,-0.7413,0.7367,0.2813,
5.061042,0.3067,-1.7259,-0.5072,-0.7413,0.7367,0.2813,
5.062628,-0.9552,-0.4760,-0.0485,-0.7413,0.7367,0.2813,
5.073573,-0.9552,-0.4760,-0.0485,0.0383,0.5965,-0.3578,
5.127707,-0.9552,-0.4760,-0.0485,0.0383,0.5965,-0.3578,
5.129345,-2.5525,-0.4420,-0.0115,0.0383,0.5965,-0.3578,
5.139750,-2.5525,-0.4420,-0.0115,-0.0162,-0.3705,-0.3619,
5.193103,-2.5525,-0.4420,-0.0115,-0.0162,-0.3705,-0.3619,
5.194706,-0.3119,1.8548,3.2227,-0.0162,-0.3705,-0.3619,
5.204965,-0.3119,1.8548,3.2227,-0.4662,-1.8144,0.2527,
5.257790,-0.3119,1.8548,3.2227,-0.4662,-1.8144,0.2527,
5.259821,1.0737,0.1442,-0.7884,-0.4662,-1.8144,0.2527,
5.272123,1.0737,0.1442,-0.7884,1.4960,-0.2873,-0.0501,
5.323951,1.0737,0.1442,-0.7884,1.4960,-0.2873,-0.0501,
5.325636,1.0582,-0.4736,-1.2814,1.4960,-0.2873,-0.0501,
5.335796,1.0582,-0.4736,-1.2814,1.3131,0.3419,-0.0591,
5.388927,1.0582,-0.4736,-1.2814,1.3131,0.3419,-0.0591,
5.390558,-1.3213,0.0492,-0.6213,1.3131,0.3419,-0.0591,
5.399846,-1.3213,0.0492,-0.6213,0.4436,-0.3563,-0.0165,
5.454556,-1.3213,0.0492,-0.6213,0.4436,-0.3563,-0.0165,
5.456136,-0.4739,-1.2579,-0.6101,0.4436,-0.3563,-0.0165,
5.465805,-0.4739,-1.2579,-0.6101,0.3319,-1.7567,0.0657,
5.519073,-0.4739,-1.2579,-0.6101,0.3319,-1.7567,0.0657,
5.520637,1.2808,-1.0050,0.3247,0.3319,-1.7567,0.0657,
5.531175,1.2808,-1.0050,0.3247,-0.1243,-2.2416,-0.0177,
5.584847,1.2808,-1.0050,0.3247,-0.1243,-2.2416,-0.0177,
5.586029,1.8115,-0.9270,0.9255,-0.1243,-2.2416,-0.0177,
5.595871,1.8115,-0.9270,0.9255,0.4957,-0.7926,-0.3076,
5.650161,1.8115,-0.9270,0.9255,0.4957,-0.7926,-0.3076,
5.651428,1.3093,-1.3019,1.4466,0.4957,-0.7926,-0.3076,
5.661474,1.3093,-1.3019,1.4466,0.9027,-0.1042,-0.3939,
5.716230,1.3093,-1.3019,1.4466,0.9027,-0.1042,-0.3939,
5.717425,1.4258,-0.9034,0.7898,0.9027,-0.1042,-0.3939,
5.728510,1.4258,-0.9034,0.7898,1.0611,0.1770,-0.5724,
5.780707,1.4258,-0.9034,0.7898,1.0611,0.1770,-0.5724,
5.781671,0.7014,1.7709,0.8947,1.0611,0.1770,-0.5724,
5.792675,0.7014,1.7709,0.8947,1.0931,0.5470,-0.1481,
5.846199,0.7014,1.7709,0.8947,1.0931,0.5470,-0.1481,
5.847265,0.0219,3.1805,-0.7364,1.0931,0.5470,-0.1481,
5.859505,0.0219,3.1805,-0.7364,0.1431,0.3288,-0.2572,
5.912322,0.0219,3.1805,-0.7364,0.1431,0.3288,-0.2572,
5.914197,-2.3329,2.1834,-1.9434,0.1431,0.3288,-0.2572,
5.923470,-2.3329,2.1834,-1.9434,-1.8198,-1.7903,0.3138,
5.978353,-2.3329,2.1834,-1.9434,-1.8198,-1.7903,0.3138,
5.979366,-2.5550,1.4941,-2.5778,-1.8198,-1.7903,0.3138,
5.989299,-2.5550,1.4941,-2.5778,-2.7713,-2.1871,0.0657,
6.043541,-2.5550,1.4941,-2.5778,-2.7713,-2.1871,0.0657,
6.044820,-1.7771,-0.1950,-2.3043,-2.7713,-2.1871,0.0657,
6.055293,-1.7771,-0.1950,-2.3043,-2.2953,-1.7543,-0.3155,
6.109570,-1.7771,-0.1950,-2.3043,-2.2953,-1.7543,-0.3155,
6.111091,-1.1556,0.1717,-3.4565,-2.2953,-1.7543,-0.3155,
6.120267,-1.1556,0.1717,-3.4565,-2.3366,-1.2779,0.0483,
6.174689,-1.1556,0.1717,-3.4565,-2.3366,-1.2779,0.0483,
6.176170,0.1588,-1.4915,-2.4708,-2.3366,-1.2779,0.0483,
6.187040,0.1588,-1.4915,-2.4708,-3.0169,-1.9465,0.7929,
6.240130,0.1588,-1.4915,-2.4708,-3.0169,-1.9465,0.7929,
6.241938,2.4951,-3.2329,1.8217,-3.0169,-1.9465,0.7929,
6.250983,2.4951,-3.2329,1.8217,-0.8732,-0.9430,-0.3607,
6.306064,2.4951,-3.2329,1.8217,-0.8732,-0.9430,-0.3607,
6.307970,0.4141,-0.8351,0.6730,-0.8732,-0.9430,-0.3607,
6.316442,0.4141,-0.8351,0.6730,0.0710,-0.1118,-0.3422,
6.371179,0.4141,-0.8351,0.6730,0.0710,-0.1118,-0.3422,
6.372961,-0.0798,0.4187,0.6285,0.0710,-0.1118,-0.3422,
6.382442,-0.0798,0.4187,0.6285,-0.2069,-0.1384,0.2045,
6.436989,-0.0798,0.4187,0.6285,-0.2069,-0.1384,0.2045,
6.438647,-1.1910,2.2144,2.3072,-0.2069,-0.1384,0.2045,
6.447980,-1.1910,2.2144,2.3072,1.2152,-0.4081,-0.4665,
6.504773,-1.1910,2.2144,2.3072,1.2152,-0.4081,-0.4665,
6.506831,0.0665,-0.4307,-2.3013,1.2152,-0.4081,-0.4665,
6.513772,0.0665,-0.4307,-2.3013,1.1955,-1.0018,-0.4922,
6.567322,0.0665,-0.4307,-2.3013,1.1955,-1.0018,-0.4922,
6.569506,-1.3653,-0.1170,-0.5789,1.1955,-1.0018,-0.4922,
6.579552,-1.3653,-0.1170,-0.5789,0.5970,-0.3030,-0.1749,
6.632996,-1.3653,-0.1170,-0.5789,0.5970,-0.3030,-0.1749,
6.634785,0.5965,-0.4355,-0.1648,0.5970,-0.3030,-0.1749,
6.645116,0.5965,-0.4355,-0.1648,0.5515,-1.6481,-0.0018,
6.698184,0.5965,-0.4355,-0.1648,0.5515,-1.6481,-0.0018,
6.700725,1.3804,-1.1982,-0.5070,0.5515,-1.6481,-0.0018,
6.709953,1.3804,-1.1982,-0.5070,0.4542,-0.3969,-0.1649,
6.763711,1.3804,-1.1982,-0.5070,0.4542,-0.3969,-0.1649,
6.765178,0.6487,-0.9265,-0.2352,0.4542,-0.3969,-0.1649,
6.775007,0.6487,-0.9265,-0.2352,0.7764,0.4447,-0.2698,
6.830663,0.6487,-0.9265,-0.2352,0.7764,0.4447,-0.2698,
6.832109,-0.9594,-0.7500,0.1860,0.7764,0.4447,-0.2698,
6.840717,-0.9594,-0.7500,0.1860,0.3778,0.0197,-0.4491,
6.896177,-0.9594,-0.7500,0.1860,0.3778,0.0197,-0.4491,
6.898125,0.4413,-0.1643,0.4757,0.3778,0.0197,-0.4491,
6.907726,0.4413,-0.1643,0.4757,-0.0417,-1.0486,-0.5411,
6.960303,0.4413,-0.1643,0.4757,-0.0417,-1.0486,-0.5411,
6.961248,1.6230,-0.6760,-0.3377,-0.0417,-1.0486,-0.5411,
6.971183,1.6230,-0.6760,-0.3377,0.3361,-0.2605,-0.4536,
7.025504,1.6230,-0.6760,-0.3377,0.3361,-0.2605,-0.4536,
7.026639,2.2355,3.4515,0.7423,0.3361,-0.2605,-0.4536,
7.036955,2.2355,3.4515,0.7423,0.6955,-0.4004,0.0906,
7.090840,2.2355,3.4515,0.7423,0.6955,-0.4004,0.0906,
7.091927,0.2628,0.4418,-0.3339,0.6955,-0.4004,0.0906,
7.101899,0.2628,0.4418,-0.3339,-0.9598,-0.8309,-0.7039,
7.156229,0.2628,0.4418,-0.3339,-0.9598,-0.8309,-0.7039,
7.157615,-1.7392,1.8750,-1.2715,-0.9598,-0.8309,-0.7039,
7.167020,-1.7392,1.8750,-1.2715,-1.5078,-0.8908,-0.0386,
7.220966,-1.7392,1.8750,-1.2715,-1.5078,-0.8908,-0.0386,
7.221944,-1.3307,1.3889,-1.6168,-1.5078,-0.8908,-0.0386,
7.232580,-1.3307,1.3889,-1.6168,-1.7112,-1.0864,-0.1930,
7.286702,-1.3307,1.3889,-1.6168,-1.7112,-1.0864,-0.1930,
7.288420,-1.1340,-0.1660,-2.1448,-1.7112,-1.0864,-0.1930,
7.299181,-1.1340,-0.1660,-2.1448,-1.8069,-0.7741,0.1269,
7.352719,-1.1340,-0.1660,-2.1448,-1.8069,-0.7741,0.1269,
7.354686,-0.2825,-0.5161,-0.3845,-1.8069,-0.7741,0.1269,
7.365139,-0.2825,-0.5161,-0.3845,-1.0796,0.1636,0.4525,
7.419998,-0.2825,-0.5161,-0.3845,-1.0796,0.1636,0.4525,
7.421691,-0.6384,-2.7920,-0.2200,-1.0796,0.1636,0.4525,
7.430048,-0.6384,-2.7920,-0.2200,-0.4514,0.4623,0.5531,
7.483666,-0.6384,-2.7920,-0.2200,-0.4514,0.4623,0.5531,
7.485291,0.8537,-1.7512,0.8128,-0.4514,0.4623,0.5531,
7.495686,0.8537,-1.7512,0.8128,-0.0521,0.3051,0.4826,
7.550041,0.8537,-1.7512,0.8128,-0.0521,0.3051,0.4826,
7.550778,1.9525,-0.8927,1.9552,-0.0521,0.3051,0.4826,
7.561805,1.9525,-0.8927,1.9552,0.3270,0.8317,0.3308,
7.615354,1.9525,-0.8927,1.9552,0.3270,0.8317,0.3308,
7.616903,0.4272,-0.7488,-1.0192,0.3270,0.8317,0.3308,
7.627064,0.4272,-0.7488,-1.0192,1.9377,2.1712,-0.3771,
7.681667,0.4272,-0.7488,-1.0192,1.9377,2.1712,-0.3771,
7.682357,-0.0920,3.3095,-1.5358,1.9377,2.1712,-0.3771,
7.691741,-0.0920,3.3095,-1.5358,2.3547,1.0330,0.5948,
7.745732,-0.0920,3.3095,-1.5358,2.3547,1.0330,0.5948,
7.747328,-0.6876,-0.7743,-2.6322,2.3547,1.0330,0.5948,
7.757297,-0.6876,-0.7743,-2.6322,0.6135,0.7978,-0.3975,
7.812246,-0.6876,-0.7743,-2.6322,0.6135,0.7978,-0.3975,
7.814152,-2.3643,0.1256,-0.5022,0.6135,0.7978,-0.3975,
7.823304,-2.3643,0.1256,-0.5022,0.4030,1.0088,0.1324,
7.876832,-2.3643,0.1256,-0.5022,0.4030,1.0088,0.1324,
7.878350,0.1372,-0.9143,1.5023,0.4030,1.0088,0.1324,
7.888131,0.1372,-0.9143,1.5023,0.7199,-1.4311,0.6561,
7.941765,0.1372,-0.9143,1.5023,0.7199,-1.4311,0.6561,
7.943442,1.4406,-0.8629,-0.6305,0.7199,-1.4311,0.6561,
7.953725,1.4406,-0.8629,-0.6305,0.4073,-0.9937,-0.1229,
8.007452,1.4406,-0.8629,-0.6305,0.4073,-0.9937,-0.1229,
8.008623,0.3908,-1.3324,1.1800,0.4073,-0.9937,-0.1229,
8.020704,0.3908,-1.3324,1.1800,0.5848,-0.7527,-0.4636,
8.072474,0.3908,-1.3324,1.1800,0.5848,-0.7527,-0.4636,
8.074081,0.7539,-1.0318,0.6522,0.5848,-0.7527,-0.4636,
8.084489,0.7539,-1.0318,0.6522,0.5221,-1.1984,-0.5180,
8.138218,0.7539,-1.0318,0.6522,0.5221,-1.1984,-0.5180,
8.140225,2.4957,2.9026,-0.3147,0.5221,-1.1984,-0.5180,
8.150088,2.4957,2.9026,-0.3147,1.0519,0.0170,0.2199,
8.205148,2.4957,2.9026,-0.3147,1.0519,0.0170,0.2199,
8.206143,0.3613,1.0336,-1.3582,1.0519,0.0170,0.2199,
8.217128,0.3613,1.0336,-1.3582,0.5009,0.5403,-0.5157,
8.271655,0.3613,1.0336,-1.3582,0.5009,0.5403,-0.5157,
8.273728,-2.1332,2.7074,-1.5841,0.5009,0.5403,-0.5157,
8.282041,-2.1332,2.7074,-1.5841,-0.9840,-0.0250,-0.1168,
8.336037,-2.1332,2.7074,-1.5841,-0.9840,-0.0250,-0.1168,
8.338878,-1.6790,0.6048,-1.4466,-0.9840,-0.0250,-0.1168,
8.346438,-1.6790,0.6048,-1.4466,-2.1342,-1.1661,0.1681,
8.402049,-1.6790,0.6048,-1.4466,-2.1342,-1.1661,0.1681,
8.403750,-0.9312,-0.1466,-2.4214,-2.1342,-1.1661,0.1681,
8.412763,-0.9312,-0.1466,-2.4214,-2.5181,-1.7627,0.6087,
8.467480,-0.9312,-0.1466,-2.4214,-2.5181,-1.7627,0.6087,
8.469378,-0.9595,-0.2065,-3.2785,-2.5181,-1.7627,0.6087,
8.480267,-0.9595,-0.2065,-3.2785,-2.1788,1.2210,0.4997,
8.533145,-0.9595,-0.2065,-3.2785,-2.1788,1.2210,0.4997,
8.534902,-0.1477,-0.9073,-0.2868,-2.1788,1.2210,0.4997,
8.544070,-0.1477,-0.9073,-0.2868,-2.0119,0.7851,1.4540,
8.598026,-0.1477,-0.9073,-0.2868,-2.0119,0.7851,1.4540,
8.598973,0.3914,-3.4502,-0.4495,-2.0119,0.7851,1.4540,
8.612157,0.3914,-3.4502,-0.4495,-0.4163,1.3813,0.6825,
8.661357,0.3914,-3.4502,-0.4495,-0.4163,1.3813,0.6825,
8.662569,0.8034,-2.8753,2.7777,-0.4163,1.3813,0.6825,
8.674083,0.8034,-2.8753,2.7777,0.5258,0.0641,-0.0020,
8.726474,0.8034,-2.8753,2.7777,0.5258,0.0641,-0.0020,
8.727579,0.7601,4.4737,3.1957,0.5258,0.0641,-0.0020,
8.739035,0.7601,4.4737,3.1957,1.1938,-0.3438,0.7938,
8.792655,0.7601,4.4737,3.1957,1.1938,-0.3438,0.7938,
8.793676,-0.6295,-0.0032,-3.4428,1.1938,-0.3438,0.7938,
8.804868,-0.6295,-0.0032,-3.4428,1.6521,-0.3833,-0.5316,
8.857881,-0.6295,-0.0032,-3.4428,1.6521,-0.3833,-0.5316,
8.858903,-1.5444,1.5596,-2.2480,1.6521,-0.3833,-0.5316,
8.870288,-1.5444,1.5596,-2.2480,0.0215,-0.7376,-0.2776,
8.923797,-1.5444,1.5596,-2.2480,0.0215,-0.7376,-0.2776,
8.924885,0.0045,0.9509,0.4146,0.0215,-0.7376,-0.2776,
8.935524,0.0045,0.9509,0.4146,0.7228,-1.5463,-0.1581,
8.989827,0.0045,0.9509,0.4146,0.7228,-1.5463,-0.1581,
8.990876,1.1148,-0.8706,-1.6679,0.7228,-1.5463,-0.1581,
9.001327,1.1148,-0.8706,-1.6679,1.0285,0.0687,-0.1092,
9.054992,1.1148,-0.8706,-1.6679,1.0285,0.0687,-0.1092,
9.055977,0.7412,-2.2705,0.1954,1.0285,0.0687,-0.1092,
9.066665,0.7412,-2.2705,0.1954,1.2359,0.6860,-0.5495,
9.120940,0.7412,-2.2705,0.1954,1.2359,0.6860,-0.5495,
9.122487,0.4904,-0.1268,0.1983,1.2359,0.6860,-0.5495,
9.131872,0.4904,-0.1268,0.1983,1.1872,-0.3146,-0.8114,
9.186458,0.4904,-0.1268,0.1983,1.1872,-0.3146,-0.8114,
9.187962,0.8434,-0.3046,-0.2878,1.1872,-0.3146,-0.8114,
9.198564,0.8434,-0.3046,-0.2878,0.2709,-0.6837,-0.2648,
9.251134,0.8434,-0.3046,-0.2878,0.2709,-0.6837,-0.2648,
9.252057,-0.5805,-0.5525,-2.7004,0.2709,-0.6837,-0.2648,
9.263517,-0.5805,-0.5525,-2.7004,-0.9097,-0.8529,0.1035,
9.317618,-0.5805,-0.5525,-2.7004,-0.9097,-0.8529,0.1035,
9.320274,-0.2873,5.5609,-2.4503,-0.9097,-0.8529,0.1035,
9.329180,-0.2873,5.5609,-2.4503,-4.5896,-3.8120,2.0774,
9.381928,-0.2873,5.5609,-2.4503,-4.5896,-3.8120,2.0774,
9.383164,0.6729,0.1386,3.2807,-4.5896,-3.8120,2.0774,
9.395303,0.6729,0.1386,3.2807,-1.0159,-0.9316,0.4336,
9.450540,0.6729,0.1386,3.2807,-1.0159,-0.9316,0.4336,
9.453576,0.3638,0.0237,-0.4880,-1.0159,-0.9316,0.4336,
9.461084,0.3638,0.0237,-0.4880,0.2169,1.6909,1.6539,
9.515263,0.3638,0.0237,-0.4880,0.2169,1.6909,1.6539,
9.517372,-0.8860,-3.3211,-2.0113,0.2169,1.6909,1.6539,
9.527542,-0.8860,-3.3211,-2.0113,-0.0828,1.3412,0.1906,
9.579425,-0.8860,-3.3211,-2.0113,-0.0828,1.3412,0.1906,
9.581258,-2.1030,-1.4817,1.6700,-0.0828,1.3412,0.1906,
9.590583,-2.1030,-1.4817,1.6700,-0.0591,-0.2376,0.2030,
9.644725,-2.1030,-1.4817,1.6700,-0.0591,-0.2376,0.2030,
9.645722,0.8822,-2.8067,0.4282,-0.0591,-0.2376,0.2030,
9.655549,0.8822,-2.8067,0.4282,0.4664,0.1691,0.0241,
9.711154,0.8822,-2.8067,0.4282,0.4664,0.1691,0.0241,
9.712725,2.5913,4.7376,1.4031,0.4664,0.1691,0.0241,
9.722569,2.5913,4.7376,1.4031,0.1796,-0.6544,0.9497,
9.776497,2.5913,4.7376,1.4031,0.1796,-0.6544,0.9497,
9.778015,-0.9707,0.1469,-1.4840,0.1796,-0.6544,0.9497,
9.788241,-0.9707,0.1469,-1.4840,1.5091,2.7014,-1.6817,
9.842123,-0.9707,0.1469,-1.4840,1.5091,2.7014,-1.6817,
9.843865,-2.0096,1.6727,-1.9761,1.5091,2.7014,-1.6817,
9.854079,-2.0096,1.6727,-1.9761,1.8039,0.7947,-0.4687,
9.906741,-2.0096,1.6727,-1.9761,1.8039,0.7947,-0.4687,
9.908513,-1.5606,-0.7383,-2.1411,1.8039,0.7947,-0.4687,
9.918946,-1.5606,-0.7383,-2.1411,0.5263,-0.8508,0.0414,
9.972939,-1.5606,-0.7383,-2.1411,0.5263,-0.8508,0.0414,
9.976188,-0.2575,-0.1395,1.0156,0.5263,-0.8508,0.0414,
9.983814,-0.2575,-0.1395,1.0156,0.5678,-1.2821,-0.2824,
10.037894,-0.2575,-0.1395,1.0156,0.5678,-1.2821,-0.2824,
10.039246,0.3818,-0.9841,-1.1903,0.5678,-1.2821,-0.2824,
10.049330,0.3818,-0.9841,-1.1903,0.6768,0.8670,-0.3603,
10.103255,0.3818,-0.9841,-1.1903,0.6768,0.8670,-0.3603,
10.104595,1.1484,-1.0213,-0.5356,0.6768,0.8670,-0.3603,
10.114363,1.1484,-1.0213,-0.5356,0.8004,0.5464,-0.2494,
10.168496,1.1484,-1.0213,-0.5356,0.8004,0.5464,-0.2494,
10.169244,0.5482,-0.7649,-0.2058,0.8004,0.5464,-0.2494,
10.179730,0.5482,-0.7649,-0.2058,0.4527,-0.5385,-0.2599,
10.234105,0.5482,-0.7649,-0.2058,0.4527,-0.5385,-0.2599,
10.235661,1.0943,-0.1402,0.5877,0.4527,-0.5385,-0.2599,
10.246329,1.0943,-0.1402,0.5877,0.4134,-0.4415,-0.4221,
10.301121,1.0943,-0.1402,0.5877,0.4134,-0.4415,-0.4221,
10.302802,1.0987,0.6187,1.1018,0.4134,-0.4415,-0.4221,
10.311129,1.0987,0.6187,1.1018,0.3143,-0.7929,-0.0428,
10.365363,1.0987,0.6187,1.1018,0.3143,-0.7929,-0.0428,
10.366453,0.6753,2.9571,-0.9088,0.3143,-0.7929,-0.0428,
10.378232,0.6753,2.9571,-0.9088,-1.7352,-0.0472,0.9155,
10.431346,0.6753,2.9571,-0.9088,-1.7352,-0.0472,0.9155,
10.433137,-0.9798,1.9436,-1.3778,-1.7352,-0.0472,0.9155,
10.442564,-0.9798,1.9436,-1.3778,-1.5701,0.1151,0.0861,
10.496195,-0.9798,1.9436,-1.3778,-1.5701,0.1151,0.0861,
10.498304,-1.6437,1.9663,-1.6433,-1.5701,0.1151,0.0861,
10.507107,-1.6437,1.9663,-1.6433,-1.1255,-0.0373,1.5437,
10.562348,-1.6437,1.9663,-1.6433,-1.1255,-0.0373,1.5437,
10.563484,-0.7764,-2.4897,-1.7198,-1.1255,-0.0373,1.5437,
10.571866,-0.7764,-2.4897,-1.7198,-0.9444,0.7414,1.5108,
10.626303,-0.7764,-2.4897,-1.7198,-0.9444,0.7414,1.5108,
10.627531,0.5614,-4.4385,1.5677,-0.9444,0.7414,1.5108,
10.639099,0.5614,-4.4385,1.5677,0.5116,0.7643,-0.0846,
10.692144,0.5614,-4.4385,1.5677,0.5116,0.7643,-0.0846,
10.693778,0.2592,3.4671,3.2360,0.5116,0.7643,-0.0846,
10.704979,0.2592,3.4671,3.2360,0.1779,-0.3001,0.1235,
10.758541,0.2592,3.4671,3.2360,0.1779,-0.3001,0.1235,
10.759995,-0.8608,-0.7916,-2.4562,0.1779,-0.3001,0.1235,
10.770996,-0.8608,-0.7916,-2.4562,1.2214,0.8974,-0.4331,
10.824694,-0.8608,-0.7916,-2.4562,1.2214,0.8974,-0.4331,
10.826481,-0.6085,-0.3813,0.8144,1.2214,0.8974,-0.4331,
10.836734,-0.6085,-0.3813,0.8144,0.6475,0.3696,-0.1802,
10.891251,-0.6085,-0.3813,0.8144,0.6475,0.3696,-0.1802,
10.893540,-0.7352,0.3047,-1.3187,0.6475,0.3696,-0.1802,
10.901420,-0.7352,0.3047,-1.3187,1.0881,0.9760,-0.2243,
10.954946,-0.7352,0.3047,-1.3187,1.0881,0.9760,-0.2243,
10.957485,-0.0259,-1.0998,-1.8845,1.0881,0.9760,-0.2243,
10.965580,-0.0259,-1.0998,-1.8845,0.8845,1.1312,-0.4386,
11.019434,-0.0259,-1.0998,-1.8845,0.8845,1.1312,-0.4386,
11.020667,-0.0210,-0.6086,0.0937,0.8845,1.1312,-0.4386,
11.030685,-0.0210,-0.6086,0.0937,0.6009,-0.8610,-0.3493,
11.085004,-0.0210,-0.6086,0.0937,0.6009,-0.8610,-0.3493,
11.086666,0.9948,-0.6219,-0.6161,0.6009,-0.8610,-0.3493,
11.096236,0.9948,-0.6219,-0.6161,0.2208,-1.1501,-0.5205,
11.150658,0.9948,-0.6219,-0.6161,0.2208,-1.1501,-0.5205,
11.151734,2.1224,-0.7121,1.1488,0.2208,-1.1501,-0.5205,
11.161857,2.1224,-0.7121,1.1488,0.0121,-1.3401,-0.6023,
11.215712,2.1224,-0.7121,1.1488,0.0121,-1.3401,-0.6023,
11.217718,0.6509,3.4973,1.2135,0.0121,-1.3401,-0.6023,
11.228231,0.6509,3.4973,1.2135,0.1744,0.6891,0.0968,
11.280581,0.6509,3.4973,1.2135,0.1744,0.6891,0.0968,
11.281070,-0.8484,0.9277,-1.3377,0.1744,0.6891,0.0968,
11.293404,-0.8484,0.9277,-1.3377,-0.7970,0.2005,-0.1808,
11.347127,-0.8484,0.9277,-1.3377,-0.7970,0.2005,-0.1808,
11.348844,0.2122,0.9628,-0.9324,-0.7970,0.2005,-0.1808,
11.358478,0.2122,0.9628,-0.9324,-1.3772,-0.3354,0.0878,
11.412922,0.2122,0.9628,-0.9324,-1.3772,-0.3354,0.0878,
11.414609,-1.5578,0.0793,-0.8395,-1.3772,-0.3354,0.0878,
11.424558,-1.5578,0.0793,-0.8395,-1.2831,0.0221,0.1935,
11.477892,-1.5578,0.0793,-0.8395,-1.2831,0.0221,0.1935,
11.478967,-0.6658,0.0893,-0.8904,-1.2831,0.0221,0.1935,
11.489738,-0.6658,0.0893,-0.8904,-0.8138,-0.4094,0.3511,
11.544267,-0.6658,0.0893,-0.8904,-0.8138,-0.4094,0.3511,
11.545905,-1.0445,-0.1224,-1.8292,-0.8138,-0.4094,0.3511,
11.556130,-1.0445,-0.1224,-1.8292,-1.1910,0.2456,0.1103,
11.611529,-1.0445,-0.1224,-1.8292,-1.1910,0.2456,0.1103,
11.613809,-0.2510,-0.6010,-0.2900,-1.1910,0.2456,0.1103,
11.622114,-0.2510,-0.6010,-0.2900,-0.7648,0.5796,0.5160,
11.674645,-0.2510,-0.6010,-0.2900,-0.7648,0.5796,0.5160,
11.676109,0.3253,-0.7284,-0.5453,-0.7648,0.5796,0.5160,
11.686900,0.3253,-0.7284,-0.5453,-0.2214,0.7042,0.4722,
11.741093,0.3253,-0.7284,-0.5453,-0.2214,0.7042,0.4722,
11.742831,0.3918,-1.2550,0.6436,-0.2214,0.7042,0.4722,
11.752741,0.3918,-1.2550,0.6436,-0.0229,0.6837,0.3380,
11.808165,0.3918,-1.2550,0.6436,-0.0229,0.6837,0.3380,
11.810698,0.8294,-0.3909,1.3615,-0.0229,0.6837,0.3380,
11.818122,0.8294,-0.3909,1.3615,0.7396,0.5163,0.4833,
11.873022,0.8294,-0.3909,1.3615,0.7396,0.5163,0.4833,
11.874776,-0.4514,0.3115,-0.9243,0.7396,0.5163,0.4833,
11.882988,-0.4514,0.3115,-0.9243,1.6438,0.6985,-0.1319,
11.937663,-0.4514,0.3115,-0.9243,1.6438,0.6985,-0.1319,
11.938646,0.6761,0.3805,-2.1641,1.6438,0.6985,-0.1319,
11.948098,0.6761,0.3805,-2.1641,1.4242,0.6275,0.3932,
12.003096,0.6761,0.3805,-2.1641,1.4242,0.6275,0.3932,
12.005439,-1.1615,0.2572,-1.3415,1.4242,0.6275,0.3932,
12.014016,-1.1615,0.2572,-1.3415,1.0255,1.0113,-0.0996,
12.069483,-1.1615,0.2572,-1.3415,1.0255,1.0113,-0.0996,
12.070240,-1.5417,-0.0008,-0.7197,1.0255,1.0113,-0.0996,
12.080200,-1.5417,-0.0008,-0.7197,0.3516,0.2761,-0.4565,
12.134815,-1.5417,-0.0008,-0.7197,0.3516,0.2761,-0.4565,
12.137519,1.2053,-1.0028,1.3770,0.3516,0.2761,-0.4565,
12.147532,1.2053,-1.0028,1.3770,-0.1248,-1.7214,-0.2804,
12.198816,1.2053,-1.0028,1.3770,-0.1248,-1.7214,-0.2804,
12.200675,1.4698,-2.5763,0.8945,-0.1248,-1.7214,-0.2804,
12.209984,1.4698,-2.5763,0.8945,-0.9562,-0.9691,-0.0197,
12.264198,1.4698,-2.5763,0.8945,-0.9562,-0.9691,-0.0197,
12.265871,1.3846,6.1053,1.4763,-0.9562,-0.9691,-0.0197,
12.275845,1.3846,6.1053,1.4763,-1.0400,0.5084,0.2262,
12.329456,1.3846,6.1053,1.4763,-1.0400,0.5084,0.2262,
12.330998,0.2072,1.9135,-2.7555,-1.0400,0.5084,0.2262,
12.340877,0.2072,1.9135,-2.7555,-0.5705,0.4391,-0.0330,
12.394052,0.2072,1.9135,-2.7555,-0.5705,0.4391,-0.0330,
12.394553,1.0392,1.6439,0.3851,-0.5705,0.4391,-0.0330,
12.406590,1.0392,1.6439,0.3851,-0.8822,-1.8587,0.4815,
12.460023,1.0392,1.6439,0.3851,-0.8822,-1.8587,0.4815,
12.462162,-1.4185,-1.6937,-0.8575,-0.8822,-1.8587,0.4815,
12.472052,-1.4185,-1.6937,-0.8575,-0.1071,0.6301,0.3308,
12.528250,-1.4185,-1.6937,-0.8575,-0.1071,0.6301,0.3308,
12.530338,0.0527,-0.8816,-1.0193,-0.1071,0.6301,0.3308,
12.539785,0.0527,-0.8816,-1.0193,-0.0927,0.2144,0.5188,
12.591767,0.0527,-0.8816,-1.0193,-0.0927,0.2144,0.5188,
12.593918,-0.6382,-1.4217,-0.7168,-0.0927,0.2144,0.5188,
12.604562,-0.6382,-1.4217,-0.7168,-0.3241,0.6020,0.3071,
12.657150,-0.6382,-1.4217,-0.7168,-0.3241,0.6020,0.3071,
12.658577,0.2919,-1.8321,0.1829,-0.3241,0.6020,0.3071,
12.669071,0.2919,-1.8321,0.1829,0.3393,0.5402,0.1993,
12.723437,0.2919,-1.8321,0.1829,0.3393,0.5402,0.1993,
12.724920,0.8422,1.6199,0.5665,0.3393,0.5402,0.1993,
12.735247,0.8422,1.6199,0.5665,-0.0794,0.2463,0.5675,
12.788964,0.8422,1.6199,0.5665,-0.0794,0.2463,0.5675,
12.789796,-0.2267,-1.5450,-1.2681,-0.0794,0.2463,0.5675,
12.800705,-0.2267,-1.5450,-1.2681,1.3036,1.3616,-0.5403,
12.854709,-0.2267,-1.5450,-1.2681,1.3036,1.3616,-0.5403,
12.856689,0.2642,3.1370,-0.2014,1.3036,1.3616,-0.5403,
12.866088,0.2642,3.1370,-0.2014,1.4482,0.3155,-0.0029,
12.919999,0.2642,3.1370,-0.2014,1.4482,0.3155,-0.0029,
12.921654,-0.0153,-1.0966,-2.0190,1.4482,0.3155,-0.0029,
12.931570,-0.0153,-1.0966,-2.0190,0.8479,1.0825,0.1167,
12.984913,-0.0153,-1.0966,-2.0190,0.8479,1.0825,0.1167,
12.986748,0.3603,-0.4858,0.7171,0.8479,1.0825,0.1167,
12.997170,0.3603,-0.4858,0.7171,0.9192,0.3036,0.2185,
13.050333,0.3603,-0.4858,0.7171,0.9192,0.3036,0.2185,
13.051836,-0.4913,-0.1783,-0.7699,0.9192,0.3036,0.2185,
13.061479,-0.4913,-0.1783,-0.7699,0.8210,0.5159,0.0354,
13.114851,-0.4913,-0.1783,-0.7699,0.8210,0.5159,0.0354,
13.116858,0.4941,-0.6599,-0.4654,0.8210,0.5159,0.0354,
13.127353,0.4941,-0.6599,-0.4654,0.5857,0.6322,-0.0385,
13.181953,0.4941,-0.6599,-0.4654,0.5857,0.6322,-0.0385,
13.183639,1.0390,-0.7954,0.5001,0.5857,0.6322,-0.0385,
13.193141,1.0390,-0.7954,0.5001,0.6332,-0.6278,-0.1576,
13.247476,1.0390,-0.7954,0.5001,0.6332,-0.6278,-0.1576,
13.250851,0.1233,-0.9639,-0.1059,0.6332,-0.6278,-0.1576,
13.258531,0.1233,-0.9639,-0.1059,0.3470,0.1678,-0.4420,
13.311806,0.1233,-0.9639,-0.1059,0.3470,0.1678,-0.4420,
13.312365,-0.0490,-1.0367,-0.0702,0.3470,0.1678,-0.4420,
13.324234,-0.0490,-1.0367,-0.0702,-0.2280,-0.0727,-0.5519,
13.377443,-0.0490,-1.0367,-0.0702,-0.2280,-0.0727,-0.5519,
13.378867,1.5778,0.3081,0.3242,-0.2280,-0.0727,-0.5519,
13.390421,1.5778,0.3081,0.3242,-0.3571,-0.0376,-0.0336,
13.443502,1.5778,0.3081,0.3242,-0.3571,-0.0376,-0.0336,
13.445353,2.7691,2.1252,-0.2663,-0.3571,-0.0376,-0.0336,
13.454911,2.7691,2.1252,-0.2663,-0.1695,0.7822,-0.2182,
13.507648,2.7691,2.1252,-0.2663,-0.1695,0.7822,-0.2182,
13.509375,-1.2996,3.2788,-1.0769,-0.1695,0.7822,-0.2182,
13.519216,-1.2996,3.2788,-1.0769,-0.5990,0.2450,-0.1431,
13.573450,-1.2996,3.2788,-1.0769,-0.5990,0.2450,-0.1431,
13.575468,-1.1225,0.9117,-1.0740,-0.5990,0.2450,-0.1431,
13.586626,-1.1225,0.9117,-1.0740,-0.9226,-0.1936,0.2166,
13.640069,-1.1225,0.9117,-1.0740,-0.9226,-0.1936,0.2166,
13.642124,-0.0873,-0.2620,-0.6656,-0.9226,-0.1936,0.2166,
13.651638,-0.0873,-0.2620,-0.6656,-1.3767,-0.9687,0.3618,
13.704720,-0.0873,-0.2620,-0.6656,-1.3767,-0.9687,0.3618,
13.705721,-1.0360,0.7271,-1.5526,-1.3767,-0.9687,0.3618,
13.716885,-1.0360,0.7271,-1.5526,-0.8801,0.6000,0.3635,
13.771511,-1.0360,0.7271,-1.5526,-0.8801,0.6000,0.3635,
13.773214,-0.7766,-1.0617,-0.5992,-0.8801,0.6000,0.3635,
13.781761,-0.7766,-1.0617,-0.5992,-0.7640,0.4898,0.7370,
13.836023,-0.7766,-1.0617,-0.5992,-0.7640,0.4898,0.7370,
13.837255,-0.0427,-3.2855,-0.2436,-0.7640,0.4898,0.7370,
13.848922,-0.0427,-3.2855,-0.2436,-0.0409,0.6063,0.3538,
13.901220,-0.0427,-3.2855,-0.2436,-0.0409,0.6063,0.3538,
13.902739,0.7843,-3.1131,1.0823,-0.0409,0.6063,0.3538,
13.912047,0.7843,-3.1131,1.0823,0.4307,0.0151,0.0958,
13.967763,0.7843,-3.1131,1.0823,0.4307,0.0151,0.0958,
13.969562,1.6670,4.1737,1.3544,0.4307,0.0151,0.0958,
13.978191,1.6670,4.1737,1.3544,0.5263,0.1741,0.9360,
14.032330,1.6670,4.1737,1.3544,0.5263,0.1741,0.9360,
14.034291,-0.9003,0.7678,-2.0724,0.5263,0.1741,0.9360,
14.044838,-0.9003,0.7678,-2.0724,1.3492,1.6513,-0.8447,
14.097970,-0.9003,0.7678,-2.0724,1.3492,1.6513,-0.8447,
14.099598,-1.0118,1.6553,-0.5888,1.3492,1.6513,-0.8447,
14.109803,-1.0118,1.6553,-0.5888,0.8079,-0.1086,0.2532,
14.163598,-1.0118,1.6553,-0.5888,0.8079,-0.1086,0.2532,
14.165395,0.4244,-1.2683,0.2750,0.8079,-0.1086,0.2532,
14.174489,0.4244,-1.2683,0.2750,1.0389,0.6538,0.1602,
14.226952,0.4244,-1.2683,0.2750,1.0389,0.6538,0.1602,
14.227497,-0.3353,-1.2254,-0.3946,1.0389,0.6538,0.1602,
14.239370,-0.3353,-1.2254,-0.3946,1.3071,0.8322,-0.0257,
14.294262,-0.3353,-1.2254,-0.3946,1.3071,0.8322,-0.0257,
14.295215,0.5803,-0.9303,-1.3451,1.3071,0.8322,-0.0257,
14.306183,0.5803,-0.9303,-1.3451,0.1428,0.0040,0.3374,
14.359282,0.5803,-0.9303,-1.3451,0.1428,0.0040,0.3374,
14.360978,-0.3784,-0.8945,-0.4481,0.1428,0.0040,0.3374,
14.370721,-0.3784,-0.8945,-0.4481,0.3877,-0.1746,-0.1275,
14.425490,-0.3784,-0.8945,-0.4481,0.3877,-0.1746,-0.1275,
14.427688,0.8333,0.1005,-0.3257,0.3877,-0.1746,-0.1275,
14.437109,0.8333,0.1005,-0.3257,0.0136,-1.0444,-0.0605,
14.491479,0.8333,0.1005,-0.3257,0.0136,-1.0444,-0.0605,
14.493481,1.1581,-0.4906,-0.1020,0.0136,-1.0444,-0.0605,
14.504957,1.1581,-0.4906,-0.1020,0.1683,-0.5461,-0.1672,
14.555473,1.1581,-0.4906,-0.1020,0.1683,-0.5461,-0.1672,
14.556557,1.6474,0.8792,1.5504,0.1683,-0.5461,-0.1672,
14.567392,1.6474,0.8792,1.5504,-0.1558,-1.3247,-0.1067,
14.622008,1.6474,0.8792,1.5504,-0.1558,-1.3247,-0.1067,
14.623460,1.9886,3.7093,-0.2902,-0.1558,-1.3247,-0.1067,
14.633507,1.9886,3.7093,-0.2902,-0.6309,0.2692,-0.0617,
14.687840,1.9886,3.7093,-0.2902,-0.6309,0.2692,-0.0617,
14.689648,-0.4203,0.4013,-0.1705,-0.6309,0.2692,-0.0617,
14.698926,-0.4203,0.4013,-0.1705,-0.8845,-0.6158,0.0614,
14.753110,-0.4203,0.4013,-0.1705,-0.8845,-0.6158,0.0614,
14.754749,0.4242,0.8612,-0.7415,-0.8845,-0.6158,0.0614,
14.765134,0.4242,0.8612,-0.7415,-0.8170,-0.2529,0.7527,
14.819256,0.4242,0.8612,-0.7415,-0.8170,-0.2529,0.7527,
14.821230,0.7990,-0.2012,-1.0487,-0.8170,-0.2529,0.7527,
14.829821,0.7990,-0.2012,-1.0487,-0.7521,0.8205,0.9804,
14.884460,0.7990,-0.2012,-1.0487,-0.7521,0.8205,0.9804,
14.885473,-0.9858,-1.6344,-0.8215,-0.7521,0.8205,0.9804,
14.894973,-0.9858,-1.6344,-0.8215,-0.7941,1.3218,0.0275,
14.949107,-0.9858,-1.6344,-0.8215,-0.7941,1.3218,0.0275,
14.950121,-1.6102,-1.8438,0.2197,-0.7941,1.3218,0.0275,
14.961099,-1.6102,-1.8438,0.2197,-0.4881,0.3874,0.3502,
15.014501,-1.6102,-1.8438,0.2197,-0.4881,0.3874,0.3502,
15.015987,0.3424,-3.0529,0.3846,-0.4881,0.3874,0.3502,
15.025544,0.3424,-3.0529,0.3846,0.3864,-0.2746,-0.0501,
15.079414,0.3424,-3.0529,0.3846,0.3864,-0.2746,-0.0501,
15.080090,1.9563,4.4610,1.1341,0.3864,-0.2746,-0.0501,
15.091126,1.9563,4.4610,1.1341,0.4800,-0.7526,0.7779,
15.145960,1.9563,4.4610,1.1341,0.4800,-0.7526,0.7779,
15.146955,0.6781,-0.1303,-2.0877,0.4800,-0.7526,0.7779,
15.156222,0.6781,-0.1303,-2.0877,1.1910,2.4213,-0.7705,
15.211398,0.6781,-0.1303,-2.0877,1.1910,2.4213,-0.7705,
15.213174,-0.1000,0.5368,-0.4175,1.1910,2.4213,-0.7705,
15.222166,-0.1000,0.5368,-0.4175,1.2439,1.1742,0.0648,
15.277135,-0.1000,0.5368,-0.4175,1.2439,1.1742,0.0648,
15.278832,-1.0033,-0.7213,-0.9326,1.2439,1.1742,0.0648,
15.287591,-1.0033,-0.7213,-0.9326,0.9757,0.1361,0.2485,
15.342101,-1.0033,-0.7213,-0.9326,0.9757,0.1361,0.2485,
15.343096,-0.6648,-0.1135,-0.3794,0.9757,0.1361,0.2485,
15.353261,-0.6648,-0.1135,-0.3794,0.6946,0.3758,-0.1452,
15.408093,-0.6648,-0.1135,-0.3794,0.6946,0.3758,-0.1452,
15.410051,0.1799,-1.0676,-0.2679,0.6946,0.3758,-0.1452,
15.419042,0.1799,-1.0676,-0.2679,0.5111,-0.2301,-0.2894,
15.473250,0.1799,-1.0676,-0.2679,0.5111,-0.2301,-0.2894,
15.474969,0.1470,-1.1587,-0.2206,0.5111,-0.2301,-0.2894,
15.485074,0.1470,-1.1587,-0.2206,0.2941,-1.1678,-0.2234,
15.538908,0.1470,-1.1587,-0.2206,0.2941,-1.1678,-0.2234,
15.540914,0.4188,-1.7539,0.6002,0.2941,-1.1678,-0.2234,
15.548860,0.4188,-1.7539,0.6002,-0.1350,-2.0676,-0.2422,
15.603661,0.4188,-1.7539,0.6002,-0.1350,-2.0676,-0.2422,
15.605132,1.1730,-0.1396,-1.7627,-0.1350,-2.0676,-0.2422,
15.615982,1.1730,-0.1396,-1.7627,-0.0623,0.4749,0.2074,
15.668920,1.1730,-0.1396,-1.7627,-0.0623,0.4749,0.2074,
15.670264,2.0228,5.7496,1.9104,-0.0623,0.4749,0.2074,
15.681076,2.0228,5.7496,1.9104,0.1631,-0.8044,-0.0533,
15.734342,2.0228,5.7496,1.9104,0.1631,-0.8044,-0.0533,
15.735094,-0.8054,1.2531,-0.6954,0.1631,-0.8044,-0.0533,
15.746173,-0.8054,1.2531,-0.6954,-1.3347,-0.6022,-0.0912,
15.799288,-0.8054,1.2531,-0.6954,-1.3347,-0.6022,-0.0912,
15.800286,0.0456,-0.8491,-0.0986,-1.3347,-0.6022,-0.0912,
15.811298,0.0456,-0.8491,-0.0986,-0.7952,-0.1578,-0.1275,
15.865088,0.0456,-0.8491,-0.0986,-0.7952,-0.1578,-0.1275,
15.866122,0.7424,-1.1098,-0.7959,-0.7952,-0.1578,-0.1275,
15.877190,0.7424,-1.1098,-0.7959,-0.9252,0.3493,0.2146,
15.931689,0.7424,-1.1098,-0.7959,-0.9252,0.3493,0.2146,
15.933411,-0.0537,0.1719,-0.6084,-0.9252,0.3493,0.2146,
15.943738,-0.0537,0.1719,-0.6084,-0.4937,0.0165,0.4470,
15.996886,-0.0537,0.1719,-0.6084,-0.4937,0.0165,0.4470,
15.998659,0.6068,-0.6375,0.2447,-0.4937,0.0165,0.4470,
16.008159,0.6068,-0.6375,0.2447,-0.3477,0.4600,0.7188,
16.061541,0.6068,-0.6375,0.2447,-0.3477,0.4600,0.7188,
16.063007,0.5117,-0.7549,-0.3878,-0.3477,0.4600,0.7188,
16.072700,0.5117,-0.7549,-0.3878,0.1779,1.4019,0.4019,
16.127724,0.5117,-0.7549,-0.3878,0.1779,1.4019,0.4019,
16.129807,-0.5435,-0.8137,-0.4184,0.1779,1.4019,0.4019,
16.139401,-0.5435,-0.8137,-0.4184,-0.0089,1.3428,0.2049,
16.194066,-0.5435,-0.8137,-0.4184,-0.0089,1.3428,0.2049,
16.195778,-0.8140,-1.0671,0.6577,-0.0089,1.3428,0.2049,
16.204093,-0.8140,-1.0671,0.6577,0.2016,0.9377,0.1023,
16.258481,-0.8140,-1.0671,0.6577,0.2016,0.9377,0.1023,
16.261265,-0.7341,-0.7179,0.3533,0.2016,0.9377,0.1023,
16.269802,-0.7341,-0.7179,0.3533,0.3044,0.3381,0.1124,
16.323765,-0.7341,-0.7179,0.3533,0.3044,0.3381,0.1124,
16.325427,0.7828,0.8281,1.6064,0.3044,0.3381,0.1124,
16.337868,0.7828,0.8281,1.6064,0.3010,-0.5696,0.5130,
16.390379,0.7828,0.8281,1.6064,0.3010,-0.5696,0.5130,
16.392014,1.6990,-0.6392,-0.8780,0.3010,-0.5696,0.5130,
16.399573,1.6990,-0.6392,-0.8780,1.3398,1.3709,-0.6359,
16.455542,1.6990,-0.6392,-0.8780,1.3398,1.3709,-0.6359,
16.457188,-0.8759,2.8612,-0.8583,1.3398,1.3709,-0.6359,
16.465793,-0.8759,2.8612,-0.8583,2.1360,0.8412,-0.2914,
16.520975,-0.8759,2.8612,-0.8583,2.1360,0.8412,-0.2914,
16.523911,0.2017,-4.3438,-1.6970,2.1360,0.8412,-0.2914,
16.533347,0.2017,-4.3438,-1.6970,1.0771,1.1718,-0.0990,
16.586352,0.2017,-4.3438,-1.6970,1.0771,1.1718,-0.0990,
16.588013,1.0702,0.9923,0.5575,1.0771,1.1718,-0.0990,
16.597741,1.0702,0.9923,0.5575,0.7625,-0.0244,0.2338,
16.651949,1.0702,0.9923,0.5575,0.7625,-0.0244,0.2338,
16.653753,1.9024,-1.8619,0.9107,0.7625,-0.0244,0.2338,
16.664340,1.9024,-1.8619,0.9107,0.8317,0.3890,-0.3294,
16.720019,1.9024,-1.8619,0.9107,0.8317,0.3890,-0.3294,
16.721830,3.0273,0.3141,3.8809,0.8317,0.3890,-0.3294,
16.728465,3.0273,0.3141,3.8809,0.9281,-1.4401,-0.4459,
16.783707,3.0273,0.3141,3.8809,0.9281,-1.4401,-0.4459,
16.785867,-0.1893,-1.9747,-1.4150,0.9281,-1.4401,-0.4459,
16.793569,-0.1893,-1.9747,-1.4150,-2.8973,-0.1768,0.5121,
16.849286,-0.1893,-1.9747,-1.4150,-2.8973,-0.1768,0.5121,
16.851189,2.1620,8.0249,0.0503,-2.8973,-0.1768,0.5121,
16.859416,2.1620,8.0249,0.0503,-2.9048,-1.0788,1.1496,
16.912841,2.1620,8.0249,0.0503,-2.9048,-1.0788,1.1496,
16.913978,-0.2420,1.6703,0.6878,-2.9048,-1.0788,1.1496,
16.924074,-0.2420,1.6703,0.6878,-1.1921,-1.4517,1.1180,
16.977650,-0.2420,1.6703,0.6878,-1.1921,-1.4517,1.1180,
16.978571,0.1302,-1.5984,0.8724,-1.1921,-1.4517,1.1180,
16.991187,0.1302,-1.5984,0.8724,0.5519,1.7057,0.4504,
17.044240,0.1302,-1.5984,0.8724,0.5519,1.7057,0.4504,
17.045812,-2.7160,-2.2252,-2.5545,0.5519,1.7057,0.4504,
17.055703,-2.7160,-2.2252,-2.5545,0.1315,1.1713,0.6139,
17.109320,-2.7160,-2.2252,-2.5545,0.1315,1.1713,0.6139,
17.111238,0.4068,-1.1366,-0.8501,0.1315,1.1713,0.6139,
17.120907,0.4068,-1.1366,-0.8501,0.1426,0.6478,0.7802,
17.173598,0.4068,-1.1366,-0.8501,0.1426,0.6478,0.7802,
17.174902,0.4270,-1.6032,0.6828,0.1426,0.6478,0.7802,
17.185542,0.4270,-1.6032,0.6828,0.6829,1.1683,0.1495,
17.240710,0.4270,-1.6032,0.6828,0.6829,1.1683,0.1495,
17.242223,1.5569,-0.3134,-0.2910,0.6829,1.1683,0.1495,
17.252786,1.5569,-0.3134,-0.2910,0.6384,1.2336,0.3251,
17.305867,1.5569,-0.3134,-0.2910,0.6384,1.2336,0.3251,
17.307353,1.4317,-1.3371,-1.7450,0.6384,1.2336,0.3251,
17.317571,1.4317,-1.3371,-1.7450,1.3917,1.5113,-0.5038,
17.372062,1.4317,-1.3371,-1.7450,1.3917,1.5113,-0.5038,
17.373563,-1.0331,3.2627,-2.1250,1.3917,1.5113,-0.5038,
17.381974,-1.0331,3.2627,-2.1250,2.0298,1.9789,-1.5536,
17.435931,-1.0331,3.2627,-2.1250,2.0298,1.9789,-1.5536,
17.436670,-2.4421,0.5141,-2.2456,2.0298,1.9789,-1.5536,
17.449412,-2.4421,0.5141,-2.2456,0.4823,-0.4319,-0.0826,
17.503038,-2.4421,0.5141,-2.2456,0.4823,-0.4319,-0.0826,
17.503798,-0.7070,-2.4618,-0.3085,0.4823,-0.4319,-0.0826,
17.515055,-0.7070,-2.4618,-0.3085,0.7159,-1.3471,1.6877,
17.568810,-0.7070,-2.4618,-0.3085,0.7159,-1.3471,1.6877,
17.570888,2.8533,-0.2643,1.6346,0.7159,-1.3471,1.6877,
17.580082,2.8533,-0.2643,1.6346,0.4719,0.4725,-0.1715,
17.634044,2.8533,-0.2643,1.6346,0.4719,0.4725,-0.1715,
17.635721,-0.1982,-0.3487,0.7813,0.4719,0.4725,-0.1715,
17.646318,-0.1982,-0.3487,0.7813,0.7530,1.9280,-0.7130,
17.701046,-0.1982,-0.3487,0.7813,0.7530,1.9280,-0.7130,
17.701958,0.7403,-1.2277,0.0490,0.7530,1.9280,-0.7130,
17.710940,0.7403,-1.2277,0.0490,0.8905,-0.4580,-0.5922,
17.764203,0.7403,-1.2277,0.0490,0.8905,-0.4580,-0.5922,
17.764991,3.1408,-1.2953,2.5482,0.8905,-0.4580,-0.5922,
17.776040,3.1408,-1.2953,2.5482,0.3279,-2.0672,-0.3546,
17.828660,3.1408,-1.2953,2.5482,0.3279,-2.0672,-0.3546,
17.829337,1.2671,-3.2760,1.6256,0.3279,-2.0672,-0.3546,
17.841498,1.2671,-3.2760,1.6256,0.2868,0.0405,-0.3060,
17.896355,1.2671,-3.2760,1.6256,0.2868,0.0405,-0.3060,
17.898390,1.6497,4.9683,-1.1191,0.2868,0.0405,-0.3060,
17.907321,1.6497,4.9683,-1.1191,-0.0383,3.2170,0.5311,
17.961945,1.6497,4.9683,-1.1191,-0.0383,3.2170,0.5311,
17.963291,1.9338,5.3299,-0.7847,-0.0383,3.2170,0.5311,
17.972570,1.9338,5.3299,-0.7847,-0.7975,0.1567,-0.5646,
18.027679,1.9338,5.3299,-0.7847,-0.7975,0.1567,-0.5646,
18.028553,-2.0564,0.3167,-2.1623,-0.7975,0.1567,-0.5646,
18.039095,-2.0564,0.3167,-2.1623,-1.9001,-0.4354,-0.2842,
18.093020,-2.0564,0.3167,-2.1623,-1.9001,-0.4354,-0.2842,
18.094538,-1.1790,-0.4796,-1.5580,-1.9001,-0.4354,-0.2842,
18.104305,-1.1790,-0.4796,-1.5580,-1.2254,-0.1408,0.0550,
18.157698,-1.1790,-0.4796,-1.5580,-1.2254,-0.1408,0.0550,
18.158462,-0.1551,-0.2942,-1.0196,-1.2254,-0.1408,0.0550,
18.169513,-0.1551,-0.2942,-1.0196,-0.6668,1.1313,0.2095,
18.222110,-0.1551,-0.2942,-1.0196,-0.6668,1.1313,0.2095,
18.222814,1.1566,-0.0698,-0.5025,-0.6668,1.1313,0.2095,
18.233625,1.1566,-0.0698,-0.5025,-0.3531,0.4768,0.6037,
18.287629,1.1566,-0.0698,-0.5025,-0.3531,0.4768,0.6037,
18.289385,-0.0234,-0.9529,-1.2547,-0.3531,0.4768,0.6037,
18.299590,-0.0234,-0.9529,-1.2547,0.1138,1.5276,0.2007,
18.354656,-0.0234,-0.9529,-1.2547,0.1138,1.5276,0.2007,
18.355147,-1.8848,-1.8185,-0.8307,0.1138,1.5276,0.2007,
18.365621,-1.8848,-1.8185,-0.8307,-0.5166,1.0925,0.1628,
18.420502,-1.8848,-1.8185,-0.8307,-0.5166,1.0925,0.1628,
18.421109,-0.7938,-3.0181,1.2189,-0.5166,1.0925,0.1628,
18.430994,-0.7938,-3.0181,1.2189,0.1588,0.1095,0.3537,
18.485166,-0.7938,-3.0181,1.2189,0.1588,0.1095,0.3537,
18.486029,0.6299,-1.7314,1.4730,0.1588,0.1095,0.3537,
18.498018,0.6299,-1.7314,1.4730,0.6984,-0.7085,0.4737,
18.551784,0.6299,-1.7314,1.4730,0.6984,-0.7085,0.4737,
18.553994,2.3942,2.7476,0.2157,0.6984,-0.7085,0.4737,
18.563721,2.3942,2.7476,0.2157,1.1533,-0.2138,0.2669,
18.616292,2.3942,2.7476,0.2157,1.1533,-0.2138,0.2669,
18.617235,-1.1186,-0.0921,-2.4457,1.1533,-0.2138,0.2669,
18.627050,-1.1186,-0.0921,-2.4457,1.0638,2.0466,-1.0840,
18.683670,-1.1186,-0.0921,-2.4457,1.0638,2.0466,-1.0840,
18.684836,-1.3555,1.2863,-1.6372,1.0638,2.0466,-1.0840,
18.692125,-1.3555,1.2863,-1.6372,0.6321,-1.3398,0.2112,
18.747657,-1.3555,1.2863,-1.6372,0.6321,-1.3398,0.2112,
18.749145,0.5173,-0.2338,-1.1346,0.6321,-1.3398,0.2112,
18.758078,0.5173,-0.2338,-1.1346,0.1848,-1.8172,0.5417,
18.812457,0.5173,-0.2338,-1.1346,0.1848,-1.8172,0.5417,
18.813364,3.4022,-1.0613,0.6559,0.1848,-1.8172,0.5417,
18.822811,3.4022,-1.0613,0.6559,0.3126,-0.0796,-0.0880,
18.876736,3.4022,-1.0613,0.6559,0.3126,-0.0796,-0.0880,
18.878201,0.6745,-1.4896,0.7471,0.3126,-0.0796,-0.0880,
18.888226,0.6745,-1.4896,0.7471,0.9995,1.0226,-0.4487,
18.942118,0.6745,-1.4896,0.7471,0.9995,1.0226,-0.4487,
18.943965,1.1862,-1.2788,0.8910,0.9995,1.0226,-0.4487,
18.954661,1.1862,-1.2788,0.8910,0.6344,-0.0979,-0.5001,
19.007803,1.1862,-1.2788,0.8910,0.6344,-0.0979,-0.5001,
19.009778,2.4748,-2.5145,1.1377,0.6344,-0.0979,-0.5001,
19.019645,2.4748,-2.5145,1.1377,0.4885,-1.1043,-0.5899,
19.073077,2.4748,-2.5145,1.1377,0.4885,-1.1043,-0.5899,
19.074566,2.0539,-0.8558,1.5877,0.4885,-1.1043,-0.5899,
19.085933,2.0539,-0.8558,1.5877,-0.3600,0.0473,0.1274,
19.139852,2.0539,-0.8558,1.5877,-0.3600,0.0473,0.1274,
19.141604,2.7861,6.3264,-1.4187,-0.3600,0.0473,0.1274,
19.153424,2.7861,6.3264,-1.4187,-0.2685,3.3558,1.1880,
19.203792,2.7861,6.3264,-1.4187,-0.2685,3.3558,1.1880,
19.205373,-0.7438,1.2536,-0.4961,-0.2685,3.3558,1.1880,
19.216769,-0.7438,1.2536,-0.4961,-1.5180,0.6681,-1.3920,
19.271800,-0.7438,1.2536,-0.4961,-1.5180,0.6681,-1.3920,
19.273221,-3.3541,1.1975,-0.6003,-1.5180,0.6681,-1.3920,
19.282675,-3.3541,1.1975,-0.6003,-1.1648,0.2176,-0.2126,
19.336576,-3.3541,1.1975,-0.6003,-1.1648,0.2176,-0.2126,
19.337264,-1.4688,0.3079,-1.9278,-1.1648,0.2176,-0.2126,
19.347155,-1.4688,0.3079,-1.9278,-0.9224,-0.1054,0.0185,
19.400802,-1.4688,0.3079,-1.9278,-0.9224,-0.1054,0.0185,
19.402905,-1.1179,-0.0557,-2.2213,-0.9224,-0.1054,0.0185,
19.412805,-1.1179,-0.0557,-2.2213,-1.5513,-0.4252,0.0762,
19.468224,-1.1179,-0.0557,-2.2213,-1.5513,-0.4252,0.0762,
19.468767,0.3636,-0.7548,0.4446,-1.5513,-0.4252,0.0762,
19.478068,0.3636,-0.7548,0.4446,-0.2743,0.3129,0.3004,
19.531517,0.3636,-0.7548,0.4446,-0.2743,0.3129,0.3004,
19.533151,0.4587,-0.9645,-0.8995,-0.2743,0.3129,0.3004,
19.543390,0.4587,-0.9645,-0.8995,0.4042,1.1101,0.4407,
19.597851,0.4587,-0.9645,-0.8995,0.4042,1.1101,0.4407,
19.598486,0.2655,-0.9536,0.5868,0.4042,1.1101,0.4407,
19.609787,0.2655,-0.9536,0.5868,-0.0612,1.2613,0.4029,
19.663989,0.2655,-0.9536,0.5868,-0.0612,1.2613,0.4029,
19.664538,-0.9797,-2.3673,1.8728,-0.0612,1.2613,0.4029,
19.674320,-0.9797,-2.3673,1.8728,0.3893,0.3071,0.2807,
19.729267,-0.9797,-2.3673,1.8728,0.3893,0.3071,0.2807,
19.730907,-0.5771,-0.7692,-0.8063,0.3893,0.3071,0.2807,
19.740744,-0.5771,-0.7692,-0.8063,0.9161,0.1052,0.0516,
19.794208,-0.5771,-0.7692,-0.8063,0.9161,0.1052,0.0516,
19.796454,-0.8815,2.3174,0.9171,0.9161,0.1052,0.0516,
19.806414,-0.8815,2.3174,0.9171,1.0569,0.2153,-0.0160,
19.860076,-0.8815,2.3174,0.9171,1.0569,0.2153,-0.0160,
19.860779,-0.3940,-0.5014,0.2061,1.0569,0.2153,-0.0160,
19.871535,-0.3940,-0.5014,0.2061,1.1771,-1.4870,0.2007,
19.924008,-0.3940,-0.5014,0.2061,1.1771,-1.4870,0.2007,
19.925639,-0.6887,-0.8705,-2.3300,1.1771,-1.4870,0.2007,
19.936795,-0.6887,-0.8705,-2.3300,0.9349,-0.5629,0.0764,
19.990702,-0.6887,-0.8705,-2.3300,0.9349,-0.5629,0.0764,
19.992029,1.5363,0.0992,0.2582,0.9349,-0.5629,0.0764,
20.003294,1.5363,0.0992,0.2582,-0.0116,-0.3742,0.7385,
20.057265,1.5363,0.0992,0.2582,-0.0116,-0.3742,0.7385,
20.057931,1.9727,-0.5802,-0.0429,-0.0116,-0.3742,0.7385,
20.068816,1.9727,-0.5802,-0.0429,0.8091,-0.3441,-0.0773,
20.121577,1.9727,-0.5802,-0.0429,0.8091,-0.3441,-0.0773,
20.122471,0.5817,-2.2342,0.7358,0.8091,-0.3441,-0.0773,
20.133675,0.5817,-2.2342,0.7358,0.7764,0.6596,-0.2775,
20.188302,0.5817,-2.2342,0.7358,0.7764,0.6596,-0.2775,
20.190197,0.3149,-0.5794,1.8207,0.7764,0.6596,-0.2775,
20.201120,0.3149,-0.5794,1.8207,0.2753,-1.0263,-0.5153,
20.252239,0.3149,-0.5794,1.8207,0.2753,-1.0263,-0.5153,
20.252986,1.8102,-3.2232,1.4856,0.2753,-1.0263,-0.5153,
20.263677,1.8102,-3.2232,1.4856,-0.5162,-1.0212,-0.7292,
20.317462,1.8102,-3.2232,1.4856,-0.5162,-1.0212,-0.7292,
20.318046,1.9757,5.1793,-2.2838,-0.5162,-1.0212,-0.7292,
20.330417,1.9757,5.1793,-2.2838,-0.2314,2.3425,1.1049,
20.384187,1.9757,5.1793,-2.2838,-0.2314,2.3425,1.1049,
20.384822,-0.4798,5.4579,1.2949,-0.2314,2.3425,1.1049,
20.394743,-0.4798,5.4579,1.2949,-2.0177,-1.2773,-0.6590,
20.449137,-0.4798,5.4579,1.2949,-2.0177,-1.2773,-0.6590,
20.450668,-2.4256,2.5296,-0.5927,-2.0177,-1.2773,-0.6590,
20.460199,-2.4256,2.5296,-0.5927,-0.9241,-0.9349,0.1709,
20.515629,-2.4256,2.5296,-0.5927,-0.9241,-0.9349,0.1709,
20.516154,-2.0138,-0.6833,-2.2119,-0.9241,-0.9349,0.1709,
20.525752,-2.0138,-0.6833,-2.2119,-1.2008,0.9294,-0.1016,
20.582488,-2.0138,-0.6833,-2.2119,-1.2008,0.9294,-0.1016,
20.583293,-1.3157,-0.8682,-1.4066,-1.2008,0.9294,-0.1016,
20.593499,-1.3157,-0.8682,-1.4066,-1.9242,-0.7065,-0.3969,
20.646992,-1.3157,-0.8682,-1.4066,-1.9242,-0.7065,-0.3969,
20.648071,-0.8439,-0.7508,-0.4415,-1.9242,-0.7065,-0.3969,
20.657485,-0.8439,-0.7508,-0.4415,-0.7697,0.1344,0.1753,
20.710941,-0.8439,-0.7508,-0.4415,-0.7697,0.1344,0.1753,
20.711747,0.3082,-2.6527,0.0595,-0.7697,0.1344,0.1753,
20.722368,0.3082,-2.6527,0.0595,-0.2720,-0.0310,0.2607,
20.777122,0.3082,-2.6527,0.0595,-0.2720,-0.0310,0.2607,
20.777794,-0.6284,-2.4424,1.1618,-0.2720,-0.0310,0.2607,
20.788754,-0.6284,-2.4424,1.1618,0.5499,-0.0643,-0.0455,
20.840708,-0.6284,-2.4424,1.1618,0.5499,-0.0643,-0.0455,
20.841743,0.5705,1.3360,1.9682,0.5499,-0.0643,-0.0455,
20.854379,0.5705,1.3360,1.9682,0.1481,0.1576,0.4833,
20.908493,0.5705,1.3360,1.9682,0.1481,0.1576,0.4833,
20.909311,-1.3346,-1.2242,-0.4933,0.1481,0.1576,0.4833,
20.920679,-1.3346,-1.2242,-0.4933,1.8813,-0.6296,0.0904,
20.973219,-1.3346,-1.2242,-0.4933,1.8813,-0.6296,0.0904,
20.974012,-0.9231,2.4889,-0.8692,1.8813,-0.6296,0.0904,
20.985491,-0.9231,2.4889,-0.8692,0.6046,-0.3257,-0.0759,
21.039664,-0.9231,2.4889,-0.8692,0.6046,-0.3257,-0.0759,
21.041992,-1.1306,-1.0142,-1.6701,0.6046,-0.3257,-0.0759,
21.052635,-1.1306,-1.0142,-1.6701,1.0073,-0.7359,0.5293,
21.103980,-1.1306,-1.0142,-1.6701,1.0073,-0.7359,0.5293,
21.105723,1.6302,-0.4189,-0.0417,1.0073,-0.7359,0.5293,
21.116049,1.6302,-0.4189,-0.0417,0.1274,-1.3609,0.7576,
21.169508,1.6302,-0.4189,-0.0417,0.1274,-1.3609,0.7576,
21.171209,1.1502,-0.7443,-0.0537,0.1274,-1.3609,0.7576,
21.180998,1.1502,-0.7443,-0.0537,0.3447,-0.3734,-0.0319,
21.234451,1.1502,-0.7443,-0.0537,0.3447,-0.3734,-0.0319,
21.235740,0.6140,-0.4615,0.1833,0.3447,-0.3734,-0.0319,
21.246191,0.6140,-0.4615,0.1833,0.7025,0.7202,-0.1958,
21.300573,0.6140,-0.4615,0.1833,0.7025,0.7202,-0.1958,
21.302040,0.1031,-0.3917,0.4763,0.7025,0.7202,-0.1958,
21.311080,0.1031,-0.3917,0.4763,0.5692,-0.1019,-0.3713,
21.366313,0.1031,-0.3917,0.4763,0.5692,-0.1019,-0.3713,
21.367715,0.3791,-1.1086,0.9407,0.5692,-0.1019,-0.3713,
21.376953,0.3791,-1.1086,0.9407,0.4921,-0.4876,-0.5327,
21.430334,0.3791,-1.1086,0.9407,0.4921,-0.4876,-0.5327,
21.430904,1.6918,-0.8090,1.1957,0.4921,-0.4876,-0.5327,
21.443146,1.6918,-0.8090,1.1957,0.7746,-0.7824,-0.7456,
21.497341,1.6918,-0.8090,1.1957,0.7746,-0.7824,-0.7456,
21.497984,2.6691,-0.5536,3.0009,0.7746,-0.7824,-0.7456,
21.507894,2.6691,-0.5536,3.0009,0.5725,-1.4314,-0.6576,
21.562086,2.6691,-0.5536,3.0009,0.5725,-1.4314,-0.6576,
21.563553,2.8453,0.7585,1.6089,0.5725,-1.4314,-0.6576,
21.575031,2.8453,0.7585,1.6089,-1.0501,-0.6481,0.0965,
21.628780,2.8453,0.7585,1.6089,-1.0501,-0.6481,0.0965,
21.630548,2.2276,4.5299,-2.0542,-1.0501,-0.6481,0.0965,
21.639000,2.2276,4.5299,-2.0542,-0.6556,3.1496,0.3691,
21.693494,2.2276,4.5299,-2.0542,-0.6556,3.1496,0.3691,
21.695164,-1.3655,2.0583,-0.9598,-0.6556,3.1496,0.3691,
21.704050,-1.3655,2.0583,-0.9598,-0.8163,0.6605,-1.0175,
21.759035,-1.3655,2.0583,-0.9598,-0.8163,0.6605,-1.0175,
21.759614,-3.9917,-0.1373,-2.1145,-0.8163,0.6605,-1.0175,
21.771302,-3.9917,-0.1373,-2.1145,-1.6313,-0.3977,-0.3354,
21.824529,-3.9917,-0.1373,-2.1145,-1.6313,-0.3977,-0.3354,
21.825047,-1.7804,-1.6934,-1.8137,-1.6313,-0.3977,-0.3354,
21.835082,-1.7804,-1.6934,-1.8137,-1.8459,0.0021,0.0716,
21.889796,-1.7804,-1.6934,-1.8137,-1.8459,0.0021,0.0716,
21.890491,0.0642,-0.2600,-0.6045,-1.8459,0.0021,0.0716,
21.903604,0.0642,-0.2600,-0.6045,-1.1808,-0.1310,0.4326,
21.954708,0.0642,-0.2600,-0.6045,-1.1808,-0.1310,0.4326,
21.956358,-0.2732,-1.3619,-1.0608,-1.1808,-0.1310,0.4326,
21.966832,-0.2732,-1.3619,-1.0608,-0.7404,0.3546,0.5090,
22.019789,-0.2732,-1.3619,-1.0608,-0.7404,0.3546,0.5090,
22.020962,0.3643,-3.9893,2.2332,-0.7404,0.3546,0.5090,
22.032583,0.3643,-3.9893,2.2332,1.0305,-0.3027,0.3575,
22.087506,0.3643,-3.9893,2.2332,1.0305,-0.3027,0.3575,
22.091049,1.3012,2.0141,2.5566,1.0305,-0.3027,0.3575,
22.097805,1.3012,2.0141,2.5566,0.6096,-0.0040,0.4630,
22.151973,1.3012,2.0141,2.5566,0.6096,-0.0040,0.4630,
22.152785,-1.5638,-2.3339,-1.6103,0.6096,-0.0040,0.4630,
22.162772,-1.5638,-2.3339,-1.6103,2.4218,-0.6642,-0.5672,
22.216350,-1.5638,-2.3339,-1.6103,2.4218,-0.6642,-0.5672,
22.217077,-1.4560,2.5764,-3.5794,2.4218,-0.6642,-0.5672,
22.227881,-1.4560,2.5764,-3.5794,0.4398,-0.6828,0.3896,
22.282725,-1.4560,2.5764,-3.5794,0.4398,-0.6828,0.3896,
22.283460,-0.6750,-1.2290,-2.1803,0.4398,-0.6828,0.3896,
22.293782,-0.6750,-1.2290,-2.1803,0.7016,0.1461,0.9704,
22.347566,-0.6750,-1.2290,-2.1803,0.7016,0.1461,0.9704,
22.348631,1.6906,-0.2924,0.8853,0.7016,0.1461,0.9704,
22.358694,1.6906,-0.2924,0.8853,0.6981,-1.2773,0.4036,
22.413504,1.6906,-0.2924,0.8853,0.6981,-1.2773,0.4036,
22.414680,0.2143,-0.7383,-0.3715,0.6981,-1.2773,0.4036,
22.424785,0.2143,-0.7383,-0.3715,0.6707,0.1625,-0.1202,
22.479061,0.2143,-0.7383,-0.3715,0.6707,0.1625,-0.1202,
22.479679,0.2999,0.1637,2.2727,0.6707,0.1625,-0.1202,
22.490615,0.2999,0.1637,2.2727,-1.2307,-1.8439,-0.6626,
22.543855,0.2999,0.1637,2.2727,-1.2307,-1.8439,-0.6626,
22.545053,2.4065,-3.3224,0.0634,-1.2307,-1.8439,-0.6626,
22.555885,2.4065,-3.3224,0.0634,-0.6535,0.3978,0.2692,
22.610252,2.4065,-3.3224,0.0634,-0.6535,0.3978,0.2692,
22.612661,1.6055,-5.0868,-0.3562,-0.6535,0.3978,0.2692,
22.620777,1.6055,-5.0868,-0.3562,-0.2028,1.2937,-0.1260,
22.675866,1.6055,-5.0868,-0.3562,-0.2028,1.2937,-0.1260,
22.677788,1.9825,9.5927,-0.5226,-0.2028,1.2937,-0.1260,
22.686458,1.9825,9.5927,-0.5226,-0.1732,0.6839,1.2298,
22.741193,1.9825,9.5927,-0.5226,-0.1732,0.6839,1.2298,
22.742746,-1.5758,4.3208,-0.0945,-0.1732,0.6839,1.2298,
22.752287,-1.5758,4.3208,-0.0945,-1.9233,-0.6435,-0.6258,
22.807450,-1.5758,4.3208,-0.0945,-1.9233,-0.6435,-0.6258,
22.809536,-0.9504,1.7101,2.3336,-1.9233,-0.6435,-0.6258,
22.818114,-0.9504,1.7101,2.3336,0.1897,-0.3537,0.7614,
22.870491,-0.9504,1.7101,2.3336,0.1897,-0.3537,0.7614,
22.871958,-0.5951,-1.5044,-0.7630,0.1897,-0.3537,0.7614,
22.882372,-0.5951,-1.5044,-0.7630,-0.5606,0.9230,1.1387,
22.936658,-0.5951,-1.5044,-0.7630,-0.5606,0.9230,1.1387,
22.937815,0.0085,-2.3336,-0.5487,-0.5606,0.9230,1.1387,
22.948773,0.0085,-2.3336,-0.5487,-0.1037,1.2500,1.1558,
23.002931,0.0085,-2.3336,-0.5487,-0.1037,1.2500,1.1558,
23.003440,-0.2269,-2.0024,-1.6942,-0.1037,1.2500,1.1558,
23.014264,-0.2269,-2.0024,-1.6942,0.1147,1.8506,0.3386,
23.067614,-0.2269,-2.0024,-1.6942,0.1147,1.8506,0.3386,
23.069282,-1.7511,-1.8498,0.6227,0.1147,1.8506,0.3386,
23.080193,-1.7511,-1.8498,0.6227,0.0200,0.6608,0.3682,
23.133574,-1.7511,-1.8498,0.6227,0.0200,0.6608,0.3682,
23.134104,1.0472,-1.4950,1.7794,0.0200,0.6608,0.3682,
23.144292,1.0472,-1.4950,1.7794,1.0055,0.6539,0.0539,
23.197931,1.0472,-1.4950,1.7794,1.0055,0.6539,0.0539,
23.199314,2.3058,0.9565,-0.0669,1.0055,0.6539,0.0539,
23.210246,2.3058,0.9565,-0.0669,0.0985,0.7654,0.2405,
23.263834,2.3058,0.9565,-0.0669,0.0985,0.7654,0.2405,
23.265236,-0.5539,-1.4140,-0.6909,0.0985,0.7654,0.2405,
23.277052,-0.5539,-1.4140,-0.6909,1.2935,1.8747,-1.7620,
23.330289,-0.5539,-1.4140,-0.6909,1.2935,1.8747,-1.7620,
23.331428,0.4620,2.1891,-2.4680,1.2935,1.8747,-1.7620,
23.341183,0.4620,2.1891,-2.4680,1.6483,1.4920,-0.3450,
23.394756,0.4620,2.1891,-2.4680,1.6483,1.4920,-0.3450,
23.396253,-1.0093,-2.0303,-0.6937,1.6483,1.4920,-0.3450,
23.407168,-1.0093,-2.0303,-0.6937,0.7676,-0.3842,0.2272,
23.460710,-1.0093,-2.0303,-0.6937,0.7676,-0.3842,0.2272,
23.462518,-0.2776,0.3578,0.4273,0.7676,-0.3842,0.2272,
23.472605,-0.2776,0.3578,0.4273,1.1596,-0.1014,0.8486,
23.526420,-0.2776,0.3578,0.4273,1.1596,-0.1014,0.8486,
23.528626,2.8349,-2.0809,-0.2680,1.1596,-0.1014,0.8486,
23.538443,2.8349,-2.0809,-0.2680,0.7798,1.4699,-0.2462,
23.592126,2.8349,-2.0809,-0.2680,0.7798,1.4699,-0.2462,
23.593880,0.1362,-0.4237,1.3111,0.7798,1.4699,-0.2462,
23.603142,0.1362,-0.4237,1.3111,0.8774,0.3216,-0.3682,
23.657074,0.1362,-0.4237,1.3111,0.8774,0.3216,-0.3682,
23.658732,0.0767,-2.6170,-0.2184,0.8774,0.3216,-0.3682,
23.667845,0.0767,-2.6170,-0.2184,0.9526,-0.3290,-0.2210,
23.723109,0.0767,-2.6170,-0.2184,0.9526,-0.3290,-0.2210,
23.724761,1.3422,-0.5332,6.5507,0.9526,-0.3290,-0.2210,
23.734989,1.3422,-0.5332,6.5507,-0.4452,-3.6400,-0.6993,
23.787469,1.3422,-0.5332,6.5507,-0.4452,-3.6400,-0.6993,
23.788890,2.4522,2.2493,-4.8130,-0.4452,-3.6400,-0.6993,
23.799676,2.4522,2.2493,-4.8130,-0.4427,2.5835,-0.0666,
23.853682,2.4522,2.2493,-4.8130,-0.4427,2.5835,-0.0666,
23.855244,1.6518,4.8831,-0.1527,-0.4427,2.5835,-0.0666,
23.865360,1.6518,4.8831,-0.1527,0.9629,1.9467,0.0315,
23.919057,1.6518,4.8831,-0.1527,0.9629,1.9467,0.0315,
23.920691,-2.1312,0.4327,-1.8665,0.9629,1.9467,0.0315,
23.931955,-2.1312,0.4327,-1.8665,-1.5797,-0.2071,-1.1802,
23.984182,-2.1312,0.4327,-1.8665,-1.5797,-0.2071,-1.1802,
23.985679,-3.6981,0.1346,-2.9629,-1.5797,-0.2071,-1.1802,
23.996453,-3.6981,0.1346,-2.9629,-1.4529,0.4670,-0.6095,
24.050990,-3.6981,0.1346,-2.9629,-1.4529,0.4670,-0.6095,
24.052608,-0.2574,-1.7216,0.1037,-1.4529,0.4670,-0.6095,
24.062312,-0.2574,-1.7216,0.1037,-1.9175,-0.0704,0.2515,
24.117387,-0.2574,-1.7216,0.1037,-1.9175,-0.0704,0.2515,
24.119315,0.6370,-0.1940,-0.0792,-1.9175,-0.0704,0.2515,
24.127436,0.6370,-0.1940,-0.0792,-0.8479,-0.7304,0.0673,
24.181591,0.6370,-0.1940,-0.0792,-0.8479,-0.7304,0.0673,
24.182932,0.1025,0.5547,-1.3783,-0.8479,-0.7304,0.0673,
24.193361,0.1025,0.5547,-1.3783,-0.7518,0.8396,0.6130,
24.247872,0.1025,0.5547,-1.3783,-0.7518,0.8396,0.6130,
24.248864,-0.4652,-1.3247,-1.5031,-0.7518,0.8396,0.6130,
24.258060,-0.4652,-1.3247,-1.5031,-1.1553,0.5405,0.6313,
24.313098,-0.4652,-1.3247,-1.5031,-1.1553,0.5405,0.6313,
24.314754,-0.4182,-2.6823,0.3437,-1.1553,0.5405,0.6313,
24.323457,-0.4182,-2.6823,0.3437,-0.8923,0.6205,0.5157,
24.379604,-0.4182,-2.6823,0.3437,-0.8923,0.6205,0.5157,
24.381783,1.2452,-2.3177,2.5216,-0.8923,0.6205,0.5157,
24.390391,1.2452,-2.3177,2.5216,-0.0829,0.1833,0.7004,
24.443347,1.2452,-2.3177,2.5216,-0.0829,0.1833,0.7004,
24.445412,2.7150,0.1647,2.3408,-0.0829,0.1833,0.7004,
24.455396,2.7150,0.1647,2.3408,1.2507,0.4414,1.2272,
24.510141,2.7150,0.1647,2.3408,1.2507,0.4414,1.2272,
24.513617,-0.1188,2.1861,-2.3884,1.2507,0.4414,1.2272,
24.522402,-0.1188,2.1861,-2.3884,1.0304,0.3525,-0.6153,
24.574636,-0.1188,2.1861,-2.3884,1.0304,0.3525,-0.6153,
24.575889,-3.0676,2.8263,-1.9059,1.0304,0.3525,-0.6153,
24.586170,-3.0676,2.8263,-1.9059,0.4581,0.0115,-0.4658,
24.640928,-3.0676,2.8263,-1.9059,0.4581,0.0115,-0.4658,
24.642829,-1.4903,-1.2935,-1.7214,0.4581,0.0115,-0.4658,
24.651771,-1.4903,-1.2935,-1.7214,1.1431,-0.7196,1.0050,
24.705464,-1.4903,-1.2935,-1.7214,1.1431,-0.7196,1.0050,
24.707586,2.0377,-1.0196,-0.4104,1.1431,-0.7196,1.0050,
24.721015,2.0377,-1.0196,-0.4104,0.8932,-0.9444,0.4574,
24.771307,2.0377,-1.0196,-0.4104,0.8932,-0.9444,0.4574,
24.773266,1.8377,-0.7541,0.5791,0.8932,-0.9444,0.4574,
24.783224,1.8377,-0.7541,0.5791,0.9329,0.3691,-0.6851,
24.836943,1.8377,-0.7541,0.5791,0.9329,0.3691,-0.6851,
24.838804,0.6842,-1.1526,2.2677,0.9329,0.3691,-0.6851,
24.847847,0.6842,-1.1526,2.2677,0.9817,0.5878,-0.7378,
24.900833,0.6842,-1.1526,2.2677,0.9817,0.5878,-0.7378,
24.902255,1.5915,-2.3213,2.7645,0.9817,0.5878,-0.7378,
24.912233,1.5915,-2.3213,2.7645,-1.2197,-0.7529,-0.4134,
24.967254,1.5915,-2.3213,2.7645,-1.2197,-0.7529,-0.4134,
24.968842,3.1005,1.2653,-2.8593,-1.2197,-0.7529,-0.4134,
24.978748,3.1005,1.2653,-2.8593,-2.2982,1.7694,0.9945,
25.031960,3.1005,1.2653,-2.8593,-2.2982,1.7694,0.9945,
25.033287,0.6052,6.4747,2.6345,-2.2982,1.7694,0.9945,
25.043034,0.6052,6.4747,2.6345,-1.2350,0.9490,-0.2204,
25.096778,0.6052,6.4747,2.6345,-1.2350,0.9490,-0.2204,
25.097515,-2.3706,2.1554,-2.9206,-1.2350,0.9490,-0.2204,
25.109573,-2.3706,2.1554,-2.9206,-0.6649,0.1810,-0.1666,
25.164436,-2.3706,2.1554,-2.9206,-0.6649,0.1810,-0.1666,
25.165196,-0.6792,-1.0781,-3.5790,-0.6649,0.1810,-0.1666,
25.176054,-0.6792,-1.0781,-3.5790,-0.9972,2.0918,0.8584,
25.228901,-0.6792,-1.0781,-3.5790,-0.9972,2.0918,0.8584,
25.229805,-3.9537,-2.4558,-1.1503,-0.9972,2.0918,0.8584,
25.240560,-3.9537,-2.4558,-1.1503,-1.0058,0.8847,-0.4039,
25.294086,-3.9537,-2.4558,-1.1503,-1.0058,0.8847,-0.4039,
25.295708,-1.6049,-2.8421,2.1515,-1.0058,0.8847,-0.4039,
25.306838,-1.6049,-2.8421,2.1515,-0.2630,-0.9643,0.5037,
25.364726,-1.6049,-2.8421,2.1515,-0.2630,-0.9643,0.5037,
25.366771,1.7836,-1.8215,0.2297,-0.2630,-0.9643,0.5037,
25.372246,1.7836,-1.8215,0.2297,0.4330,-0.2256,1.2523,
25.425076,1.7836,-1.8215,0.2297,0.4330,-0.2256,1.2523,
25.426626,1.5915,-2.1438,1.5278,0.4330,-0.2256,1.2523,
25.436214,1.5915,-2.1438,1.5278,0.9113,0.6289,0.2103,
25.491724,1.5915,-2.1438,1.5278,0.9113,0.6289,0.2103,
25.493458,0.4228,3.5158,1.4982,0.9113,0.6289,0.2103,
25.502634,0.4228,3.5158,1.4982,1.2718,0.5592,0.4626,
25.555476,0.4228,3.5158,1.4982,1.2718,0.5592,0.4626,
25.556921,-2.4250,0.0452,-2.7017,1.2718,0.5592,0.4626,
25.568336,-2.4250,0.0452,-2.7017,0.8935,1.3993,-0.9452,
25.620811,-2.4250,0.0452,-2.7017,0.8935,1.3993,-0.9452,
25.622912,-2.1455,3.4755,-0.6611,0.8935,1.3993,-0.9452,
25.633365,-2.1455,3.4755,-0.6611,0.7366,-0.9818,0.0791,
25.688352,-2.1455,3.4755,-0.6611,0.7366,-0.9818,0.0791,
25.690032,-1.1235,-0.8259,-1.5811,0.7366,-0.9818,0.0791,
25.699396,-1.1235,-0.8259,-1.5811,0.8583,-1.4981,0.7772,
25.752043,-1.1235,-0.8259,-1.5811,0.8583,-1.4981,0.7772,
25.753875,1.3782,-0.8534,-0.2577,0.8583,-1.4981,0.7772,
25.765030,1.3782,-0.8534,-0.2577,0.4256,-0.7825,1.2714,
25.818042,1.3782,-0.8534,-0.2577,0.4256,-0.7825,1.2714,
25.819094,2.4438,-0.1668,0.6370,0.4256,-0.7825,1.2714,
25.829697,2.4438,-0.1668,0.6370,1.0789,0.5284,-0.2851,
25.883486,2.4438,-0.1668,0.6370,1.0789,0.5284,-0.2851,
25.885547,-0.0669,-1.0680,0.4523,1.0789,0.5284,-0.2851,
25.895858,-0.0669,-1.0680,0.4523,1.2196,0.7188,-0.4351,
25.950141,-0.0669,-1.0680,0.4523,1.2196,0.7188,-0.4351,
25.952215,2.0101,-2.0604,2.2778,1.2196,0.7188,-0.4351,
25.961131,2.0101,-2.0604,2.2778,0.5559,-1.2544,-0.7338,
26.017322,2.0101,-2.0604,2.2778,0.5559,-1.2544,-0.7338,
26.019547,2.5657,-4.7423,1.7493,0.5559,-1.2544,-0.7338,
26.026049,2.5657,-4.7423,1.7493,0.0531,-0.2303,-0.6130,
26.080936,2.5657,-4.7423,1.7493,0.0531,-0.2303,-0.6130,
26.082627,1.0569,-1.7405,0.8478,0.0531,-0.2303,-0.6130,
26.092613,1.0569,-1.7405,0.8478,-0.8551,2.2732,-0.2886,
26.146796,1.0569,-1.7405,0.8478,-0.8551,2.2732,-0.2886,
26.148744,2.1178,10.9054,-0.2389,-0.8551,2.2732,-0.2886,
26.156336,2.1178,10.9054,-0.2389,-1.5872,1.7326,1.2555,
26.212146,2.1178,10.9054,-0.2389,-1.5872,1.7326,1.2555,
26.213967,-1.8646,3.1707,-0.5294,-1.5872,1.7326,1.2555,
26.223279,-1.8646,3.1707,-0.5294,-1.4001,0.3144,-1.1023,
26.277866,-1.8646,3.1707,-0.5294,-1.4001,0.3144,-1.1023,
26.279584,-1.9617,0.5329,-1.2282,-1.4001,0.3144,-1.1023,
26.287964,-1.9617,0.5329,-1.2282,-0.1489,-0.0423,0.1906,
26.344288,-1.9617,0.5329,-1.2282,-0.1489,-0.0423,0.1906,
26.347595,-1.7754,-1.9478,-3.9000,-0.1489,-0.0423,0.1906,
26.354460,-1.7754,-1.9478,-3.9000,-0.5551,1.0376,-0.2863,
26.408011,-1.7754,-1.9478,-3.9000,-0.5551,1.0376,-0.2863,
26.409405,-2.6583,-0.4527,-3.5621,-0.5551,1.0376,-0.2863,
26.419748,-2.6583,-0.4527,-3.5621,-1.5055,0.8584,-0.3574,
26.472305,-2.6583,-0.4527,-3.5621,-1.5055,0.8584,-0.3574,
26.473672,0.4286,-2.7181,2.3380,-1.5055,0.8584,-0.3574,
26.484146,0.4286,-2.7181,2.3380,-0.2442,0.1597,0.2011,
26.538262,0.4286,-2.7181,2.3380,-0.2442,0.1597,0.2011,
26.539337,1.9837,-1.5295,1.7642,-0.2442,0.1597,0.2011,
26.550039,1.9837,-1.5295,1.7642,0.8783,-0.1358,0.0857,
26.605314,1.9837,-1.5295,1.7642,0.8783,-0.1358,0.0857,
26.606471,-2.8313,0.7910,-1.2539,0.8783,-0.1358,0.0857,
26.614922,-2.8313,0.7910,-1.2539,1.1521,-0.7094,0.1249,
26.669217,-2.8313,0.7910,-1.2539,1.1521,-0.7094,0.1249,
26.670521,0.2481,3.1265,0.4982,1.1521,-0.7094,0.1249,
26.681068,0.2481,3.1265,0.4982,0.6796,0.4545,0.6874,
26.735990,0.2481,3.1265,0.4982,0.6796,0.4545,0.6874,
26.737948,-2.3210,-0.1103,0.2345,0.6796,0.4545,0.6874,
26.745952,-2.3210,-0.1103,0.2345,1.1049,-0.5808,-0.2263,
26.799945,-2.3210,-0.1103,0.2345,1.1049,-0.5808,-0.2263,
26.802725,-1.3059,0.2954,-0.7678,1.1049,-0.5808,-0.2263,
26.811710,-1.3059,0.2954,-0.7678,0.7535,-2.1391,0.6646,
26.866777,-1.3059,0.2954,-0.7678,0.7535,-2.1391,0.6646,
26.868917,0.3643,-1.9868,-1.1206,0.7535,-2.1391,0.6646,
26.878297,0.3643,-1.9868,-1.1206,0.1219,-2.1941,0.8529,
26.932166,0.3643,-1.9868,-1.1206,0.1219,-2.1941,0.8529,
26.933816,2.7643,-1.3597,0.7799,0.1219,-2.1941,0.8529,
26.942863,2.7643,-1.3597,0.7799,-0.2118,-1.6208,0.4979,
26.998007,2.7643,-1.3597,0.7799,-0.2118,-1.6208,0.4979,
26.999555,3.1465,-1.0638,0.0889,-0.2118,-1.6208,0.4979,
27.009277,3.1465,-1.0638,0.0889,0.8103,0.1862,-0.0886,
27.062744,3.1465,-1.0638,0.0889,0.8103,0.1862,-0.0886,
27.064964,1.0515,-0.2600,0.7788,0.8103,0.1862,-0.0886,
27.073812,1.0515,-0.2600,0.7788,1.3467,1.0928,-0.3590,
27.128455,1.0515,-0.2600,0.7788,1.3467,1.0928,-0.3590,
27.130275,-0.5290,-0.9175,0.8858,1.3467,1.0928,-0.3590,
27.139448,-0.5290,-0.9175,0.8858,1.0566,0.1839,-0.6721,
27.194508,-0.5290,-0.9175,0.8858,1.0566,0.1839,-0.6721,
27.196486,1.2850,-1.8560,1.9554,1.0566,0.1839,-0.6721,
27.205174,1.2850,-1.8560,1.9554,0.4862,-1.3335,-0.7020,
27.258943,1.2850,-1.8560,1.9554,0.4862,-1.3335,-0.7020,
27.260049,2.8108,-3.9471,2.7706,0.4862,-1.3335,-0.7020,
27.269464,2.8108,-3.9471,2.7706,-0.0965,-1.3647,-0.8894,
27.324139,2.8108,-3.9471,2.7706,-0.0965,-1.3647,-0.8894,
27.325323,2.3820,5.1222,-4.2613,-0.0965,-1.3647,-0.8894,
27.335646,2.3820,5.1222,-4.2613,-0.1284,4.6241,1.1422,
27.390055,2.3820,5.1222,-4.2613,-0.1284,4.6241,1.1422,
27.391144,3.2728,7.0765,-1.0314,-0.1284,4.6241,1.1422,
27.400341,3.2728,7.0765,-1.0314,-0.3615,-0.0367,-0.4220,
27.456141,3.2728,7.0765,-1.0314,-0.3615,-0.0367,-0.4220,
27.458109,-4.0385,-0.3067,-1.2970,-0.3615,-0.0367,-0.4220,
27.468292,-4.0385,-0.3067,-1.2970,-2.3586,0.8114,-2.0269,
27.521737,-4.0385,-0.3067,-1.2970,-2.3586,0.8114,-2.0269,
27.523429,-3.5327,-1.2620,-0.0858,-2.3586,0.8114,-2.0269,
27.532616,-3.5327,-1.2620,-0.0858,-1.2097,-0.0823,0.2669,
27.586618,-3.5327,-1.2620,-0.0858,-1.2097,-0.0823,0.2669,
27.588135,-2.3553,-1.4080,-3.1030,-1.2097,-0.0823,0.2669,
27.597277,-2.3553,-1.4080,-3.1030,-1.6177,-0.4472,-0.1494,
27.652025,-2.3553,-1.4080,-3.1030,-1.6177,-0.4472,-0.1494,
27.653056,-0.2813,1.0485,-1.1194,-1.6177,-0.4472,-0.1494,
27.662563,-0.2813,1.0485,-1.1194,-1.4872,-0.0783,0.9639,
27.718140,-0.2813,1.0485,-1.1194,-1.4872,-0.0783,0.9639,
27.719874,1.6778,-2.5662,0.3051,-1.4872,-0.0783,0.9639,
27.729379,1.6778,-2.5662,0.3051,-0.7683,0.7485,1.0278,
27.783664,1.6778,-2.5662,0.3051,-0.7683,0.7485,1.0278,
27.785422,0.3151,-4.6127,3.8031,-0.7683,0.7485,1.0278,
27.794726,0.3151,-4.6127,3.8031,1.0585,0.1290,-0.0664,
27.848270,0.3151,-4.6127,3.8031,1.0585,0.1290,-0.0664,
27.850348,-1.3044,0.5819,0.0544,1.0585,0.1290,-0.0664,
27.859154,-1.3044,0.5819,0.0544,2.8630,-1.2077,0.1031,
27.914328,-1.3044,0.5819,0.0544,2.8630,-1.2077,0.1031,
27.916059,-0.9601,3.5994,-2.2150,2.8630,-1.2077,0.1031,
27.925990,-0.9601,3.5994,-2.2150,0.5452,-0.4215,0.4850,
27.980151,-0.9601,3.5994,-2.2150,0.5452,-0.4215,0.4850,
27.982142,-1.1305,-2.4101,-2.3704,0.5452,-0.4215,0.4850,
27.990514,-1.1305,-2.4101,-2.3704,0.7538,-0.1816,0.4000,
28.045726,-1.1305,-2.4101,-2.3704,0.7538,-0.1816,0.4000,
28.047309,0.3136,-0.0305,-0.6349,0.7538,-0.1816,0.4000,
28.056906,0.3136,-0.0305,-0.6349,0.2311,-0.0063,-0.0174,
28.110091,0.3136,-0.0305,-0.6349,0.2311,-0.0063,-0.0174,
28.112228,0.6148,-0.6685,0.1619,0.2311,-0.0063,-0.0174,
28.120756,0.6148,-0.6685,0.1619,0.5707,-1.1307,-0.0811,
28.174811,0.6148,-0.6685,0.1619,0.5707,-1.1307,-0.0811,
28.177445,1.9458,-1.1533,0.6872,0.5707,-1.1307,-0.0811,
28.186754,1.9458,-1.1533,0.6872,0.5026,-0.6263,0.0732,
28.241129,1.9458,-1.1533,0.6872,0.5026,-0.6263,0.0732,
28.242590,1.9545,-2.4029,0.5408,0.5026,-0.6263,0.0732,
28.253035,1.9545,-2.4029,0.5408,0.7950,0.1868,-0.5547,
28.305761,1.9545,-2.4029,0.5408,0.7950,0.1868,-0.5547,
28.307900,1.6801,-2.2253,1.1452,0.7950,0.1868,-0.5547,
28.317846,1.6801,-2.2253,1.1452,0.5376,-0.0811,-0.5883,
28.371590,1.6801,-2.2253,1.1452,0.5376,-0.0811,-0.5883,
28.372839,1.5335,-0.9729,2.5326,0.5376,-0.0811,-0.5883,
28.386036,1.5335,-0.9729,2.5326,0.5818,0.5815,-0.6445,
28.438312,1.5335,-0.9729,2.5326,0.5818,0.5815,-0.6445,
28.440693,3.0602,6.8432,-1.8956,0.5818,0.5815,-0.6445,
28.452911,3.0602,6.8432,-1.8956,0.9155,2.1466,0.7677,
28.502054,3.0602,6.8432,-1.8956,0.9155,2.1466,0.7677,
28.503641,-1.1402,4.7200,-3.5198,0.9155,2.1466,0.7677,
28.514857,-1.1402,4.7200,-3.5198,-1.0771,0.1135,-1.3625,
28.567326,-1.1402,4.7200,-3.5198,-1.0771,0.1135,-1.3625,
28.568637,-6.0689,2.9492,-2.8069,-1.0771,0.1135,-1.3625,
28.580738,-6.0689,2.9492,-2.8069,-1.6991,0.2679,-0.4800,
28.634006,-6.0689,2.9492,-2.8069,-1.6991,0.2679,-0.4800,
28.635607,-2.5905,-2.6278,-1.2003,-1.6991,0.2679,-0.4800,
28.646098,-2.5905,-2.6278,-1.2003,-2.3443,0.1083,0.2001,
28.699092,-2.5905,-2.6278,-1.2003,-2.3443,0.1083,0.2001,
28.701263,0.0158,-3.2495,0.6908,-2.3443,0.1083,0.2001,
28.712015,0.0158,-3.2495,0.6908,-1.6959,-1.5078,-0.7752,
28.765792,0.0158,-3.2495,0.6908,-1.6959,-1.5078,-0.7752,
28.767355,-1.5747,0.4635,-2.5654,-1.6959,-1.5078,-0.7752,
28.777380,-1.5747,0.4635,-2.5654,-1.2185,-1.3436,-0.2662,
28.829949,-1.5747,0.4635,-2.5654,-1.2185,-1.3436,-0.2662,
28.832008,-0.4430,0.8631,-3.1314,-1.2185,-1.3436,-0.2662,
28.843749,-0.4430,0.8631,-3.1314,-1.5594,-0.9720,0.8662,
28.896254,-0.4430,0.8631,-3.1314,-1.5594,-0.9720,0.8662,
28.897991,2.0348,-2.8962,0.9887,-1.5594,-0.9720,0.8662,
28.907708,2.0348,-2.8962,0.9887,-1.2755,0.9786,0.4560,
28.961517,2.0348,-2.8962,0.9887,-1.2755,0.9786,0.4560,
28.963574,-1.1487,-1.7025,0.0404,-1.2755,0.9786,0.4560,
28.972178,-1.1487,-1.7025,0.0404,0.2517,0.3567,-0.3480,
29.025895,-1.1487,-1.7025,0.0404,0.2517,0.3567,-0.3480,
29.028060,-1.4247,0.0278,-2.0379,0.2517,0.3567,-0.3480,
29.038571,-1.4247,0.0278,-2.0379,0.5037,0.0327,0.0368,
29.091675,-1.4247,0.0278,-2.0379,0.5037,0.0327,0.0368,
29.092618,-0.7581,2.7257,0.6789,0.5037,0.0327,0.0368,
29.102831,-0.7581,2.7257,0.6789,-0.9264,0.1268,0.3870,
29.158380,-0.7581,2.7257,0.6789,-0.9264,0.1268,0.3870,
29.160250,-1.1832,-0.7702,-0.3631,-0.9264,0.1268,0.3870,
29.169606,-1.1832,-0.7702,-0.3631,-0.2422,-0.3512,-0.0994,
29.223082,-1.1832,-0.7702,-0.3631,-0.2422,-0.3512,-0.0994,
29.224891,-0.0830,0.4487,0.1883,-0.2422,-0.3512,-0.0994,
29.235044,-0.0830,0.4487,0.1883,-0.4423,-0.0043,0.1886,
29.287609,-0.0830,0.4487,0.1883,-0.4423,-0.0043,0.1886,
29.288117,0.1481,-0.7861,1.6135,-0.4423,-0.0043,0.1886,
29.300489,0.1481,-0.7861,1.6135,0.0052,0.1400,-0.1471,
29.354323,0.1481,-0.7861,1.6135,0.0052,0.1400,-0.1471,
29.355879,-0.6693,0.0349,1.5631,0.0052,0.1400,-0.1471,
29.367152,-0.6693,0.0349,1.5631,0.3720,-0.3277,-0.1239,
29.419981,-0.6693,0.0349,1.5631,0.3720,-0.3277,-0.1239,
29.422088,0.2895,0.3520,1.4934,0.3720,-0.3277,-0.1239,
29.432171,0.2895,0.3520,1.4934,0.9584,-0.7194,-0.0910,
29.486768,0.2895,0.3520,1.4934,0.9584,-0.7194,-0.0910,
29.489108,-0.0922,0.1400,0.7794,0.9584,-0.7194,-0.0910,
29.495337,-0.0922,0.1400,0.7794,1.2222,-1.1988,-0.2405,
29.550411,-0.0922,0.1400,0.7794,1.2222,-1.1988,-0.2405,
29.552591,-0.0575,0.0605,-0.5447,1.2222,-1.1988,-0.2405,
29.562881,-0.0575,0.0605,-0.5447,1.1296,-0.9988,0.1881,
29.616268,-0.0575,0.0605,-0.5447,1.1296,-0.9988,0.1881,
29.618607,0.7164,-0.3069,-1.1666,1.1296,-0.9988,0.1881,
29.628868,0.7164,-0.3069,-1.1666,0.9082,-0.6179,0.4664,
29.682195,0.7164,-0.3069,-1.1666,0.9082,-0.6179,0.4664,
29.683796,1.4531,-1.0083,0.4084,0.9082,-0.6179,0.4664,
29.693130,1.4531,-1.0083,0.4084,0.5342,-0.3992,0.0574,
29.747287,1.4531,-1.0083,0.4084,0.5342,-0.3992,0.0574,
29.748915,1.1412,-0.6453,-0.4794,0.5342,-0.3992,0.0574,
29.758648,1.1412,-0.6453,-0.4794,1.3025,1.6037,-0.1223,
29.813128,1.1412,-0.6453,-0.4794,1.3025,1.6037,-0.1223,
29.814685,-0.0814,-1.2096,1.0021,1.3025,1.6037,-0.1223,
29.824369,-0.0814,-1.2096,1.0021,1.4384,1.4357,-0.2825,
29.878410,-0.0814,-1.2096,1.0021,1.4384,1.4357,-0.2825,
29.879946,-0.5156,-0.8674,1.7254,1.4384,1.4357,-0.2825,
29.888510,-0.5156,-0.8674,1.7254,0.6032,-0.1284,-0.5252,
29.944486,-0.5156,-0.8674,1.7254,0.6032,-0.1284,-0.5252,
29.946163,1.7253,-1.7698,3.6924,0.6032,-0.1284,-0.5252,
29.956795,1.7253,-1.7698,3.6924,-0.1054,-2.3721,-0.6709,
30.007609,1.7253,-1.7698,3.6924,-0.1054,-2.3721,-0.6709,
30.009126,1.2500,0.8686,-6.3099,-0.1054,-2.3721,-0.6709,
30.020347,1.2500,0.8686,-6.3099,-0.0174,3.5861,0.6958,
30.075394,1.2500,0.8686,-6.3099,-0.0174,3.5861,0.6958,
30.077587,-0.6029,5.0855,-0.1451,-0.0174,3.5861,0.6958,
30.085787,-0.6029,5.0855,-0.1451,-1.4836,-1.0599,-0.7263,
30.139272,-0.6029,5.0855,-0.1451,-1.4836,-1.0599,-0.7263,
30.141128,-3.4490,3.2004,-1.4041,-1.4836,-1.0599,-0.7263,
30.152329,-3.4490,3.2004,-1.4041,-2.6001,-2.0812,-0.5832,
30.205477,-3.4490,3.2004,-1.4041,-2.6001,-2.0812,-0.5832,
30.206395,-1.4433,-0.9317,0.1227,-2.6001,-2.0812,-0.5832,
30.215473,-1.4433,-0.9317,0.1227,-0.9453,0.1344,0.0863,
30.271894,-1.4433,-0.9317,0.1227,-0.9453,0.1344,0.0863,
30.272709,-0.5758,-2.4047,-1.5401,-0.9453,0.1344,0.0863,
30.282381,-0.5758,-2.4047,-1.5401,-0.8268,-0.8662,-0.4024,
30.336220,-0.5758,-2.4047,-1.5401,-0.8268,-0.8662,-0.4024,
30.338188,0.3405,-1.5457,1.2594,-0.8268,-0.8662,-0.4024,
30.349210,0.3405,-1.5457,1.2594,-0.4291,-0.4801,0.1093,
30.402419,0.3405,-1.5457,1.2594,-0.4291,-0.4801,0.1093,
30.404638,0.5438,-1.5211,-1.1200,-0.4291,-0.4801,0.1093,
30.412350,0.5438,-1.5211,-1.1200,0.5090,0.3661,-0.1982,
30.467283,0.5438,-1.5211,-1.1200,0.5090,0.3661,-0.1982,
30.469478,-1.5279,-1.3431,-0.4021,0.5090,0.3661,-0.1982,
30.479994,-1.5279,-1.3431,-0.4021,0.8922,0.6556,-0.0290,
30.533204,-1.5279,-1.3431,-0.4021,0.8922,0.6556,-0.0290,
30.534795,0.6806,3.1615,2.6237,0.8922,0.6556,-0.0290,
30.543617,0.6806,3.1615,2.6237,0.3905,-1.0976,0.4004,
30.599323,0.6806,3.1615,2.6237,0.3905,-1.0976,0.4004,
30.601051,-0.7664,-0.4616,-1.8254,0.3905,-1.0976,0.4004,
30.610080,-0.7664,-0.4616,-1.8254,0.6581,0.2964,-0.0909,
30.664011,-0.7664,-0.4616,-1.8254,0.6581,0.2964,-0.0909,
30.665695,1.3606,1.7024,0.5532,0.6581,0.2964,-0.0909,
30.675149,1.3606,1.7024,0.5532,1.1793,-0.7682,0.4756,
30.729459,1.3606,1.7024,0.5532,1.1793,-0.7682,0.4756,
30.731110,-0.4575,-1.4870,-0.8060,1.1793,-0.7682,0.4756,
30.741073,-0.4575,-1.4870,-0.8060,0.7688,0.7146,0.0089,
30.795302,-0.4575,-1.4870,-0.8060,0.7688,0.7146,0.0089,
30.797292,0.1080,-0.8861,0.6673,0.7688,0.7146,0.0089,
30.805612,0.1080,-0.8861,0.6673,0.6707,-0.2051,0.0301,
30.859992,0.1080,-0.8861,0.6673,0.6707,-0.2051,0.0301,
30.861912,0.9090,-0.9853,0.8049,0.6707,-0.2051,0.0301,
30.871582,0.9090,-0.9853,0.8049,0.2883,-0.3887,-0.0996,
30.924644,0.9090,-0.9853,0.8049,0.2883,-0.3887,-0.0996,
30.926312,0.4320,-1.6219,0.3455,0.2883,-0.3887,-0.0996,
30.937508,0.4320,-1.6219,0.3455,0.1845,-0.4647,-0.0852,
30.992620,0.4320,-1.6219,0.3455,0.1845,-0.4647,-0.0852,
30.994330,0.6593,-0.5818,1.4429,0.1845,-0.4647,-0.0852,
31.002858,0.6593,-0.5818,1.4429,-0.0177,-0.3813,-0.2753,
31.056026,0.6593,-0.5818,1.4429,-0.0177,-0.3813,-0.2753,
31.058124,1.8005,1.6472,1.2907,-0.0177,-0.3813,-0.2753,
31.067631,1.8005,1.6472,1.2907,0.1388,-0.3015,-0.1613,
31.122336,1.8005,1.6472,1.2907,0.1388,-0.3015,-0.1613,
31.124726,0.6909,1.9848,-0.7519,0.1388,-0.3015,-0.1613,
31.135394,0.6909,1.9848,-0.7519,0.1486,0.8693,-0.3033,
31.188584,0.6909,1.9848,-0.7519,0.1486,0.8693,-0.3033,
31.189935,-1.8324,1.7074,-1.1483,0.1486,0.8693,-0.3033,
31.199347,-1.8324,1.7074,-1.1483,-0.9658,0.0455,-0.5719,
31.252668,-1.8324,1.7074,-1.1483,-0.9658,0.0455,-0.5719,
31.253817,-1.8239,-0.1783,-0.9535,-0.9658,0.0455,-0.5719,
31.263331,-1.8239,-0.1783,-0.9535,-1.2877,-1.4875,-0.1003,
31.318213,-1.8239,-0.1783,-0.9535,-1.2877,-1.4875,-0.1003,
31.319934,-0.1061,-0.4053,-1.1527,-1.2877,-1.4875,-0.1003,
31.329503,-0.1061,-0.4053,-1.1527,-0.7833,-0.1286,0.2202,
31.384659,-0.1061,-0.4053,-1.1527,-0.7833,-0.1286,0.2202,
31.385260,-0.5681,-0.4765,-0.7058,-0.7833,-0.1286,0.2202,
31.396754,-0.5681,-0.4765,-0.7058,-0.5721,0.1901,0.2309,
31.448696,-0.5681,-0.4765,-0.7058,-0.5721,0.1901,0.2309,
31.450230,0.1868,-1.7219,0.3565,-0.5721,0.1901,0.2309,
31.460979,0.1868,-1.7219,0.3565,-1.1104,0.2083,0.3283,
31.514417,0.1868,-1.7219,0.3565,-1.1104,0.2083,0.3283,
31.514938,0.0487,-2.8116,1.5453,-1.1104,0.2083,0.3283,
31.525966,0.0487,-2.8116,1.5453,0.2036,-0.2495,0.1188,
31.581584,0.0487,-2.8116,1.5453,0.2036,-0.2495,0.1188,
31.582228,0.3569,-0.4198,-0.7118,0.2036,-0.2495,0.1188,
31.592593,0.3569,-0.4198,-0.7118,0.5169,-0.7046,0.1437,
31.645567,0.3569,-0.4198,-0.7118,0.5169,-0.7046,0.1437,
31.646889,-0.5835,0.9923,0.4502,0.5169,-0.7046,0.1437,
31.658018,-0.5835,0.9923,0.4502,0.3245,-0.3115,0.0699,
31.712568,-0.5835,0.9923,0.4502,0.3245,-0.3115,0.0699,
31.713172,-0.6962,0.7914,-0.1934,0.3245,-0.3115,0.0699,
31.722921,-0.6962,0.7914,-0.1934,0.7494,-1.2292,0.2509,
31.777331,-0.6962,0.7914,-0.1934,0.7494,-1.2292,0.2509,
31.779828,0.3776,-0.1893,-0.5998,0.7494,-1.2292,0.2509,
31.788907,0.3776,-0.1893,-0.5998,0.7941,-0.6271,0.2575,
31.842608,0.3776,-0.1893,-0.5998,0.7941,-0.6271,0.2575,
31.844301,0.7281,-0.2940,-0.8122,0.7941,-0.6271,0.2575,
31.853688,0.7281,-0.2940,-0.8122,0.7312,0.9412,-0.1497,
31.908527,0.7281,-0.2940,-0.8122,0.7312,0.9412,-0.1497,
31.910343,-1.3855,-0.3357,-0.3977,0.7312,0.9412,-0.1497,
31.919858,-1.3855,-0.3357,-0.3977,0.7272,0.7530,0.0681,
31.975564,-1.3855,-0.3357,-0.3977,0.7272,0.7530,0.0681,
31.976728,-0.3361,0.3495,0.1872,0.7272,0.7530,0.0681,
31.985092,-0.3361,0.3495,0.1872,-0.0434,-0.4840,-0.0229,
32.039323,-0.3361,0.3495,0.1872,-0.0434,-0.4840,-0.0229,
32.041356,1.6984,-0.9116,0.8976,-0.0434,-0.4840,-0.0229,
32.051029,1.6984,-0.9116,0.8976,0.4875,0.0806,-0.1658,
32.105074,1.6984,-0.9116,0.8976,0.4875,0.0806,-0.1658,
32.107041,0.5958,-0.7856,1.2111,0.4875,0.0806,-0.1658,
32.118110,0.5958,-0.7856,1.2111,0.8425,0.3231,-0.4982,
32.170096,0.5958,-0.7856,1.2111,0.8425,0.3231,-0.4982,
32.171216,1.5284,-1.4491,2.1331,0.8425,0.3231,-0.4982,
32.181124,1.5284,-1.4491,2.1331,0.4951,-0.4924,-0.7269,
32.235759,1.5284,-1.4491,2.1331,0.4951,-0.4924,-0.7269,
32.236955,3.2301,1.5644,-1.2322,0.4951,-0.4924,-0.7269,
32.247810,3.2301,1.5644,-1.2322,0.8034,1.6304,-0.4142,
32.301705,3.2301,1.5644,-1.2322,0.8034,1.6304,-0.4142,
32.302515,0.6460,3.2714,1.1017,0.8034,1.6304,-0.4142,
32.312784,0.6460,3.2714,1.1017,0.3961,0.7808,-0.5350,
32.365333,0.6460,3.2714,1.1017,0.3961,0.7808,-0.5350,
32.366067,-4.0004,3.1326,-2.3048,0.3961,0.7808,-0.5350,
32.376295,-4.0004,3.1326,-2.3048,-2.4230,-1.2857,-0.7182,
32.431631,-4.0004,3.1326,-2.3048,-2.4230,-1.2857,-0.7182,
32.432476,-2.3215,-0.3181,-0.7647,-2.4230,-1.2857,-0.7182,
32.443062,-2.3215,-0.3181,-0.7647,-2.2555,-2.0365,0.3451,
32.496845,-2.3215,-0.3181,-0.7647,-2.2555,-2.0365,0.3451,
32.497416,-0.6549,-2.5259,-1.2245,-2.2555,-2.0365,0.3451,
32.508320,-0.6549,-2.5259,-1.2245,-0.9992,-0.5446,0.1536,
32.562358,-0.6549,-2.5259,-1.2245,-0.9992,-0.5446,0.1536,
32.563914,-0.1426,-1.1627,-0.9101,-0.9992,-0.5446,0.1536,
32.573851,-0.1426,-1.1627,-0.9101,-0.8425,1.0273,0.3615,
32.626710,-0.1426,-1.1627,-0.9101,-0.8425,1.0273,0.3615,
32.627955,0.6556,-2.4403,-0.3244,-0.8425,1.0273,0.3615,
32.639702,0.6556,-2.4403,-0.3244,-0.3968,-0.0217,0.3787,
32.693395,0.6556,-2.4403,-0.3244,-0.3968,-0.0217,0.3787,
32.693959,0.0144,-0.9803,-0.7802,-0.3968,-0.0217,0.3787,
32.704825,0.0144,-0.9803,-0.7802,0.1704,0.6675,0.0093,
32.759714,0.0144,-0.9803,-0.7802,0.1704,0.6675,0.0093,
32.761777,-0.0393,1.2298,0.9494,0.1704,0.6675,0.0093,
32.770428,-0.0393,1.2298,0.9494,-0.1639,-0.0092,0.3380,
32.824691,-0.0393,1.2298,0.9494,-0.1639,-0.0092,0.3380,
32.825220,-1.2120,2.3395,0.7737,-0.1639,-0.0092,0.3380,
32.834981,-1.2120,2.3395,0.7737,1.2336,0.5289,-0.0334,
32.889542,-1.2120,2.3395,0.7737,1.2336,0.5289,-0.0334,
32.891272,-0.1098,1.0440,-1.8227,1.2336,0.5289,-0.0334,
32.900553,-0.1098,1.0440,-1.8227,1.5806,-0.2827,0.6691,
32.955221,-0.1098,1.0440,-1.8227,1.5806,-0.2827,0.6691,
32.955731,0.9586,-1.4133,1.1187,1.5806,-0.2827,0.6691,
32.967152,0.9586,-1.4133,1.1187,0.2179,-0.6242,0.5793,
33.020527,0.9586,-1.4133,1.1187,0.2179,-0.6242,0.5793,
33.021046,0.0976,-1.0235,1.0661,0.2179,-0.6242,0.5793,
33.031109,0.0976,-1.0235,1.0661,0.9160,0.2023,-0.1666,
33.086222,0.0976,-1.0235,1.0661,0.9160,0.2023,-0.1666,
33.086813,1.3367,-2.0440,3.0644,0.9160,0.2023,-0.1666,
33.098479,1.3367,-2.0440,3.0644,0.1674,-0.6009,-0.5270,
33.151477,1.3367,-2.0440,3.0644,0.1674,-0.6009,-0.5270,
33.153504,1.3388,-3.3061,1.0109,0.1674,-0.6009,-0.5270,
33.162957,1.3388,-3.3061,1.0109,-0.7643,-0.1022,-0.5999,
33.217389,1.3388,-3.3061,1.0109,-0.7643,-0.1022,-0.5999,
33.219066,2.5592,6.8167,1.1541,-0.7643,-0.1022,-0.5999,
33.228652,2.5592,6.8167,1.1541,-0.6726,2.0948,1.8618,
33.283105,2.5592,6.8167,1.1541,-0.6726,2.0948,1.8618,
33.285854,-0.9587,2.0212,-0.9365,-0.6726,2.0948,1.8618,
33.294278,-0.9587,2.0212,-0.9365,-0.8138,-1.2300,-0.3193,
33.349075,-0.9587,2.0212,-0.9365,-0.8138,-1.2300,-0.3193,
33.350016,-1.1080,2.5367,-2.4777,-0.8138,-1.2300,-0.3193,
33.360178,-1.1080,2.5367,-2.4777,-0.4336,1.4589,0.4186,
33.412467,-1.1080,2.5367,-2.4777,-0.4336,1.4589,0.4186,
33.413650,-1.9061,-0.9321,-1.8228,-0.4336,1.4589,0.4186,
33.425694,-1.9061,-0.9321,-1.8228,-1.1855,0.5718,-0.4769,
33.480932,-1.9061,-0.9321,-1.8228,-1.1855,0.5718,-0.4769,
33.482771,-2.3335,-0.5073,-0.5889,-1.1855,0.5718,-0.4769,
33.493457,-2.3335,-0.5073,-0.5889,-0.6707,0.5800,-0.2298,
33.545598,-2.3335,-0.5073,-0.5889,-0.6707,0.5800,-0.2298,
33.546252,-0.3535,-0.6582,-0.3434,-0.6707,0.5800,-0.2298,
33.557286,-0.3535,-0.6582,-0.3434,-0.1741,0.0883,0.1292,
33.611555,-0.3535,-0.6582,-0.3434,-0.1741,0.0883,0.1292,
33.612757,0.1346,-1.9308,0.4546,-0.1741,0.0883,0.1292,
33.621686,0.1346,-1.9308,0.4546,0.1298,0.4864,0.0502,
33.676702,0.1346,-1.9308,0.4546,0.1298,0.4864,0.0502,
33.677532,0.4171,0.4862,0.9581,0.1298,0.4864,0.0502,
33.687502,0.4171,0.4862,0.9581,-0.3216,0.1043,0.4259,
33.743767,0.4171,0.4862,0.9581,-0.3216,0.1043,0.4259,
33.744745,-0.1207,-2.0145,-1.0258,-0.3216,0.1043,0.4259,
33.754753,-0.1207,-2.0145,-1.0258,0.9865,0.3948,0.1597,
33.807318,-0.1207,-2.0145,-1.0258,0.9865,0.3948,0.1597,
33.808348,-0.4705,3.2058,-0.0368,0.9865,0.3948,0.1597,
33.819023,-0.4705,3.2058,-0.0368,0.5501,0.5075,0.3028,
33.872319,-0.4705,3.2058,-0.0368,0.5501,0.5075,0.3028,
33.873207,-1.3427,0.1715,0.5781,0.5501,0.5075,0.3028,
33.883531,-1.3427,0.1715,0.5781,0.8887,-0.9513,0.1611,
33.937451,-1.3427,0.1715,0.5781,0.8887,-0.9513,0.1611,
33.938499,0.0003,1.3634,-1.4957,0.8887,-0.9513,0.1611,
33.949051,0.0003,1.3634,-1.4957,0.9085,-0.3622,0.6555,
34.003192,0.0003,1.3634,-1.4957,0.9085,-0.3622,0.6555,
34.004515,1.0345,-2.1759,0.3766,0.9085,-0.3622,0.6555,
34.015325,1.0345,-2.1759,0.3766,0.7207,-0.3787,0.1064,
34.068889,1.0345,-2.1759,0.3766,0.7207,-0.3787,0.1064,
34.069650,1.0385,-0.3336,0.3843,0.7207,-0.3787,0.1064,
34.080328,1.0385,-0.3336,0.3843,0.8913,0.3771,0.0845,
34.135648,1.0385,-0.3336,0.3843,0.8913,0.3771,0.0845,
34.139022,-0.3705,-1.0505,-0.0080,0.8913,0.3771,0.0845,
34.145086,-0.3705,-1.0505,-0.0080,0.6321,0.7563,-0.2155,
34.198866,-0.3705,-1.0505,-0.0080,0.6321,0.7563,-0.2155,
34.199353,0.9351,-0.5624,0.1579,0.6321,0.7563,-0.2155,
34.211770,0.9351,-0.5624,0.1579,0.5530,-0.0790,-0.1932,
34.265248,0.9351,-0.5624,0.1579,0.5530,-0.0790,-0.1932,
34.265897,1.2670,-0.7338,0.2899,0.5530,-0.0790,-0.1932,
34.276594,1.2670,-0.7338,0.2899,0.5957,-0.2463,-0.2592,
34.330264,1.2670,-0.7338,0.2899,0.5957,-0.2463,-0.2592,
34.331016,0.4509,-0.2708,1.3698,0.5957,-0.2463,-0.2592,
34.341508,0.4509,-0.2708,1.3698,0.7427,0.0884,-0.4875,
34.395177,0.4509,-0.2708,1.3698,0.7427,0.0884,-0.4875,
34.396547,-0.0334,-1.7137,1.2713,0.7427,0.0884,-0.4875,
34.406201,-0.0334,-1.7137,1.2713,0.2686,-0.2537,-0.4946,
34.460781,-0.0334,-1.7137,1.2713,0.2686,-0.2537,-0.4946,
34.461562,2.7717,5.4222,-1.2912,0.2686,-0.2537,-0.4946,
34.472643,2.7717,5.4222,-1.2912,0.3117,1.2478,0.2451,
34.526058,2.7717,5.4222,-1.2912,0.3117,1.2478,0.2451,
34.526659,-1.9710,1.5259,0.3318,0.3117,1.2478,0.2451,
34.537813,-1.9710,1.5259,0.3318,-2.3298,-2.2101,-0.4476,
34.592097,-1.9710,1.5259,0.3318,-2.3298,-2.2101,-0.4476,
34.592678,-0.5643,1.0173,-1.3307,-2.3298,-2.2101,-0.4476,
34.603536,-0.5643,1.0173,-1.3307,-0.9574,-0.4678,0.2413,
34.659534,-0.5643,1.0173,-1.3307,-0.9574,-0.4678,0.2413,
34.661617,-0.1908,-0.3512,-0.9001,-0.9574,-0.4678,0.2413,
34.670496,-0.1908,-0.3512,-0.9001,-1.4681,-0.1303,0.4271,
34.723313,-0.1908,-0.3512,-0.9001,-1.4681,-0.1303,0.4271,
34.725622,-1.3228,0.9778,-1.1969,-1.4681,-0.1303,0.4271,
34.737003,-1.3228,0.9778,-1.1969,-0.3060,0.5560,0.7404,
34.789359,-1.3228,0.9778,-1.1969,-0.3060,0.5560,0.7404,
34.791448,-0.7424,-1.8407,-1.5261,-0.3060,0.5560,0.7404,
34.800681,-0.7424,-1.8407,-1.5261,-0.8822,0.5011,1.4502,
34.856777,-0.7424,-1.8407,-1.5261,-0.8822,0.5011,1.4502,
34.858790,-0.6522,-3.2081,1.5499,-0.8822,0.5011,1.4502,
34.866726,-0.6522,-3.2081,1.5499,0.1182,0.5629,0.1561,
34.920129,-0.6522,-3.2081,1.5499,0.1182,0.5629,0.1561,
34.921225,0.3074,-2.5293,0.0322,0.1182,0.5629,0.1561,
34.930683,0.3074,-2.5293,0.0322,0.3286,-0.2233,-0.0118,
34.986892,0.3074,-2.5293,0.0322,0.3286,-0.2233,-0.0118,
34.987664,1.3145,3.2444,0.0504,0.3286,-0.2233,-0.0118,
34.997835,1.3145,3.2444,0.0504,-0.6544,-0.0336,0.7194,
35.049646,1.3145,3.2444,0.0504,-0.6544,-0.0336,0.7194,
35.050425,0.6919,0.6957,-1.1519,-0.6544,-0.0336,0.7194,
35.062751,0.6919,0.6957,-1.1519,1.0296,1.6373,-0.2931,
35.115340,0.6919,0.6957,-1.1519,1.0296,1.6373,-0.2931,
35.116082,0.0213,1.4003,-1.7516,1.0296,1.6373,-0.2931,
35.127559,0.0213,1.4003,-1.7516,0.7847,0.8699,0.0394,
35.181451,0.0213,1.4003,-1.7516,0.7847,0.8699,0.0394,
35.182383,-0.9165,-0.2958,-0.4104,0.7847,0.8699,0.0394,
35.193023,-0.9165,-0.2958,-0.4104,0.8033,0.6770,0.4837,
35.247146,-0.9165,-0.2958,-0.4104,0.8033,0.6770,0.4837,
35.247778,0.3683,-0.5906,-0.0515,0.8033,0.6770,0.4837,
35.258625,0.3683,-0.5906,-0.0515,1.0018,1.1767,0.2069,
35.312767,0.3683,-0.5906,-0.0515,1.0018,1.1767,0.2069,
35.313517,-0.2432,-0.5161,0.0385,1.0018,1.1767,0.2069,
35.324898,-0.2432,-0.5161,0.0385,0.8598,0.6332,-0.0864,
35.377794,-0.2432,-0.5161,0.0385,0.8598,0.6332,-0.0864,
35.378960,0.8810,-0.2866,0.2129,0.8598,0.6332,-0.0864,
35.389303,0.8810,-0.2866,0.2129,0.3511,0.5063,-0.2857,
35.442033,0.8810,-0.2866,0.2129,0.3511,0.5063,-0.2857,
35.442771,-0.6482,-0.6488,1.7362,0.3511,0.5063,-0.2857,
35.454415,-0.6482,-0.6488,1.7362,0.4036,0.0431,-0.5768,
35.509151,-0.6482,-0.6488,1.7362,0.4036,0.0431,-0.5768,
35.510567,0.3001,0.0588,2.0192,0.4036,0.0431,-0.5768,
35.520873,0.3001,0.0588,2.0192,-0.0586,-0.7700,-0.6257,
35.574523,0.3001,0.0588,2.0192,-0.0586,-0.7700,-0.6257,
35.575480,1.6232,4.6196,-3.4157,-0.0586,-0.7700,-0.6257,
35.585060,1.6232,4.6196,-3.4157,-0.4485,1.4784,0.1703,
35.639862,1.6232,4.6196,-3.4157,-0.4485,1.4784,0.1703,
35.641844,-1.4572,1.2534,-1.1381,-0.4485,1.4784,0.1703,
35.651342,-1.4572,1.2534,-1.1381,-3.0227,-1.8819,-0.3545,
35.705323,-1.4572,1.2534,-1.1381,-3.0227,-1.8819,-0.3545,
35.706966,0.4178,0.2272,-0.4804,-3.0227,-1.8819,-0.3545,
35.715968,0.4178,0.2272,-0.4804,-0.5818,-0.1865,0.3977,
35.771019,0.4178,0.2272,-0.4804,-0.5818,-0.1865,0.3977,
35.772026,0.9898,-2.3145,-0.6211,-0.5818,-0.1865,0.3977,
35.784088,0.9898,-2.3145,-0.6211,0.1718,1.5311,1.1509,
35.837093,0.9898,-2.3145,-0.6211,0.1718,1.5311,1.1509,
35.837737,0.4728,-3.6776,-0.7790,0.1718,1.5311,1.1509,
35.847621,0.4728,-3.6776,-0.7790,0.7877,1.5511,0.2395,
35.901208,0.4728,-3.6776,-0.7790,0.7877,1.5511,0.2395,
35.901890,-0.5661,-3.3118,-0.0892,0.7877,1.5511,0.2395,
35.912816,-0.5661,-3.3118,-0.0892,0.0724,0.0110,0.0547,
35.967108,-0.5661,-3.3118,-0.0892,0.0724,0.0110,0.0547,
35.967799,1.1951,4.0276,1.9425,0.0724,0.0110,0.0547,
35.978944,1.1951,4.0276,1.9425,0.3323,-0.6423,0.2833,
36.033691,1.1951,4.0276,1.9425,0.3323,-0.6423,0.2833,
36.034947,0.0781,1.3313,-2.9674,0.3323,-0.6423,0.2833,
36.044281,0.0781,1.3313,-2.9674,1.0759,2.3508,-0.2717,
36.099425,0.0781,1.3313,-2.9674,1.0759,2.3508,-0.2717,
36.100189,-1.5930,1.1080,-0.6788,1.0759,2.3508,-0.2717,
36.110024,-1.5930,1.1080,-0.6788,1.1500,-0.4325,0.3709,
36.165737,-1.5930,1.1080,-0.6788,1.1500,-0.4325,0.3709,
36.167895,-0.4645,1.0297,1.0108,1.1500,-0.4325,0.3709,
36.177182,-0.4645,1.0297,1.0108,0.7062,0.1365,-0.3735,
36.229021,-0.4645,1.0297,1.0108,0.7062,0.1365,-0.3735,
36.230487,1.2491,-1.8349,0.3428,0.7062,0.1365,-0.3735,
36.239786,1.2491,-1.8349,0.3428,0.9957,1.4684,-0.7616,
36.296513,1.2491,-1.8349,0.3428,0.9957,1.4684,-0.7616,
36.298203,2.6724,-1.9906,2.5162,0.9957,1.4684,-0.7616,
36.305905,2.6724,-1.9906,2.5162,0.4994,-0.2552,-0.4325,
36.360886,2.6724,-1.9906,2.5162,0.4994,-0.2552,-0.4325,
36.361970,1.8982,-1.6932,-0.0013,0.4994,-0.2552,-0.4325,
36.373128,1.8982,-1.6932,-0.0013,-0.4264,0.7170,0.0980,
36.426722,1.8982,-1.6932,-0.0013,-0.4264,0.7170,0.0980,
36.427886,1.7546,3.9907,-1.1821,-0.4264,0.7170,0.0980,
36.437067,1.7546,3.9907,-1.1821,0.1515,2.0531,0.5586,
36.493236,1.7546,3.9907,-1.1821,0.1515,2.0531,0.5586,
36.494747,-1.7266,2.8877,-0.5648,0.1515,2.0531,0.5586,
36.502971,-1.7266,2.8877,-0.5648,-1.4584,-0.8757,0.2150,
36.556869,-1.7266,2.8877,-0.5648,-1.4584,-0.8757,0.2150,
36.558594,-1.3600,-0.3344,-0.9588,-1.4584,-0.8757,0.2150,
36.568934,-1.3600,-0.3344,-0.9588,-0.4782,-0.2827,0.6055,
36.622814,-1.3600,-0.3344,-0.9588,-0.4782,-0.2827,0.6055,
36.624637,-1.7722,-1.0614,-2.1478,-0.4782,-0.2827,0.6055,
36.634401,-1.7722,-1.0614,-2.1478,0.0712,1.9235,0.1411,
36.687029,-1.7722,-1.0614,-2.1478,0.0712,1.9235,0.1411,
36.687806,-1.6033,-0.0041,-0.3300,0.0712,1.9235,0.1411,
36.699573,-1.6033,-0.0041,-0.3300,-0.5594,0.1040,0.4497,
36.752519,-1.6033,-0.0041,-0.3300,-0.5594,0.1040,0.4497,
36.753196,-1.0013,-1.3738,0.1615,-0.5594,0.1040,0.4497,
36.764325,-1.0013,-1.3738,0.1615,-0.2698,0.5530,0.2877,
36.819858,-1.0013,-1.3738,0.1615,-0.2698,0.5530,0.2877,
36.820956,0.2933,-0.6566,0.3805,-0.2698,0.5530,0.2877,
36.829706,0.2933,-0.6566,0.3805,-0.4404,-0.1978,0.4297,
36.883501,0.2933,-0.6566,0.3805,-0.4404,-0.1978,0.4297,
36.884802,0.7876,-0.7761,0.8814,-0.4404,-0.1978,0.4297,
36.895118,0.7876,-0.7761,0.8814,-0.4239,0.2549,0.7213,
36.949266,0.7876,-0.7761,0.8814,-0.4239,0.2549,0.7213,
36.950047,0.8472,-1.0638,0.4099,-0.4239,0.2549,0.7213,
36.961073,0.8472,-1.0638,0.4099,0.2344,0.2747,0.2662,
37.014785,0.8472,-1.0638,0.4099,0.2344,0.2747,0.2662,
37.015953,-0.6814,2.3308,0.2367,0.2344,0.2747,0.2662,
37.026689,-0.6814,2.3308,0.2367,0.5176,0.7437,-0.2172,
37.079235,-0.6814,2.3308,0.2367,0.5176,0.7437,-0.2172,
37.079828,-1.2214,0.1402,-1.0068,0.5176,0.7437,-0.2172,
37.093151,-1.2214,0.1402,-1.0068,0.8922,-0.6112,0.0557,
37.146412,-1.2214,0.1402,-1.0068,0.8922,-0.6112,0.0557,
37.146904,0.2017,1.5758,-0.6982,0.8922,-0.6112,0.0557,
37.157983,0.2017,1.5758,-0.6982,0.6562,-0.4728,0.4128,
37.211012,0.2017,1.5758,-0.6982,0.6562,-0.4728,0.4128,
37.211598,0.8168,-0.8580,-0.3617,0.6562,-0.4728,0.4128,
37.222787,0.8168,-0.8580,-0.3617,0.8286,0.2657,0.0269,
37.277213,0.8168,-0.8580,-0.3617,0.8286,0.2657,0.0269,
37.278868,0.3641,-0.8163,0.7981,0.8286,0.2657,0.0269,
37.288147,0.3641,-0.8163,0.7981,1.4736,0.4539,0.0973,
37.341872,0.3641,-0.8163,0.7981,1.4736,0.4539,0.0973,
37.343505,0.4046,-1.0463,-1.0867,1.4736,0.4539,0.0973,
37.353455,0.4046,-1.0463,-1.0867,0.9151,1.0429,-0.1365,
37.409114,0.4046,-1.0463,-1.0867,0.9151,1.0429,-0.1365,
37.410869,-0.2217,-0.8093,-0.2692,0.9151,1.0429,-0.1365,
37.419952,-0.2217,-0.8093,-0.2692,0.5269,-0.0084,-0.2326,
37.474600,-0.2217,-0.8093,-0.2692,0.5269,-0.0084,-0.2326,
37.476905,0.7978,-0.4749,0.9760,0.5269,-0.0084,-0.2326,
37.483892,0.7978,-0.4749,0.9760,0.4682,-0.3010,-0.4737,
37.538492,0.7978,-0.4749,0.9760,0.4682,-0.3010,-0.4737,
37.540124,1.6617,-0.5482,1.9716,0.4682,-0.3010,-0.4737,
37.550970,1.6617,-0.5482,1.9716,0.8393,-0.4339,-0.6884,
37.605467,1.6617,-0.5482,1.9716,0.8393,-0.4339,-0.6884,
37.607254,2.6349,-1.5962,1.9632,0.8393,-0.4339,-0.6884,
37.617586,2.6349,-1.5962,1.9632,1.1784,0.1277,-0.7915,
37.670680,2.6349,-1.5962,1.9632,1.1784,0.1277,-0.7915,
37.672285,0.9711,4.8424,-1.5436,1.1784,0.1277,-0.7915,
37.681185,0.9711,4.8424,-1.5436,1.1733,2.7755,0.5707,
37.736042,0.9711,4.8424,-1.5436,1.1733,2.7755,0.5707,
37.738099,-1.2373,0.5990,-4.0209,1.1733,2.7755,0.5707,
37.746626,-1.2373,0.5990,-4.0209,-1.7541,0.6339,-1.2741,
37.801158,-1.2373,0.5990,-4.0209,-1.7541,0.6339,-1.2741,
37.802472,-2.9214,0.2427,-0.9097,-1.7541,0.6339,-1.2741,
37.813098,-2.9214,0.2427,-0.9097,-2.9010,-0.6533,-0.7958,
37.867119,-2.9214,0.2427,-0.9097,-2.9010,-0.6533,-0.7958,
37.868593,-1.9158,0.4327,-2.7151,-2.9010,-0.6533,-0.7958,
37.877493,-1.9158,0.4327,-2.7151,-2.1429,-0.8829,0.5052,
37.931619,-1.9158,0.4327,-2.7151,-2.1429,-0.8829,0.5052,
37.932788,0.4776,-0.5439,-0.3970,-2.1429,-0.8829,0.5052,
37.942791,0.4776,-0.5439,-0.3970,-2.5200,1.2588,1.5557,
37.995948,0.4776,-0.5439,-0.3970,-2.5200,1.2588,1.5557,
37.996552,1.4152,-7.2160,3.0198,-2.5200,1.2588,1.5557,
38.008923,1.4152,-7.2160,3.0198,0.3401,0.2650,0.3265,
38.062705,1.4152,-7.2160,3.0198,0.3401,0.2650,0.3265,
38.064198,0.3105,-1.2679,1.6041,0.3401,0.2650,0.3265,
38.074522,0.3105,-1.2679,1.6041,0.5646,-1.4164,-0.8786,
38.129090,0.3105,-1.2679,1.6041,0.5646,-1.4164,-0.8786,
38.131569,-0.8081,2.7012,-1.1410,0.5646,-1.4164,-0.8786,
38.139576,-0.8081,2.7012,-1.1410,1.7286,-0.7873,-0.2269,
38.192703,-0.8081,2.7012,-1.1410,1.7286,-0.7873,-0.2269,
38.194238,-1.3438,-2.1735,-3.8994,1.7286,-0.7873,-0.2269,
38.204884,-1.3438,-2.1735,-3.8994,0.6318,0.9258,0.0383,
38.260345,-1.3438,-2.1735,-3.8994,0.6318,0.9258,0.0383,
38.262168,-0.1591,1.2748,3.6178,0.6318,0.9258,0.0383,
38.270878,-0.1591,1.2748,3.6178,0.1611,-0.0195,0.4540,
38.326067,-0.1591,1.2748,3.6178,0.1611,-0.0195,0.4540,
38.328062,0.9998,-1.6892,-1.4613,0.1611,-0.0195,0.4540,
38.335982,0.9998,-1.6892,-1.4613,1.4226,0.1857,0.1069,
38.389130,0.9998,-1.6892,-1.4613,1.4226,0.1857,0.1069,
38.390953,2.0656,-1.4082,2.1273,1.4226,0.1857,0.1069,
38.401644,2.0656,-1.4082,2.1273,0.3441,-0.5977,-0.5056,
38.456994,2.0656,-1.4082,2.1273,0.3441,-0.5977,-0.5056,
38.458838,1.7332,-0.7921,-0.3357,0.3441,-0.5977,-0.5056,
38.467181,1.7332,-0.7921,-0.3357,0.4901,0.0522,-0.1851,
38.520990,1.7332,-0.7921,-0.3357,0.4901,0.0522,-0.1851,
38.522652,0.9826,3.6701,-0.1482,0.4901,0.0522,-0.1851,
38.532495,0.9826,3.6701,-0.1482,0.6880,1.5637,0.2424,
38.587642,0.9826,3.6701,-0.1482,0.6880,1.5637,0.2424,
38.589499,-2.1631,1.5835,-1.4535,0.6880,1.5637,0.2424,
38.597376,-2.1631,1.5835,-1.4535,-0.5537,0.4027,-0.6677,
38.651525,-2.1631,1.5835,-1.4535,-0.5537,0.4027,-0.6677,
38.653520,-2.0724,0.6932,-1.2128,-0.5537,0.4027,-0.6677,
38.663802,-2.0724,0.6932,-1.2128,-1.2382,0.2482,-0.3308,
38.717599,-2.0724,0.6932,-1.2128,-1.2382,0.2482,-0.3308,
38.719307,-0.9925,-0.4251,0.0524,-1.2382,0.2482,-0.3308,
38.729041,-0.9925,-0.4251,0.0524,-1.8456,-1.2289,0.2057,
38.782446,-0.9925,-0.4251,0.0524,-1.8456,-1.2289,0.2057,
38.784705,-0.9106,0.2353,-0.2426,-1.8456,-1.2289,0.2057,
38.794369,-0.9106,0.2353,-0.2426,-0.9978,-1.1283,0.1527,
38.851479,-0.9106,0.2353,-0.2426,-0.9978,-1.1283,0.1527,
38.854988,-0.9197,0.0231,-1.1045,-0.9978,-1.1283,0.1527,
38.861165,-0.9197,0.0231,-1.1045,-0.7117,0.7805,0.5292,
38.915588,-0.9197,0.0231,-1.1045,-0.7117,0.7805,0.5292,
38.919405,0.1579,-1.8570,-0.2898,-0.7117,0.7805,0.5292,
38.925428,0.1579,-1.8570,-0.2898,-0.5612,0.6680,0.4694,
38.979931,0.1579,-1.8570,-0.2898,-0.5612,0.6680,0.4694,
38.981532,0.4535,-1.8339,0.3483,-0.5612,0.6680,0.4694,
38.991486,0.4535,-1.8339,0.3483,0.0006,1.1577,0.3048,
39.046454,0.4535,-1.8339,0.3483,0.0006,1.1577,0.3048,
39.047885,0.7685,0.4762,2.2139,0.0006,1.1577,0.3048,
39.056049,0.7685,0.4762,2.2139,0.1629,0.2040,0.6895,
39.109487,0.7685,0.4762,2.2139,0.1629,0.2040,0.6895,
39.110516,-0.0365,-1.6062,-0.8432,0.1629,0.2040,0.6895,
39.121067,-0.0365,-1.6062,-0.8432,1.8922,0.1112,0.1367,
39.176542,-0.0365,-1.6062,-0.8432,1.8922,0.1112,0.1367,
39.178175,-1.7553,2.5010,-2.0886,1.8922,0.1112,0.1367,
39.187813,-1.7553,2.5010,-2.0886,1.0078,-0.6006,-0.4673,
39.242145,-1.7553,2.5010,-2.0886,1.0078,-0.6006,-0.4673,
39.243735,-1.1335,-0.0347,-1.6392,1.0078,-0.6006,-0.4673,
39.252601,-1.1335,-0.0347,-1.6392,0.1692,-0.7671,0.4398,
39.306097,-1.1335,-0.0347,-1.6392,0.1692,-0.7671,0.4398,
39.306756,1.0875,-0.7529,0.6475,0.1692,-0.7671,0.4398,
39.317056,1.0875,-0.7529,0.6475,0.4192,-0.6675,0.3580,
39.373104,1.0875,-0.7529,0.6475,0.4192,-0.6675,0.3580,
39.374729,1.1042,-0.9163,-0.5816,0.4192,-0.6675,0.3580,
39.383583,1.1042,-0.9163,-0.5816,0.8024,0.4988,-0.1275,
39.438057,1.1042,-0.9163,-0.5816,0.8024,0.4988,-0.1275,
39.440664,1.2291,-0.4450,0.8976,0.8024,0.4988,-0.1275,
39.450427,1.2291,-0.4450,0.8976,0.9676,0.4345,-0.3772,
39.503202,1.2291,-0.4450,0.8976,0.9676,0.4345,-0.3772,
39.505179,1.0007,-0.3486,2.0099,0.9676,0.4345,-0.3772,
39.513851,1.0007,-0.3486,2.0099,0.9490,-0.3089,-0.4452,
39.569908,1.0007,-0.3486,2.0099,0.9490,-0.3089,-0.4452,
39.572198,-0.7425,-2.7572,-0.1016,0.9490,-0.3089,-0.4452,
39.579972,-0.7425,-2.7572,-0.1016,-0.2211,-1.1742,-0.2489,
39.635120,-0.7425,-2.7572,-0.1016,-0.2211,-1.1742,-0.2489,
39.636949,-2.3199,7.0551,-3.0354,-0.2211,-1.1742,-0.2489,
39.646897,-2.3199,7.0551,-3.0354,-2.5817,-1.7875,1.1077,
39.700762,-2.3199,7.0551,-3.0354,-2.5817,-1.7875,1.1077,
39.702476,-0.7250,1.2074,0.6624,-2.5817,-1.7875,1.1077,
39.711465,-0.7250,1.2074,0.6624,-2.9709,-3.2452,0.7845,
39.765470,-0.7250,1.2074,0.6624,-2.9709,-3.2452,0.7845,
39.767086,0.4487,-1.4293,0.8429,-2.9709,-3.2452,0.7845,
39.777850,0.4487,-1.4293,0.8429,0.4078,0.7863,1.8474,
39.830192,0.4487,-1.4293,0.8429,0.4078,0.7863,1.8474,
39.831801,1.9979,-4.4273,0.5342,0.4078,0.7863,1.8474,
39.841198,1.9979,-4.4273,0.5342,0.4514,1.1032,0.6523,
39.896166,1.9979,-4.4273,0.5342,0.4514,1.1032,0.6523,
39.897763,2.3158,-0.9680,2.0205,0.4514,1.1032,0.6523,
39.907108,2.3158,-0.9680,2.0205,0.2582,0.6454,0.4919,
39.961896,2.3158,-0.9680,2.0205,0.2582,0.6454,0.4919,
39.963550,-0.2039,-2.1190,-1.1739,0.2582,0.6454,0.4919,
39.972640,-0.2039,-2.1190,-1.1739,0.8911,1.8856,-1.3555,
40.025661,-0.2039,-2.1190,-1.1739,0.8911,1.8856,-1.3555,
40.026198,-1.6562,4.9307,-2.1647,0.8911,1.8856,-1.3555,
40.039761,-1.6562,4.9307,-2.1647,1.4639,0.4782,-0.9322,
40.093852,-1.6562,4.9307,-2.1647,1.4639,0.4782,-0.9322,
40.095340,-0.8640,-0.2723,-2.9011,1.4639,0.4782,-0.9322,
40.103884,-0.8640,-0.2723,-2.9011,0.9279,0.8885,-0.1008,
40.159594,-0.8640,-0.2723,-2.9011,0.9279,0.8885,-0.1008,
40.161325,-0.8723,-0.2419,-0.2285,0.9279,0.8885,-0.1008,
40.170457,-0.8723,-0.2419,-0.2285,0.4669,-0.7004,-0.0070,
40.222908,-0.8723,-0.2419,-0.2285,0.4669,-0.7004,-0.0070,
40.223664,0.0355,-0.6458,-0.3604,0.4669,-0.7004,-0.0070,
40.233599,0.0355,-0.6458,-0.3604,0.4676,-0.5976,-0.2398,
40.289465,0.0355,-0.6458,-0.3604,0.4676,-0.5976,-0.2398,
40.291129,1.8754,-1.3192,0.4180,0.4676,-0.5976,-0.2398,
40.301586,1.8754,-1.3192,0.4180,0.7396,0.4879,-0.4667,
40.353898,1.8754,-1.3192,0.4180,0.7396,0.4879,-0.4667,
40.355430,1.9855,-1.1579,2.2485,0.7396,0.4879,-0.4667,
40.366742,1.9855,-1.1579,2.2485,1.2368,-0.0489,-0.6625,
40.419106,1.9855,-1.1579,2.2485,1.2368,-0.0489,-0.6625,
40.420196,2.2272,-2.0646,1.9490,1.2368,-0.0489,-0.6625,
40.430089,2.2272,-2.0646,1.9490,1.3682,0.6269,-0.8670,
40.483917,2.2272,-2.0646,1.9490,1.3682,0.6269,-0.8670,
40.485001,0.6210,0.4371,-2.4681,1.3682,0.6269,-0.8670,
40.495965,0.6210,0.4371,-2.4681,1.3862,4.1159,0.1994,
40.549922,0.6210,0.4371,-2.4681,1.3862,4.1159,0.1994,
40.551329,1.6100,4.9180,-0.8103,1.3862,4.1159,0.1994,
40.561246,1.6100,4.9180,-0.8103,0.0704,0.6524,-0.2896,
40.616851,1.6100,4.9180,-0.8103,0.0704,0.6524,-0.2896,
40.618409,-3.3514,2.8816,-2.0695,0.0704,0.6524,-0.2896,
40.627034,-3.3514,2.8816,-2.0695,-2.7784,-1.8841,-0.6034,
40.680927,-3.3514,2.8816,-2.0695,-2.7784,-1.8841,-0.6034,
40.682116,-3.0824,-0.1375,-1.1751,-2.7784,-1.8841,-0.6034,
40.693109,-3.0824,-0.1375,-1.1751,-1.9494,-0.3207,-0.1098,
40.746095,-3.0824,-0.1375,-1.1751,-1.9494,-0.3207,-0.1098,
40.747531,-1.1768,-1.3747,-0.8735,-1.9494,-0.3207,-0.1098,
40.757851,-1.1768,-1.3747,-0.8735,-1.3401,-0.0574,0.0322,
40.811921,-1.1768,-1.3747,-0.8735,-1.3401,-0.0574,0.0322,
40.813570,-0.5380,0.1844,-1.1547,-1.3401,-0.0574,0.0322,
40.823774,-0.5380,0.1844,-1.1547,-0.9962,-0.4626,0.6112,
40.877395,-0.5380,0.1844,-1.1547,-0.9962,-0.4626,0.6112,
40.879817,0.5905,-1.4087,-0.8962,-0.9962,-0.4626,0.6112,
40.889427,0.5905,-1.4087,-0.8962,-0.7336,0.3374,0.7914,
40.943294,0.5905,-1.4087,-0.8962,-0.7336,0.3374,0.7914,
40.944981,-0.2199,-2.7544,0.9142,-0.7336,0.3374,0.7914,
40.954558,-0.2199,-2.7544,0.9142,0.1254,0.1315,0.1764,
41.009551,-0.2199,-2.7544,0.9142,0.1254,0.1315,0.1764,
41.011187,0.8539,-0.0035,1.3550,0.1254,0.1315,0.1764,
41.021095,0.8539,-0.0035,1.3550,0.5053,-0.1891,0.3920,
41.073801,0.8539,-0.0035,1.3550,0.5053,-0.1891,0.3920,
41.074687,1.2478,-0.0647,-0.5089,0.5053,-0.1891,0.3920,
41.086168,1.2478,-0.0647,-0.5089,0.3514,0.6817,0.3483,
41.140004,1.2478,-0.0647,-0.5089,0.3514,0.6817,0.3483,
41.141537,-1.9186,2.1201,-0.0924,0.3514,0.6817,0.3483,
41.151154,-1.9186,2.1201,-0.0924,1.4899,-0.4381,-0.8687,
41.205507,-1.9186,2.1201,-0.0924,1.4899,-0.4381,-0.8687,
41.206475,-1.0413,0.0781,-2.1853,1.4899,-0.4381,-0.8687,
41.217160,-1.0413,0.0781,-2.1853,0.5753,-1.2617,0.3187,
41.270392,-1.0413,0.0781,-2.1853,0.5753,-1.2617,0.3187,
41.272857,1.3915,-0.9453,1.1187,0.5753,-1.2617,0.3187,
41.282042,1.3915,-0.9453,1.1187,0.5400,0.3838,0.0947,
41.335289,1.3915,-0.9453,1.1187,0.5400,0.3838,0.0947,
41.336292,0.5777,-0.5331,-0.3581,0.5400,0.3838,0.0947,
41.348498,0.5777,-0.5331,-0.3581,0.5990,0.8526,-0.0457,
41.400308,0.5777,-0.5331,-0.3581,0.5990,0.8526,-0.0457,
41.401053,-0.3454,-1.1738,0.1671,0.5990,0.8526,-0.0457,
41.412831,-0.3454,-1.1738,0.1671,0.3059,0.9966,-0.2563,
41.466497,-0.3454,-1.1738,0.1671,0.3059,0.9966,-0.2563,
41.467964,0.7115,-0.3693,0.5145,0.3059,0.9966,-0.2563,
41.478474,0.7115,-0.3693,0.5145,0.2746,0.1232,-0.3296,
41.531981,0.7115,-0.3693,0.5145,0.2746,0.1232,-0.3296,
41.533744,2.4414,-0.3436,1.1435,0.2746,0.1232,-0.3296,
41.543949,2.4414,-0.3436,1.1435,0.6153,-0.3267,-0.2538,
41.598550,2.4414,-0.3436,1.1435,0.6153,-0.3267,-0.2538,
41.600508,2.4504,-0.8197,-1.7895,0.6153,-0.3267,-0.2538,
41.610364,2.4504,-0.8197,-1.7895,0.7706,1.2074,0.0440,
41.663655,2.4504,-0.8197,-1.7895,0.7706,1.2074,0.0440,
41.665256,0.3481,0.3228,1.7974,0.7706,1.2074,0.0440,
41.674901,0.3481,0.3228,1.7974,0.2656,0.9965,0.4517,
41.727750,0.3481,0.3228,1.7974,0.2656,0.9965,0.4517,
41.728746,-0.9950,3.5703,-2.5232,0.2656,0.9965,0.4517,
41.740106,-0.9950,3.5703,-2.5232,-1.1785,-0.5256,0.5788,
41.794346,-0.9950,3.5703,-2.5232,-1.1785,-0.5256,0.5788,
41.795622,-1.7910,2.0032,-0.8553,-1.1785,-0.5256,0.5788,
41.807214,-1.7910,2.0032,-0.8553,-1.3709,-0.2792,-0.0628,
41.859941,-1.7910,2.0032,-0.8553,-1.3709,-0.2792,-0.0628,
41.861290,-2.6460,0.1665,-0.2550,-1.3709,-0.2792,-0.0628,
41.871020,-2.6460,0.1665,-0.2550,-1.3467,-0.0345,0.1118,
41.926115,-2.6460,0.1665,-0.2550,-1.3467,-0.0345,0.1118,
41.927530,-1.5558,0.0146,-1.6521,-1.3467,-0.0345,0.1118,
41.936236,-1.5558,0.0146,-1.6521,-0.5524,-0.1735,0.2366,
41.991486,-1.5558,0.0146,-1.6521,-0.5524,-0.1735,0.2366,
41.993278,-0.5186,-0.1629,-1.1100,-0.5524,-0.1735,0.2366,
42.002890,-0.5186,-0.1629,-1.1100,-0.9733,0.1284,0.7559,
42.058461,-0.5186,-0.1629,-1.1100,-0.9733,0.1284,0.7559,
42.060184,0.4010,-2.3675,0.7515,-0.9733,0.1284,0.7559,
42.067777,0.4010,-2.3675,0.7515,-0.2075,0.0687,0.5008,
42.122869,0.4010,-2.3675,0.7515,-0.2075,0.0687,0.5008,
42.124360,1.7815,-0.4872,1.2066,-0.2075,0.0687,0.5008,
42.132664,1.7815,-0.4872,1.2066,0.0510,0.2514,0.8227,
42.188101,1.7815,-0.4872,1.2066,0.0510,0.2514,0.8227,
42.189394,1.6150,-2.4022,-0.5312,0.0510,0.2514,0.8227,
42.198903,1.6150,-2.4022,-0.5312,0.9873,0.7268,-0.1006,
42.253211,1.6150,-2.4022,-0.5312,0.9873,0.7268,-0.1006,
42.254688,-1.2219,3.7272,0.0607,0.9873,0.7268,-0.1006,
42.266690,-1.2219,3.7272,0.0607,1.8130,-0.0535,-0.9520,
42.318019,-1.2219,3.7272,0.0607,1.8130,-0.0535,-0.9520,
42.318780,-0.8483,-0.6835,-2.6780,1.8130,-0.0535,-0.9520,
42.332673,-0.8483,-0.6835,-2.6780,0.5537,1.0678,-0.1972,
42.383394,-0.8483,-0.6835,-2.6780,0.5537,1.0678,-0.1972,
42.385598,-0.5813,0.3922,1.2810,0.5537,1.0678,-0.1972,
42.395464,-0.5813,0.3922,1.2810,0.4565,-0.1930,-0.1666,
42.448950,-0.5813,0.3922,1.2810,0.4565,-0.1930,-0.1666,
42.450093,0.5442,-1.3666,-0.5694,0.4565,-0.1930,-0.1666,
42.460312,0.5442,-1.3666,-0.5694,0.8439,0.6487,0.0008,
42.515949,0.5442,-1.3666,-0.5694,0.8439,0.6487,0.0008,
42.517494,1.1921,-0.7810,1.4780,0.8439,0.6487,0.0008,
42.526112,1.1921,-0.7810,1.4780,0.8056,0.2140,-0.3951,
42.580847,1.1921,-0.7810,1.4780,0.8056,0.2140,-0.3951,
42.582943,0.7596,-1.2599,1.0440,0.8056,0.2140,-0.3951,
42.591466,0.7596,-1.2599,1.0440,0.9998,-0.0367,-0.5107,
42.645155,0.7596,-1.2599,1.0440,0.9998,-0.0367,-0.5107,
42.646146,0.3537,-1.6326,1.7482,0.9998,-0.0367,-0.5107,
42.657015,0.3537,-1.6326,1.7482,0.4418,-0.2967,-0.4158,
42.710291,0.3537,-1.6326,1.7482,0.4418,-0.2967,-0.4158,
42.711737,0.4156,0.7944,-1.9882,0.4418,-0.2967,-0.4158,
42.722522,0.4156,0.7944,-1.9882,-0.1576,0.8502,0.3216,
42.775408,0.4156,0.7944,-1.9882,-0.1576,0.8502,0.3216,
42.776570,1.4494,3.5571,0.5147,-0.1576,0.8502,0.3216,
42.787346,1.4494,3.5571,0.5147,-0.3537,0.7052,0.2567,
42.841380,1.4494,3.5571,0.5147,-0.3537,0.7052,0.2567,
42.842373,-1.9949,3.6054,-1.5224,-0.3537,0.7052,0.2567,
42.853354,-1.9949,3.6054,-1.5224,-1.8893,-2.4630,0.4870,
42.907453,-1.9949,3.6054,-1.5224,-1.8893,-2.4630,0.4870,
42.909537,-1.0213,0.0960,-1.1335,-1.8893,-2.4630,0.4870,
42.918631,-1.0213,0.0960,-1.1335,-1.7642,0.1069,0.3303,
42.972529,-1.0213,0.0960,-1.1335,-1.7642,0.1069,0.3303,
42.973843,-0.6742,-0.9363,-0.6948,-1.7642,0.1069,0.3303,
42.984072,-0.6742,-0.9363,-0.6948,-0.7747,1.1932,0.5282,
43.038429,-0.6742,-0.9363,-0.6948,-0.7747,1.1932,0.5282,
43.040164,-1.2682,-0.1077,-2.2462,-0.7747,1.1932,0.5282,
43.050529,-1.2682,-0.1077,-2.2462,-1.0510,0.3044,0.6474,
43.104816,-1.2682,-0.1077,-2.2462,-1.0510,0.3044,0.6474,
43.106455,-0.6603,-1.9931,-0.2137,-1.0510,0.3044,0.6474,
43.115795,-0.6603,-1.9931,-0.2137,-1.3569,0.2509,0.8691,
43.169810,-0.6603,-1.9931,-0.2137,-1.3569,0.2509,0.8691,
43.170355,0.9760,-3.5201,0.7733,-1.3569,0.2509,0.8691,
43.181248,0.9760,-3.5201,0.7733,0.3178,0.2220,0.0915,
43.235217,0.9760,-3.5201,0.7733,0.3178,0.2220,0.0915,
43.237402,0.8868,-2.0651,-0.8310,0.3178,0.2220,0.0915,
43.246673,0.8868,-2.0651,-0.8310,1.1164,0.3961,-0.4574,
43.302129,0.8868,-2.0651,-0.8310,1.1164,0.3961,-0.4574,
43.303887,-0.4712,6.8841,4.1654,1.1164,0.3961,-0.4574,
43.314954,-0.4712,6.8841,4.1654,0.0177,-0.0993,0.3341,
43.367196,-0.4712,6.8841,4.1654,0.0177,-0.0993,0.3341,
43.369338,0.3478,-2.2588,-1.9951,0.0177,-0.0993,0.3341,
43.377713,0.3478,-2.2588,-1.9951,1.5863,1.3561,-0.7091,
43.433243,0.3478,-2.2588,-1.9951,1.5863,1.3561,-0.7091,
43.435070,-0.0471,1.3811,-0.0987,1.5863,1.3561,-0.7091,
43.442872,-0.0471,1.3811,-0.0987,0.8674,0.9562,0.0246,
43.495948,-0.0471,1.3811,-0.0987,0.8674,0.9562,0.0246,
43.497419,0.1476,0.0413,-1.0627,0.8674,0.9562,0.0246,
43.508819,0.1476,0.0413,-1.0627,1.2141,0.8529,0.1527,
43.563166,0.1476,0.0413,-1.0627,1.2141,0.8529,0.1527,
43.565084,0.6600,-1.3155,-0.2991,1.2141,0.8529,0.1527,
43.574691,0.6600,-1.3155,-0.2991,1.1263,0.6513,-0.0147,
43.628812,0.6600,-1.3155,-0.2991,1.1263,0.6513,-0.0147,
43.630539,-0.7956,-0.7610,1.7954,1.1263,0.6513,-0.0147,
43.640559,-0.7956,-0.7610,1.7954,0.7288,-0.5634,-0.3845,
43.695664,-0.7956,-0.7610,1.7954,0.7288,-0.5634,-0.3845,
43.697754,0.2450,-1.7773,1.8618,0.7288,-0.5634,-0.3845,
43.706677,0.2450,-1.7773,1.8618,0.3076,-0.8199,-0.4285,
43.761164,0.2450,-1.7773,1.8618,0.3076,-0.8199,-0.4285,
43.762356,1.8692,2.5546,-2.0936,0.3076,-0.8199,-0.4285,
43.770024,1.8692,2.5546,-2.0936,-0.0533,1.1564,0.3929,
43.824303,1.8692,2.5546,-2.0936,-0.0533,1.1564,0.3929,
43.825393,0.6636,1.9658,0.6584,-0.0533,1.1564,0.3929,
43.835708,0.6636,1.9658,0.6584,-1.6755,-0.6481,-0.2387,
43.889705,0.6636,1.9658,0.6584,-1.6755,-0.6481,-0.2387,
43.890431,0.3413,1.8694,-1.5966,-1.6755,-0.6481,-0.2387,
43.901490,0.3413,1.8694,-1.5966,-1.0704,-0.0447,0.6588,
43.954716,0.3413,1.8694,-1.5966,-1.0704,-0.0447,0.6588,
43.955476,-0.3997,0.1182,-1.7642,-1.0704,-0.0447,0.6588,
43.966169,-0.3997,0.1182,-1.7642,-0.8731,-0.3034,0.6619,
44.020867,-0.3997,0.1182,-1.7642,-0.8731,-0.3034,0.6619,
44.021981,-0.8995,-0.5343,-1.3102,-0.8731,-0.3034,0.6619,
44.032237,-0.8995,-0.5343,-1.3102,-0.6532,0.7993,0.4299,
44.086261,-0.8995,-0.5343,-1.3102,-0.6532,0.7993,0.4299,
44.087299,-0.6949,-0.1154,-0.7531,-0.6532,0.7993,0.4299,
44.098455,-0.6949,-0.1154,-0.7531,-0.2589,0.6170,0.8088,
44.151563,-0.6949,-0.1154,-0.7531,-0.2589,0.6170,0.8088,
44.153079,-0.6008,-1.4522,-0.4869,-0.2589,0.6170,0.8088,
44.163178,-0.6008,-1.4522,-0.4869,-0.1481,1.1419,0.2036,
44.216694,-0.6008,-1.4522,-0.4869,-0.1481,1.1419,0.2036,
44.217752,-0.4042,-1.0934,0.0569,-0.1481,1.1419,0.2036,
44.229967,-0.4042,-1.0934,0.0569,0.3454,0.6796,0.1449,
44.283528,-0.4042,-1.0934,0.0569,0.3454,0.6796,0.1449,
44.285081,1.6995,1.9138,1.7567,0.3454,0.6796,0.1449,
44.295351,1.6995,1.9138,1.7567,-0.1431,0.1405,0.6784,
44.349109,1.6995,1.9138,1.7567,-0.1431,0.1405,0.6784,
44.350764,0.3753,-2.8367,-1.7794,-0.1431,0.1405,0.6784,
44.360124,0.3753,-2.8367,-1.7794,1.4227,1.3211,-0.3995,
44.414310,0.3753,-2.8367,-1.7794,1.4227,1.3211,-0.3995,
44.415909,-0.8755,3.8356,-0.3348,1.4227,1.3211,-0.3995,
44.424917,-0.8755,3.8356,-0.3348,1.0142,-0.5318,-0.6150,
44.480814,-0.8755,3.8356,-0.3348,1.0142,-0.5318,-0.6150,
44.482915,-1.1687,-1.6937,-1.9428,1.0142,-0.5318,-0.6150,
44.491203,-1.1687,-1.6937,-1.9428,0.6588,-0.4443,0.1692,
44.544039,-1.1687,-1.6937,-1.9428,0.6588,-0.4443,0.1692,
44.545992,1.4433,0.8441,1.4629,0.6588,-0.4443,0.1692,
44.556763,1.4433,0.8441,1.4629,0.6318,-0.3439,0.1448,
44.611740,1.4433,0.8441,1.4629,0.6318,-0.3439,0.1448,
44.613779,-0.1307,-1.1467,-0.3711,0.6318,-0.3439,0.1448,
44.621493,-0.1307,-1.1467,-0.3711,0.9134,1.1519,-0.3367,
44.675607,-0.1307,-1.1467,-0.3711,0.9134,1.1519,-0.3367,
44.677372,0.5537,-0.8464,0.5022,0.9134,1.1519,-0.3367,
44.687551,0.5537,-0.8464,0.5022,0.9496,0.3270,-0.3512,
44.741910,0.5537,-0.8464,0.5022,0.9496,0.3270,-0.3512,
44.743873,0.2065,-0.6622,1.7652,0.9496,0.3270,-0.3512,
44.753127,0.2065,-0.6622,1.7652,0.7282,-0.8761,-0.4988,
44.806659,0.2065,-0.6622,1.7652,0.7282,-0.8761,-0.4988,
44.809436,1.4329,-2.1495,1.8900,0.7282,-0.8761,-0.4988,
44.818340,1.4329,-2.1495,1.8900,0.2529,-0.4050,-0.4615,
44.873352,1.4329,-2.1495,1.8900,0.2529,-0.4050,-0.4615,
44.874883,1.3326,2.0343,-2.8162,0.2529,-0.4050,-0.4615,
44.883817,1.3326,2.0343,-2.8162,0.2115,1.6651,0.3754,
44.937995,1.3326,2.0343,-2.8162,0.2115,1.6651,0.3754,
44.939771,-0.5201,3.3319,-0.6671,0.2115,1.6651,0.3754,
44.950356,-0.5201,3.3319,-0.6671,-1.2799,-0.7103,-0.8937,
45.002292,-0.5201,3.3319,-0.6671,-1.2799,-0.7103,-0.8937,
45.003499,-2.5737,2.5942,-0.0408,-1.2799,-0.7103,-0.8937,
45.015943,-2.5737,2.5942,-0.0408,-2.0690,-1.3370,-0.4139,
45.067356,-2.5737,2.5942,-0.0408,-2.0690,-1.3370,-0.4139,
45.069060,0.3461,-0.2374,-0.6737,-2.0690,-1.3370,-0.4139,
45.079537,0.3461,-0.2374,-0.6737,-0.7228,0.1445,0.3464,
45.133760,0.3461,-0.2374,-0.6737,-0.7228,0.1445,0.3464,
45.135771,1.0847,-0.9905,-0.7999,-0.7228,0.1445,0.3464,
45.145482,1.0847,-0.9905,-0.7999,-0.7715,0.3386,0.2089,
45.201434,1.0847,-0.9905,-0.7999,-0.7715,0.3386,0.2089,
45.203542,-0.5206,-0.2856,-0.9826,-0.7715,0.3386,0.2089,
45.212113,-0.5206,-0.2856,-0.9826,-0.7504,0.3306,0.2298,
45.267084,-0.5206,-0.2856,-0.9826,-0.7504,0.3306,0.2298,
45.269232,-0.7966,-0.6670,-0.1420,-0.7504,0.3306,0.2298,
45.277792,-0.7966,-0.6670,-0.1420,-0.3398,0.5786,0.2471,
45.331288,-0.7966,-0.6670,-0.1420,-0.3398,0.5786,0.2471,
45.334844,-0.1335,-1.6034,-0.1987,-0.3398,0.5786,0.2471,
45.343895,-0.1335,-1.6034,-0.1987,0.1231,0.7640,0.1833,
45.396700,-0.1335,-1.6034,-0.1987,0.1231,0.7640,0.1833,
45.398183,-1.0901,-1.9048,-0.0457,0.1231,0.7640,0.1833,
45.409034,-1.0901,-1.9048,-0.0457,0.3172,0.4345,-0.1199,
45.461934,-1.0901,-1.9048,-0.0457,0.3172,0.4345,-0.1199,
45.463403,0.1278,2.0334,0.1415,0.3172,0.4345,-0.1199,
45.474302,0.1278,2.0334,0.1415,0.3358,-0.3997,0.5453,
45.527927,0.1278,2.0334,0.1415,0.3358,-0.3997,0.5453,
45.530220,0.6587,1.9237,-1.3633,0.3358,-0.3997,0.5453,
45.539088,0.6587,1.9237,-1.3633,0.9329,-0.1799,0.1403,
45.594434,0.6587,1.9237,-1.3633,0.9329,-0.1799,0.1403,
45.596167,-0.6236,-2.2967,-0.8861,0.9329,-0.1799,0.1403,
45.605069,-0.6236,-2.2967,-0.8861,0.5777,0.1436,0.2445,
45.657486,-0.6236,-2.2967,-0.8861,0.5777,0.1436,0.2445,
45.658698,0.6457,2.0199,2.6189,0.5777,0.1436,0.2445,
45.669551,0.6457,2.0199,2.6189,1.0901,-0.7492,0.4936,
45.723278,0.6457,2.0199,2.6189,1.0901,-0.7492,0.4936,
45.724133,2.7468,-2.7584,1.1958,1.0901,-0.7492,0.4936,
45.735413,2.7468,-2.7584,1.1958,1.1657,0.6307,-0.6825,
45.789837,2.7468,-2.7584,1.1958,1.1657,0.6307,-0.6825,
45.791178,2.2094,-3.5153,1.9081,1.1657,0.6307,-0.6825,
45.803188,2.2094,-3.5153,1.9081,1.0003,0.0953,-0.4534,
45.854871,2.2094,-3.5153,1.9081,1.0003,0.0953,-0.4534,
45.855515,1.5384,2.0759,-0.2787,1.0003,0.0953,-0.4534,
45.864957,1.5384,2.0759,-0.2787,1.1510,2.3810,0.5237,
45.921066,1.5384,2.0759,-0.2787,1.1510,2.3810,0.5237,
45.921646,-0.2750,4.5773,-1.4604,1.1510,2.3810,0.5237,
45.932472,-0.2750,4.5773,-1.4604,-0.3969,-0.5040,0.0564,
45.986156,-0.2750,4.5773,-1.4604,-0.3969,-0.5040,0.0564,
45.987853,-1.9590,2.3326,-2.1364,-0.3969,-0.5040,0.0564,
45.996755,-1.9590,2.3326,-2.1364,-1.9416,-0.2230,-0.4484,
46.050102,-1.9590,2.3326,-2.1364,-1.9416,-0.2230,-0.4484,
46.051058,-2.9488,0.5950,-0.5070,-1.9416,-0.2230,-0.4484,
46.062639,-2.9488,0.5950,-0.5070,-2.0058,-0.8045,-0.0899,
46.117683,-2.9488,0.5950,-0.5070,-2.0058,-0.8045,-0.0899,
46.118645,-1.2327,-0.9946,-1.5894,-2.0058,-0.8045,-0.0899,
46.128643,-1.2327,-0.9946,-1.5894,-1.4594,-1.4691,-0.0449,
46.183141,-1.2327,-0.9946,-1.5894,-1.4594,-1.4691,-0.0449,
46.183732,-0.5673,0.0496,-0.7632,-1.4594,-1.4691,-0.0449,
46.193145,-0.5673,0.0496,-0.7632,-1.0368,-0.3697,0.6202,
46.246711,-0.5673,0.0496,-0.7632,-1.0368,-0.3697,0.6202,
46.247205,0.1603,-1.7225,-0.9046,-1.0368,-0.3697,0.6202,
46.258899,0.1603,-1.7225,-0.9046,-0.7552,0.0160,1.0507,
46.312773,0.1603,-1.7225,-0.9046,-0.7552,0.0160,1.0507,
46.313414,1.4608,-2.5540,1.0782,-0.7552,0.0160,1.0507,
46.324329,1.4608,-2.5540,1.0782,-0.1133,0.1220,0.5599,
46.379041,1.4608,-2.5540,1.0782,-0.1133,0.1220,0.5599,
46.379824,1.4201,-1.6269,1.0142,-0.1133,0.1220,0.5599,
46.389004,1.4201,-1.6269,1.0142,1.1550,0.4962,0.2225,
46.443703,1.4201,-1.6269,1.0142,1.1550,0.4962,0.2225,
46.444877,1.1946,1.0298,-0.4087,1.1550,0.4962,0.2225,
46.455135,1.1946,1.0298,-0.4087,1.6974,-0.0773,-0.1100,
46.510245,1.1946,1.0298,-0.4087,1.6974,-0.0773,-0.1100,
46.511260,-1.3309,1.0381,-1.7355,1.6974,-0.0773,-0.1100,
46.520354,-1.3309,1.0381,-1.7355,1.1596,1.3047,-0.6797,
46.575752,-1.3309,1.0381,-1.7355,1.1596,1.3047,-0.6797,
46.577070,-0.7344,-0.7375,0.1798,1.1596,1.3047,-0.6797,
46.585284,-0.7344,-0.7375,0.1798,0.9039,0.1536,0.1339,
46.640339,-0.7344,-0.7375,0.1798,0.9039,0.1536,0.1339,
46.642259,-0.3344,0.3183,-0.1147,0.9039,0.1536,0.1339,
46.652201,-0.3344,0.3183,-0.1147,1.0537,0.4756,0.0748,
46.707482,-0.3344,0.3183,-0.1147,1.0537,0.4756,0.0748,
46.709450,0.4247,-1.1786,-0.1712,1.0537,0.4756,0.0748,
46.717443,0.4247,-1.1786,-0.1712,0.9135,0.6524,-0.0557,
46.770837,0.4247,-1.1786,-0.1712,0.9135,0.6524,-0.0557,
46.772695,0.3806,-0.9740,0.5220,0.9135,0.6524,-0.0557,
46.782731,0.3806,-0.9740,0.5220,0.9027,0.1735,-0.1458,
46.837019,0.3806,-0.9740,0.5220,0.9027,0.1735,-0.1458,
46.839249,-0.0345,-1.3054,0.2434,0.9027,0.1735,-0.1458,
46.848987,-0.0345,-1.3054,0.2434,0.7795,0.3804,-0.1559,
46.902339,-0.0345,-1.3054,0.2434,0.7795,0.3804,-0.1559,
46.903973,-0.3986,-0.3772,0.1074,0.7795,0.3804,-0.1559,
46.913929,-0.3986,-0.3772,0.1074,1.0330,-0.1449,-0.2870,
46.967241,-0.3986,-0.3772,0.1074,1.0330,-0.1449,-0.2870,
46.968909,-1.5949,0.1747,1.3089,1.0330,-0.1449,-0.2870,
46.978648,-1.5949,0.1747,1.3089,0.6098,-1.3627,-0.4337,
47.034105,-1.5949,0.1747,1.3089,0.6098,-1.3627,-0.4337,
47.035989,0.4571,-0.8898,-0.3765,0.6098,-1.3627,-0.4337,
