
time,ax,ay,az,wx,wy,wz,
0.018839,0.0000,0.0000,0.0000,0.0000,0.0000,0.0000,
0.028349,0.0000,0.0000,0.0000,-0.0644,-0.0437,0.0538,
0.082628,0.0000,0.0000,0.0000,-0.0644,-0.0437,0.0538,
0.093691,0.0000,0.0000,0.0000,-0.0576,-0.0510,0.0635,
0.147962,0.0000,0.0000,0.0000,-0.0576,-0.0510,0.0635,
0.160130,0.0000,0.0000,0.0000,-0.0144,-0.0231,0.0425,
0.213919,0.0000,0.0000,0.0000,-0.0144,-0.0231,0.0425,
0.225953,0.0000,0.0000,0.0000,0.0287,0.0156,0.0191,
0.279038,0.0000,0.0000,0.0000,0.0287,0.0156,0.0191,
0.291442,0.0000,0.0000,0.0000,0.0368,0.0157,0.0212,
0.344317,0.0000,0.0000,0.0000,0.0368,0.0157,0.0212,
0.356597,0.0000,0.0000,0.0000,0.0324,0.0134,0.0150,
0.411071,0.0000,0.0000,0.0000,0.0324,0.0134,0.0150,
0.421861,0.0000,0.0000,0.0000,-0.0104,-0.0754,0.0009,
0.476425,0.0000,0.0000,0.0000,-0.0104,-0.0754,0.0009,
0.477490,0.2407,-0.7153,0.1230,-0.0104,-0.0754,0.0009,
0.487236,0.2407,-0.7153,0.1230,-0.0057,-0.2188,-0.0515,
0.542312,0.2407,-0.7153,0.1230,-0.0057,-0.2188,-0.0515,
0.543127,0.4660,-1.1178,0.1244,-0.0057,-0.2188,-0.0515,
0.552910,0.4660,-1.1178,0.1244,-0.0308,0.0089,-0.1933,
0.607328,0.4660,-1.1178,0.1244,-0.0308,0.0089,-0.1933,
0.608667,-0.0453,-0.2404,0.1379,-0.0308,0.0089,-0.1933,
0.619718,-0.0453,-0.2404,0.1379,-0.0331,-0.0980,-0.4892,
0.672055,-0.0453,-0.2404,0.1379,-0.0331,-0.0980,-0.4892,
0.673871,-0.3897,-0.9547,0.9573,-0.0331,-0.0980,-0.4892,
0.684864,-0.3897,-0.9547,0.9573,-0.0695,-0.3709,-0.3001,
0.749100,-0.3897,-0.9547,0.9573,-0.3114,-0.4041,-0.4649,
0.770444,-0.3897,-0.9547,0.9573,-0.3114,-0.4041,-0.4649,
0.771509,-1.6083,1.0367,1.8206,-0.3114,-0.4041,-0.4649,
0.786618,-1.6083,1.0367,1.8206,-0.3114,-0.4041,-0.4649,
0.815011,-1.6083,1.0367,1.8206,-0.3490,0.2291,-0.7663,
0.852111,-1.6083,1.0367,1.8206,-0.3490,0.2291,-0.7663,
0.853537,0.0274,2.1102,1.3248,-0.3490,0.2291,-0.7663,
0.880376,0.0274,2.1102,1.3248,-0.0681,-0.0832,-0.2698,
0.916896,0.0274,2.1102,1.3248,-0.0681,-0.0832,-0.2698,
0.918606,0.1187,0.3717,1.6447,-0.0681,-0.0832,-0.2698,
0.945940,0.1187,0.3717,1.6447,0.1032,-0.3951,-0.1385,
0.983530,0.1187,0.3717,1.6447,0.1032,-0.3951,-0.1385,
0.984997,-0.2905,-0.7200,0.8704,0.1032,-0.3951,-0.1385,
1.011392,-0.2905,-0.7200,0.8704,-0.0593,-0.4429,-0.2798,
1.048376,-0.2905,-0.7200,0.8704,-0.0593,-0.4429,-0.2798,
1.049892,1.1090,-1.1110,1.5678,-0.0593,-0.4429,-0.2798,
1.076984,1.1090,-1.1110,1.5678,-0.0402,-0.1729,-0.2543,
1.113851,1.1090,-1.1110,1.5678,-0.0402,-0.1729,-0.2543,
1.115020,0.0494,-0.7858,2.3196,-0.0402,-0.1729,-0.2543,
1.142671,0.0494,-0.7858,2.3196,0.0702,-0.1425,-0.2280,
1.180007,0.0494,-0.7858,2.3196,0.0702,-0.1425,-0.2280,
1.182276,-1.0999,0.0332,3.4611,0.0702,-0.1425,-0.2280,
1.208427,-1.0999,0.0332,3.4611,0.0564,-0.3421,0.3822,
1.245162,-1.0999,0.0332,3.4611,0.0564,-0.3421,0.3822,
1.246794,-1.3963,3.4041,0.9675,0.0564,-0.3421,0.3822,
1.273441,-1.3963,3.4041,0.9675,0.6067,-1.7442,0.0076,
1.310313,-1.3963,3.4041,0.9675,0.6067,-1.7442,0.0076,
1.311839,-0.8235,-2.8828,-2.9636,0.6067,-1.7442,0.0076,
1.338239,-0.8235,-2.8828,-2.9636,0.6976,-0.6125,-0.3488,
1.376051,-0.8235,-2.8828,-2.9636,0.6976,-0.6125,-0.3488,
1.377738,-0.4997,0.5909,-1.3324,0.6976,-0.6125,-0.3488,
1.404406,-0.4997,0.5909,-1.3324,0.8764,-1.0737,0.2917,
1.441371,-0.4997,0.5909,-1.3324,0.8764,-1.0737,0.2917,
1.442846,-1.4164,-0.0997,-1.0122,0.8764,-1.0737,0.2917,
1.469527,-1.4164,-0.0997,-1.0122,0.4391,-1.6351,0.2650,
1.507978,-1.4164,-0.0997,-1.0122,0.4391,-1.6351,0.2650,
1.509295,0.2310,-0.0843,-0.3910,0.4391,-1.6351,0.2650,
1.535212,0.2310,-0.0843,-0.3910,0.4375,-1.7781,0.1055,
1.571916,0.2310,-0.0843,-0.3910,0.4375,-1.7781,0.1055,
1.573200,-0.1202,0.0686,-0.5074,0.4375,-1.7781,0.1055,
1.601165,-0.1202,0.0686,-0.5074,0.2573,-1.8836,-0.0429,
1.637143,-0.1202,0.0686,-0.5074,0.2573,-1.8836,-0.0429,
1.638298,-0.0977,-0.4662,0.4241,0.2573,-1.8836,-0.0429,
1.666562,-0.0977,-0.4662,0.4241,0.1568,-1.9367,-0.0127,
1.704218,-0.0977,-0.4662,0.4241,0.1568,-1.9367,-0.0127,
1.705848,1.7995,0.4860,0.6159,0.1568,-1.9367,-0.0127,
1.732319,1.7995,0.4860,0.6159,-0.0754,-1.6009,0.3118,
1.768970,1.7995,0.4860,0.6159,-0.0754,-1.6009,0.3118,
1.770559,4.1414,2.1139,-0.5273,-0.0754,-1.6009,0.3118,
1.798927,4.1414,2.1139,-0.5273,-0.2372,-0.5744,0.9081,
1.834536,4.1414,2.1139,-0.5273,-0.2372,-0.5744,0.9081,
1.835962,-3.5773,1.2000,-1.6284,-0.2372,-0.5744,0.9081,
1.862320,-3.5773,1.2000,-1.6284,-2.2416,-1.7257,0.1785,
1.899519,-3.5773,1.2000,-1.6284,-2.2416,-1.7257,0.1785,
1.901090,-2.2673,-0.1418,-0.9778,-2.2416,-1.7257,0.1785,
1.927677,-2.2673,-0.1418,-0.9778,-1.2526,-1.0444,-0.4308,
1.966149,-2.2673,-0.1418,-0.9778,-1.2526,-1.0444,-0.4308,
1.967234,0.4098,0.2547,0.8018,-1.2526,-1.0444,-0.4308,
1.993872,0.4098,0.2547,0.8018,-1.2562,-0.8879,-0.1173,
2.030689,0.4098,0.2547,0.8018,-1.2562,-0.8879,-0.1173,
2.032292,-0.2053,-3.7307,-0.0756,-1.2562,-0.8879,-0.1173,
2.058799,-0.2053,-3.7307,-0.0756,-0.2312,-0.2078,-0.0105,
2.095968,-0.2053,-3.7307,-0.0756,-0.2312,-0.2078,-0.0105,
2.097502,-0.2823,-2.1236,1.2239,-0.2312,-0.2078,-0.0105,
2.124739,-0.2823,-2.1236,1.2239,0.0560,0.1542,-0.1886,
2.161779,-0.2823,-2.1236,1.2239,0.0560,0.1542,-0.1886,
2.162889,0.6574,-1.1623,2.0618,0.0560,0.1542,-0.1886,
2.190661,0.6574,-1.1623,2.0618,0.4652,0.6655,-0.1839,
2.226805,0.6574,-1.1623,2.0618,0.4652,0.6655,-0.1839,
2.227668,0.4473,1.4067,3.9148,0.4652,0.6655,-0.1839,
2.255095,0.4473,1.4067,3.9148,0.6380,0.8712,-0.2346,
2.292278,0.4473,1.4067,3.9148,0.6380,0.8712,-0.2346,
2.293193,-0.3149,2.4273,4.9688,0.6380,0.8712,-0.2346,
2.320319,-0.3149,2.4273,4.9688,-0.1278,0.6889,0.0214,
2.358451,-0.3149,2.4273,4.9688,-0.1278,0.6889,0.0214,
2.359769,-2.0311,3.0838,-0.7481,-0.1278,0.6889,0.0214,
2.386978,-2.0311,3.0838,-0.7481,0.3415,-1.9907,-0.6976,
2.424841,-2.0311,3.0838,-0.7481,0.3415,-1.9907,-0.6976,
2.425999,-1.9790,-3.6281,-2.5575,0.3415,-1.9907,-0.6976,
2.451649,-1.9790,-3.6281,-2.5575,0.2773,0.0585,-0.0501,
2.489604,-1.9790,-3.6281,-2.5575,0.2773,0.0585,-0.0501,
2.490771,0.8785,-0.0939,-1.9871,0.2773,0.0585,-0.0501,
2.517196,0.8785,-0.0939,-1.9871,0.6712,-0.7766,-0.2072,
2.553797,0.8785,-0.0939,-1.9871,0.6712,-0.7766,-0.2072,
2.554986,-0.7102,-1.1566,-0.4944,0.6712,-0.7766,-0.2072,
2.582764,-0.7102,-1.1566,-0.4944,0.6413,-1.4067,0.3464,
2.619601,-0.7102,-1.1566,-0.4944,0.6413,-1.4067,0.3464,
2.620910,1.1844,-1.1987,0.5830,0.6413,-1.4067,0.3464,
2.649921,1.1844,-1.1987,0.5830,0.5764,-1.1156,0.1781,
2.685729,1.1844,-1.1987,0.5830,0.5764,-1.1156,0.1781,
2.687090,1.4872,-0.8432,0.8076,0.5764,-1.1156,0.1781,
2.713658,1.4872,-0.8432,0.8076,0.5993,-0.9511,-0.0021,
2.750870,1.4872,-0.8432,0.8076,0.5993,-0.9511,-0.0021,
2.752082,3.5359,2.1157,0.9630,0.5993,-0.9511,-0.0021,
2.778622,3.5359,2.1157,0.9630,0.7120,0.1368,0.1458,
2.816712,3.5359,2.1157,0.9630,0.7120,0.1368,0.1458,
2.817855,3.0482,6.6071,0.6468,0.7120,0.1368,0.1458,
2.844777,3.0482,6.6071,0.6468,-1.0394,0.2309,0.4707,
2.885137,3.0482,6.6071,0.6468,-1.0394,0.2309,0.4707,
2.886463,-1.9559,-2.6305,-0.5422,-1.0394,0.2309,0.4707,
2.909805,-1.9559,-2.6305,-0.5422,-1.1900,1.5689,0.0527,
2.946947,-1.9559,-2.6305,-0.5422,-1.1900,1.5689,0.0527,
2.948142,-2.1638,3.3198,1.5349,-1.1900,1.5689,0.0527,
2.975433,-2.1638,3.3198,1.5349,-1.3912,-0.6373,-0.1072,
3.012280,-2.1638,3.3198,1.5349,-1.3912,-0.6373,-0.1072,
3.013641,-0.7660,-3.0128,-0.5340,-1.3912,-0.6373,-0.1072,
3.041096,-0.7660,-3.0128,-0.5340,-0.7795,0.3381,0.1593,
3.079694,-0.7660,-3.0128,-0.5340,-0.7795,0.3381,0.1593,
3.081169,1.3888,-4.0192,0.3651,-0.7795,0.3381,0.1593,
3.107217,1.3888,-4.0192,0.3651,0.3401,1.5243,-0.2944,
3.143896,1.3888,-4.0192,0.3651,0.3401,1.5243,-0.2944,
3.145016,1.4856,-0.2941,3.2399,0.3401,1.5243,-0.2944,
3.172800,1.4856,-0.2941,3.2399,-0.3337,1.2094,0.3580,
3.209374,1.4856,-0.2941,3.2399,-0.3337,1.2094,0.3580,
3.210941,-0.0995,1.6739,0.5459,-0.3337,1.2094,0.3580,
3.237346,-0.0995,1.6739,0.5459,-1.5178,0.4473,-0.1622,
3.274827,-0.0995,1.6739,0.5459,-1.5178,0.4473,-0.1622,
3.276108,-5.4571,0.6046,-4.5474,-1.5178,0.4473,-0.1622,
3.302842,-5.4571,0.6046,-4.5474,0.2720,0.0947,-0.3960,
3.339999,-5.4571,0.6046,-4.5474,0.2720,0.0947,-0.3960,
3.341594,2.4279,4.4032,-4.5363,0.2720,0.0947,-0.3960,
3.368681,2.4279,4.4032,-4.5363,1.5044,-0.7074,-0.1081,
3.405997,2.4279,4.4032,-4.5363,1.5044,-0.7074,-0.1081,
3.407630,-3.1290,-3.7044,-0.4549,1.5044,-0.7074,-0.1081,
3.433490,-3.1290,-3.7044,-0.4549,0.9226,-1.4581,0.1578,
3.471220,-3.1290,-3.7044,-0.4549,0.9226,-1.4581,0.1578,
3.473155,1.6591,-2.1148,-1.2121,0.9226,-1.4581,0.1578,
3.500257,1.6591,-2.1148,-1.2121,0.7361,-1.2257,-0.2810,
3.537201,1.6591,-2.1148,-1.2121,0.7361,-1.2257,-0.2810,
3.539156,2.4199,-0.8109,0.9966,0.7361,-1.2257,-0.2810,
3.565210,2.4199,-0.8109,0.9966,0.5353,-0.9661,-0.1475,
3.601386,2.4199,-0.8109,0.9966,0.5353,-0.9661,-0.1475,
3.602439,3.2485,0.5344,1.1406,0.5353,-0.9661,-0.1475,
3.630417,3.2485,0.5344,1.1406,0.0217,-0.6351,-0.1889,
3.667608,3.2485,0.5344,1.1406,0.0217,-0.6351,-0.1889,
3.669393,6.5543,1.3367,-0.5570,0.0217,-0.6351,-0.1889,
3.695551,6.5543,1.3367,-0.5570,0.0452,1.4361,0.7248,
3.732952,6.5543,1.3367,-0.5570,0.0452,1.4361,0.7248,
3.734537,-2.6023,3.8515,-3.8334,0.0452,1.4361,0.7248,
3.761292,-2.6023,3.8515,-3.8334,-1.7164,0.9198,0.1341,
3.798428,-2.6023,3.8515,-3.8334,-1.7164,0.9198,0.1341,
3.800008,-6.1166,2.8164,1.1388,-1.7164,0.9198,0.1341,
3.826824,-6.1166,2.8164,1.1388,-1.2020,-0.9807,0.4491,
3.864957,-6.1166,2.8164,1.1388,-1.2020,-0.9807,0.4491,
3.866494,1.3943,-1.6384,-1.6782,-1.2020,-0.9807,0.4491,
3.892494,1.3943,-1.6384,-1.6782,-1.0472,1.1202,-0.3425,
3.930332,1.3943,-1.6384,-1.6782,-1.0472,1.1202,-0.3425,
3.931879,-0.1527,-4.6432,-0.9924,-1.0472,1.1202,-0.3425,
3.958209,-0.1527,-4.6432,-0.9924,-0.4612,1.8966,0.2471,
3.995640,-0.1527,-4.6432,-0.9924,-0.4612,1.8966,0.2471,
3.997788,0.3086,-3.3921,0.1155,-0.4612,1.8966,0.2471,
4.023912,0.3086,-3.3921,0.1155,0.7074,1.8263,0.1819,
4.061391,0.3086,-3.3921,0.1155,0.7074,1.8263,0.1819,
4.062954,0.1792,-2.3178,1.3581,0.7074,1.8263,0.1819,
4.089061,0.1792,-2.3178,1.3581,0.3737,1.8999,0.1747,
4.126931,0.1792,-2.3178,1.3581,0.3737,1.8999,0.1747,
4.128877,-2.1562,6.7831,3.4792,0.3737,1.8999,0.1747,
4.154676,-2.1562,6.7831,3.4792,-0.6080,1.2042,0.2497,
4.192654,-2.1562,6.7831,3.4792,-0.6080,1.2042,0.2497,
4.194860,-2.1453,5.2654,0.7308,-0.6080,1.2042,0.2497,
4.220073,-2.1453,5.2654,0.7308,-0.1211,-1.2361,-0.6718,
4.257176,-2.1453,5.2654,0.7308,-0.1211,-1.2361,-0.6718,
4.258944,-0.6187,-4.2990,-3.3332,-0.1211,-1.2361,-0.6718,
4.284774,-0.6187,-4.2990,-3.3332,1.1295,0.6034,0.1309,
4.323310,-0.6187,-4.2990,-3.3332,1.1295,0.6034,0.1309,
4.325876,1.2887,2.9814,-3.2825,1.1295,0.6034,0.1309,
4.351785,1.2887,2.9814,-3.2825,0.8076,-0.4844,-0.3728,
4.388345,1.2887,2.9814,-3.2825,0.8076,-0.4844,-0.3728,
4.389634,-0.7837,-3.3192,-1.6722,0.8076,-0.4844,-0.3728,
4.416195,-0.7837,-3.3192,-1.6722,0.9520,-0.9609,-0.0005,
4.453873,-0.7837,-3.3192,-1.6722,0.9520,-0.9609,-0.0005,
4.455894,1.4808,-1.9689,-0.1696,0.9520,-0.9609,-0.0005,
4.481646,1.4808,-1.9689,-0.1696,0.8616,-1.2309,-0.2309,
4.519431,1.4808,-1.9689,-0.1696,0.8616,-1.2309,-0.2309,
4.520973,1.8198,-0.9185,0.5023,0.8616,-1.2309,-0.2309,
4.548360,1.8198,-0.9185,0.5023,0.5548,-0.9620,-0.2815,
4.584050,1.8198,-0.9185,0.5023,0.5548,-0.9620,-0.2815,
4.584954,1.7340,1.8989,2.2502,0.5548,-0.9620,-0.2815,
4.613014,1.7340,1.8989,2.2502,0.0527,-0.8167,-0.2013,
4.650052,1.7340,1.8989,2.2502,0.0527,-0.8167,-0.2013,
4.651541,6.2326,2.4127,0.9804,0.0527,-0.8167,-0.2013,
4.677839,6.2326,2.4127,0.9804,-0.0735,0.9978,0.8131,
4.716178,6.2326,2.4127,0.9804,-0.0735,0.9978,0.8131,
4.717916,-0.6681,1.7369,-2.9343,-0.0735,0.9978,0.8131,
4.743493,-0.6681,1.7369,-2.9343,-1.6913,0.8494,0.6019,
4.781326,-0.6681,1.7369,-2.9343,-1.6913,0.8494,0.6019,
4.783141,-2.1592,1.4734,0.5492,-1.6913,0.8494,0.6019,
4.809923,-2.1592,1.4734,0.5492,-1.1260,-0.0276,0.5015,
4.847789,-2.1592,1.4734,0.5492,-1.1260,-0.0276,0.5015,
4.848992,2.0330,-1.2503,-1.7745,-1.1260,-0.0276,0.5015,
4.875469,2.0330,-1.2503,-1.7745,-0.6874,2.1701,-0.3019,
4.912254,2.0330,-1.2503,-1.7745,-0.6874,2.1701,-0.3019,
4.914090,-0.4110,-2.2213,-0.9974,-0.6874,2.1701,-0.3019,
4.940292,-0.4110,-2.2213,-0.9974,-0.3082,2.3870,0.0712,
4.977297,-0.4110,-2.2213,-0.9974,-0.3082,2.3870,0.0712,
4.978840,-0.3440,-3.8642,-0.8637,-0.3082,2.3870,0.0712,
5.006872,-0.3440,-3.8642,-0.8637,0.3265,2.2981,0.1232,
5.043691,-0.3440,-3.8642,-0.8637,0.3265,2.2981,0.1232,
5.045405,1.3067,-1.9967,0.2516,0.3265,2.2981,0.1232,
5.070996,1.3067,-1.9967,0.2516,0.4908,2.1959,0.1145,
5.110442,1.3067,-1.9967,0.2516,0.4908,2.1959,0.1145,
5.113026,-1.5447,5.6566,3.4936,0.4908,2.1959,0.1145,
5.136338,-1.5447,5.6566,3.4936,-1.4997,1.4963,0.2482,
5.176806,-1.5447,5.6566,3.4936,-1.4997,1.4963,0.2482,
5.179020,-2.9451,5.8490,-3.1758,-1.4997,1.4963,0.2482,
5.202625,-2.9451,5.8490,-3.1758,0.0467,0.2972,-0.6448,
5.239860,-2.9451,5.8490,-3.1758,0.0467,0.2972,-0.6448,
5.240864,4.3377,0.1062,-4.4142,0.0467,0.2972,-0.6448,
5.267255,4.3377,0.1062,-4.4142,2.0400,0.8806,1.0069,
5.304822,4.3377,0.1062,-4.4142,2.0400,0.8806,1.0069,
5.305502,-3.9620,-0.0916,-0.5751,2.0400,0.8806,1.0069,
5.332869,-3.9620,-0.0916,-0.5751,0.9639,-0.2231,-0.0741,
5.370373,-3.9620,-0.0916,-0.5751,0.9639,-0.2231,-0.0741,
5.371195,0.7188,-1.6156,-2.4288,0.9639,-0.2231,-0.0741,
5.398493,0.7188,-1.6156,-2.4288,0.8499,-0.6350,-0.3552,
5.435719,0.7188,-1.6156,-2.4288,0.8499,-0.6350,-0.3552,
5.437169,1.5111,-2.8914,0.3272,0.8499,-0.6350,-0.3552,
5.463455,1.5111,-2.8914,0.3272,0.4375,-0.5837,-0.3713,
5.501845,1.5111,-2.8914,0.3272,0.4375,-0.5837,-0.3713,
5.503113,2.3877,0.2323,0.8143,0.4375,-0.5837,-0.3713,
5.528939,2.3877,0.2323,0.8143,0.2877,-0.5736,-0.1170,
5.566604,2.3877,0.2323,0.8143,0.2877,-0.5736,-0.1170,
5.567812,4.3993,2.8582,1.2003,0.2877,-0.5736,-0.1170,
5.595045,4.3993,2.8582,1.2003,-0.2036,-0.4328,0.0441,
5.632231,4.3993,2.8582,1.2003,-0.2036,-0.4328,0.0441,
5.633963,4.2802,1.3594,-2.8356,-0.2036,-0.4328,0.0441,
5.660742,4.2802,1.3594,-2.8356,-0.9223,1.0595,1.0443,
5.698055,4.2802,1.3594,-2.8356,-0.9223,1.0595,1.0443,
5.699771,-0.4837,4.3141,-2.0838,-0.9223,1.0595,1.0443,
5.726329,-0.4837,4.3141,-2.0838,-1.2506,0.7430,0.6388,
5.763457,-0.4837,4.3141,-2.0838,-1.2506,0.7430,0.6388,
5.764419,2.0656,-1.6146,-2.0578,-1.2506,0.7430,0.6388,
5.793061,2.0656,-1.6146,-2.0578,-0.8757,3.0137,-0.0673,
5.829921,2.0656,-1.6146,-2.0578,-0.8757,3.0137,-0.0673,
5.831601,1.0712,-2.1745,-1.8812,-0.8757,3.0137,-0.0673,
5.857621,1.0712,-2.1745,-1.8812,-0.5565,3.3208,0.2150,
5.893419,1.0712,-2.1745,-1.8812,-0.5565,3.3208,0.2150,
5.895128,-0.6594,-1.4740,-1.6229,-0.5565,3.3208,0.2150,
5.921932,-0.6594,-1.4740,-1.6229,-0.1031,2.6846,0.5612,
5.959476,-0.6594,-1.4740,-1.6229,-0.1031,2.6846,0.5612,
5.961401,-0.2289,-5.0922,-1.0355,-0.1031,2.6846,0.5612,
5.987271,-0.2289,-5.0922,-1.0355,0.6869,2.3358,0.1017,
6.025217,-0.2289,-5.0922,-1.0355,0.6869,2.3358,0.1017,
6.026965,-1.0911,3.5887,1.7528,0.6869,2.3358,0.1017,
6.052896,-1.0911,3.5887,1.7528,-0.2703,1.7799,-0.0163,
6.090838,-1.0911,3.5887,1.7528,-0.2703,1.7799,-0.0163,
6.092958,0.4302,-1.0068,2.5343,-0.2703,1.7799,-0.0163,
6.119052,0.4302,-1.0068,2.5343,-2.0872,1.0909,0.1104,
6.155220,0.4302,-1.0068,2.5343,-2.0872,1.0909,0.1104,
6.156207,0.3791,7.0694,-5.9832,-2.0872,1.0909,0.1104,
6.183327,0.3791,7.0694,-5.9832,1.0832,1.0621,0.3682,
6.220404,0.3791,7.0694,-5.9832,1.0832,1.0621,0.3682,
6.221594,3.8710,-0.0634,-4.5233,1.0832,1.0621,0.3682,
6.248756,3.8710,-0.0634,-4.5233,2.0640,0.0417,-0.5147,
6.285986,3.8710,-0.0634,-4.5233,2.0640,0.0417,-0.5147,
6.286941,-4.6456,-0.6847,2.2330,2.0640,0.0417,-0.5147,
6.314076,-4.6456,-0.6847,2.2330,1.0345,-1.3932,0.4371,
6.351509,-4.6456,-0.6847,2.2330,1.0345,-1.3932,0.4371,
6.353693,3.4925,-4.6903,0.0076,1.0345,-1.3932,0.4371,
6.380177,3.4925,-4.6903,0.0076,0.7176,-1.2617,0.1449,
6.417194,3.4925,-4.6903,0.0076,0.7176,-1.2617,0.1449,
6.418628,1.7961,-2.9631,0.1717,0.7176,-1.2617,0.1449,
6.445737,1.7961,-2.9631,0.1717,0.6761,-0.8352,0.0180,
6.482856,1.7961,-2.9631,0.1717,0.6761,-0.8352,0.0180,
6.484434,2.5386,-0.1314,1.1787,0.6761,-0.8352,0.0180,
6.511300,2.5386,-0.1314,1.1787,0.5680,-0.8685,-0.3094,
6.548303,2.5386,-0.1314,1.1787,0.5680,-0.8685,-0.3094,
6.550123,6.0617,2.2603,1.2024,0.5680,-0.8685,-0.3094,
6.576691,6.0617,2.2603,1.2024,0.1761,0.0971,0.2158,
6.614053,6.0617,2.2603,1.2024,0.1761,0.0971,0.2158,
6.615967,3.0859,4.4003,-1.4858,0.1761,0.0971,0.2158,
6.641967,3.0859,4.4003,-1.4858,-0.4465,1.0533,1.3237,
6.679253,3.0859,4.4003,-1.4858,-0.4465,1.0533,1.3237,
6.681269,-1.8583,3.6158,-3.1132,-0.4465,1.0533,1.3237,
6.708210,-1.8583,3.6158,-3.1132,-1.7436,0.0623,0.2002,
6.744926,-1.8583,3.6158,-3.1132,-1.7436,0.0623,0.2002,
6.746460,-1.8328,-0.2703,-1.2064,-1.7436,0.0623,0.2002,
6.773452,-1.8328,-0.2703,-1.2064,-1.5627,1.4740,0.1423,
6.810734,-1.8328,-0.2703,-1.2064,-1.5627,1.4740,0.1423,
6.812870,2.0649,-2.0659,-0.8367,-1.5627,1.4740,0.1423,
6.839909,2.0649,-2.0659,-0.8367,-0.9475,1.8593,0.2320,
6.875576,2.0649,-2.0659,-0.8367,-0.9475,1.8593,0.2320,
6.876759,-1.2228,-1.8784,-0.0016,-0.9475,1.8593,0.2320,
6.904782,-1.2228,-1.8784,-0.0016,-0.2660,1.3581,0.4013,
6.941407,-1.2228,-1.8784,-0.0016,-0.2660,1.3581,0.4013,
6.943072,0.1276,-4.8122,-0.3900,-0.2660,1.3581,0.4013,
6.969544,0.1276,-4.8122,-0.3900,0.5780,1.7947,-0.1521,
7.007601,0.1276,-4.8122,-0.3900,0.5780,1.7947,-0.1521,
7.009438,1.4025,1.0676,1.4969,0.5780,1.7947,-0.1521,
7.035394,1.4025,1.0676,1.4969,-0.0180,1.8442,0.1011,
7.072049,1.4025,1.0676,1.4969,-0.0180,1.8442,0.1011,
7.073743,-1.6562,2.0586,2.7555,-0.0180,1.8442,0.1011,
7.101208,-1.6562,2.0586,2.7555,-1.1078,0.4626,0.0418,
7.138700,-1.6562,2.0586,2.7555,-1.1078,0.4626,0.0418,
7.141082,-2.5296,1.4044,-4.2310,-1.1078,0.4626,0.0418,
7.166170,-2.5296,1.4044,-4.2310,0.5985,0.3867,-0.0052,
7.202863,-2.5296,1.4044,-4.2310,0.5985,0.3867,-0.0052,
7.203918,3.5036,2.4805,-4.7880,0.5985,0.3867,-0.0052,
7.231786,3.5036,2.4805,-4.7880,1.4966,-0.0379,0.0560,
7.269072,3.5036,2.4805,-4.7880,1.4966,-0.0379,0.0560,
7.270715,-4.2836,-1.7184,-0.4285,1.4966,-0.0379,0.0560,
7.297185,-4.2836,-1.7184,-0.4285,1.0076,-0.9684,0.2169,
7.334631,-4.2836,-1.7184,-0.4285,1.0076,-0.9684,0.2169,
7.336302,2.2035,-2.9667,-0.8784,1.0076,-0.9684,0.2169,
7.362470,2.2035,-2.9667,-0.8784,0.8807,-1.2405,0.1388,
7.399356,2.2035,-2.9667,-0.8784,0.8807,-1.2405,0.1388,
7.401489,1.7906,-1.5894,0.0998,0.8807,-1.2405,0.1388,
7.428256,1.7906,-1.5894,0.0998,0.7372,-0.8928,-0.1778,
7.465921,1.7906,-1.5894,0.0998,0.7372,-0.8928,-0.1778,
7.467493,2.1909,-0.8392,1.0822,0.7372,-0.8928,-0.1778,
7.495618,2.1909,-0.8392,1.0822,0.5243,-0.7037,-0.3442,
7.531162,2.1909,-0.8392,1.0822,0.5243,-0.7037,-0.3442,
7.532838,3.5104,2.4454,1.6459,0.5243,-0.7037,-0.3442,
7.559718,3.5104,2.4454,1.6459,0.1164,-0.4898,0.0562,
7.597656,3.5104,2.4454,1.6459,0.1164,-0.4898,0.0562,
7.598544,3.6887,2.4322,-0.4225,0.1164,-0.4898,0.0562,
7.625678,3.6887,2.4322,-0.4225,-0.3222,0.3867,1.0227,
7.661913,3.6887,2.4322,-0.4225,-0.3222,0.3867,1.0227,
7.662725,-2.1973,4.5889,-3.5017,-0.3222,0.3867,1.0227,
7.690678,-2.1973,4.5889,-3.5017,-2.1021,-0.6707,0.5005,
7.726855,-2.1973,4.5889,-3.5017,-2.1021,-0.6707,0.5005,
7.727532,-2.4840,0.7053,-1.0921,-2.1021,-0.6707,0.5005,
7.754862,-2.4840,0.7053,-1.0921,-1.3216,0.3253,0.2219,
7.793515,-2.4840,0.7053,-1.0921,-1.3216,0.3253,0.2219,
7.794125,0.8432,-1.2707,-0.8777,-1.3216,0.3253,0.2219,
7.820119,0.8432,-1.2707,-0.8777,-1.0095,1.5886,-0.1289,
7.857761,0.8432,-1.2707,-0.8777,-1.0095,1.5886,-0.1289,
7.858688,-0.3467,-3.3071,-1.0228,-1.0095,1.5886,-0.1289,
7.886752,-0.3467,-3.3071,-1.0228,-0.3781,1.5968,0.3357,
7.924425,-0.3467,-3.3071,-1.0228,-0.3781,1.5968,0.3357,
7.925209,-0.7229,-4.4001,-0.2706,-0.3781,1.5968,0.3357,
7.952278,-0.7229,-4.4001,-0.2706,0.6669,1.4074,0.0417,
7.989742,-0.7229,-4.4001,-0.2706,0.6669,1.4074,0.0417,
7.990721,0.9590,-2.8381,1.1577,0.6669,1.4074,0.0417,
8.017088,0.9590,-2.8381,1.1577,0.6889,2.1099,-0.2550,
8.055151,0.9590,-2.8381,1.1577,0.6889,2.1099,-0.2550,
8.056366,-0.3011,4.9772,3.9260,0.6889,2.1099,-0.2550,
8.083556,-0.3011,4.9772,3.9260,-0.5953,1.2485,0.2268,
8.119654,-0.3011,4.9772,3.9260,-0.5953,1.2485,0.2268,
8.121025,-1.9031,2.8994,-0.4002,-0.5953,1.2485,0.2268,
8.148410,-1.9031,2.8994,-0.4002,-0.4320,-0.1953,-0.7943,
8.186031,-1.9031,2.8994,-0.4002,-0.4320,-0.1953,-0.7943,
8.187222,-1.1082,-1.2630,-2.4606,-0.4320,-0.1953,-0.7943,
8.214373,-1.1082,-1.2630,-2.4606,1.1301,-0.0686,0.4664,
8.250854,-1.1082,-1.2630,-2.4606,1.1301,-0.0686,0.4664,
8.252645,0.7767,2.3242,-2.9177,1.1301,-0.0686,0.4664,
8.279715,0.7767,2.3242,-2.9177,1.0591,-0.9844,-0.1671,
8.316871,0.7767,2.3242,-2.9177,1.0591,-0.9844,-0.1671,
8.319361,-0.9270,-2.3878,-2.5766,1.0591,-0.9844,-0.1671,
8.346121,-0.9270,-2.3878,-2.5766,0.8581,-1.4413,0.0099,
8.381359,-0.9270,-2.3878,-2.5766,0.8581,-1.4413,0.0099,
8.383027,1.4781,-2.4213,-0.4847,0.8581,-1.4413,0.0099,
8.410475,1.4781,-2.4213,-0.4847,0.5551,-1.6652,0.0467,
8.447180,1.4781,-2.4213,-0.4847,0.5551,-1.6652,0.0467,
8.448448,3.1411,-1.4971,0.8370,0.5551,-1.6652,0.0467,
8.476731,3.1411,-1.4971,0.8370,0.5169,-0.8358,-0.3112,
8.514051,3.1411,-1.4971,0.8370,0.5169,-0.8358,-0.3112,
8.515776,2.7654,1.2336,2.2790,0.5169,-0.8358,-0.3112,
8.542136,2.7654,1.2336,2.2790,0.1156,-0.4140,-0.3387,
8.578304,2.7654,1.2336,2.2790,0.1156,-0.4140,-0.3387,
8.579863,3.8759,1.5982,0.8612,0.1156,-0.4140,-0.3387,
8.606657,3.8759,1.5982,0.8612,-0.2414,0.5883,0.6003,
8.643364,3.8759,1.5982,0.8612,-0.2414,0.5883,0.6003,
8.645095,-0.2687,3.9015,-3.6658,-0.2414,0.5883,0.6003,
8.672185,-0.2687,3.9015,-3.6658,-1.5663,-0.1486,0.7471,
8.709799,-0.2687,3.9015,-3.6658,-1.5663,-0.1486,0.7471,
8.711610,-1.6547,2.1097,-0.1797,-1.5663,-0.1486,0.7471,
8.737745,-1.6547,2.1097,-0.1797,-1.1173,0.4401,0.4050,
8.775579,-1.6547,2.1097,-0.1797,-1.1173,0.4401,0.4050,
8.777654,0.9216,-1.0222,-1.6519,-1.1173,0.4401,0.4050,
8.803673,0.9216,-1.0222,-1.6519,-0.8265,2.4590,-0.0118,
8.841901,0.9216,-1.0222,-1.6519,-0.8265,2.4590,-0.0118,
8.843487,-0.9763,-2.8360,-1.6089,-0.8265,2.4590,-0.0118,
8.869392,-0.9763,-2.8360,-1.6089,-0.5098,2.3960,0.6153,
8.907713,-0.9763,-2.8360,-1.6089,-0.5098,2.3960,0.6153,
8.909496,-1.3385,-2.6943,-0.8319,-0.5098,2.3960,0.6153,
8.935676,-1.3385,-2.6943,-0.8319,0.3913,2.3818,0.3031,
8.972139,-1.3385,-2.6943,-0.8319,0.3913,2.3818,0.3031,
8.974047,2.7472,-2.9448,0.0629,0.3913,2.3818,0.3031,
9.001405,2.7472,-2.9448,0.0629,0.7598,3.0516,-0.5537,
9.036794,2.7472,-2.9448,0.0629,0.7598,3.0516,-0.5537,
9.038105,0.0762,2.9301,2.0247,0.7598,3.0516,-0.5537,
9.065959,0.0762,2.9301,2.0247,-0.2062,2.0088,0.0651,
9.102364,0.0762,2.9301,2.0247,-0.2062,2.0088,0.0651,
9.103473,-0.6988,-1.1036,-0.5558,-0.2062,2.0088,0.0651,
9.131217,-0.6988,-1.1036,-0.5558,-0.4675,-0.3607,-0.4914,
9.167691,-0.6988,-1.1036,-0.5558,-0.4675,-0.3607,-0.4914,
9.169629,-0.4698,4.8359,-2.8572,-0.4675,-0.3607,-0.4914,
9.197544,-0.4698,4.8359,-2.8572,0.3276,0.1408,0.5562,
9.233398,-0.4698,4.8359,-2.8572,0.3276,0.1408,0.5562,
9.235006,3.0176,-3.4746,-3.2853,0.3276,0.1408,0.5562,
9.262706,3.0176,-3.4746,-3.2853,1.1153,0.3123,0.1045,
9.297805,3.0176,-3.4746,-3.2853,1.1153,0.3123,0.1045,
9.299146,0.9334,-0.5117,-1.6321,1.1153,0.3123,0.1045,
9.326389,0.9334,-0.5117,-1.6321,0.7790,-0.7437,0.1767,
9.363636,0.9334,-0.5117,-1.6321,0.7790,-0.7437,0.1767,
9.365447,-0.3424,-3.1039,-0.1587,0.7790,-0.7437,0.1767,
9.391857,-0.3424,-3.1039,-0.1587,0.7860,-0.7760,0.1017,
9.429273,-0.3424,-3.1039,-0.1587,0.7860,-0.7760,0.1017,
9.431020,0.2810,-1.5232,-0.2682,0.7860,-0.7760,0.1017,
9.457695,0.2810,-1.5232,-0.2682,0.8546,-1.0472,-0.2587,
9.495167,0.2810,-1.5232,-0.2682,0.8546,-1.0472,-0.2587,
9.496886,3.3386,2.3506,1.5288,0.8546,-1.0472,-0.2587,
9.523619,3.3386,2.3506,1.5288,0.3615,-0.9071,-0.2202,
9.560738,3.3386,2.3506,1.5288,0.3615,-0.9071,-0.2202,
9.561358,5.5677,1.3305,1.7958,0.3615,-0.9071,-0.2202,
9.588439,5.5677,1.3305,1.7958,-0.1904,-0.3314,0.1885,
9.627095,5.5677,1.3305,1.7958,-0.1904,-0.3314,0.1885,
9.627743,-0.3691,1.4512,-3.4650,-0.1904,-0.3314,0.1885,
9.653819,-0.3691,1.4512,-3.4650,-1.1533,0.1965,1.1112,
9.692151,-0.3691,1.4512,-3.4650,-1.1533,0.1965,1.1112,
9.692817,-3.7785,4.2888,-0.3469,-1.1533,0.1965,1.1112,
9.720285,-3.7785,4.2888,-0.3469,-1.2992,-0.6866,0.5023,
9.756705,-3.7785,4.2888,-0.3469,-1.2992,-0.6866,0.5023,
9.757985,1.6956,-1.3098,-0.9739,-1.2992,-0.6866,0.5023,
9.785005,1.6956,-1.3098,-0.9739,-1.0533,1.5090,-0.1570,
9.822581,1.6956,-1.3098,-0.9739,-1.0533,1.5090,-0.1570,
9.824038,0.2282,-2.9667,-1.0586,-1.0533,1.5090,-0.1570,
9.850462,0.2282,-2.9667,-1.0586,-0.3557,2.0991,0.0783,
9.888343,0.2282,-2.9667,-1.0586,-0.3557,2.0991,0.0783,
9.889531,0.5572,-2.3022,-0.9806,-0.3557,2.0991,0.0783,
9.917982,0.5572,-2.3022,-0.9806,0.0767,2.0948,0.1735,
9.953767,0.5572,-2.3022,-0.9806,0.0767,2.0948,0.1735,
9.955640,-0.8537,-3.6414,-0.5212,0.0767,2.0948,0.1735,
9.982136,-0.8537,-3.6414,-0.5212,0.6993,1.9422,0.1904,
10.019090,-0.8537,-3.6414,-0.5212,0.6993,1.9422,0.1904,
10.021245,0.0850,1.0438,1.1139,0.6993,1.9422,0.1904,
10.047242,0.0850,1.0438,1.1139,0.1736,1.0342,0.3024,
10.086030,0.0850,1.0438,1.1139,0.1736,1.0342,0.3024,
10.087819,-0.0651,3.0702,3.9238,0.1736,1.0342,0.3024,
10.112397,-0.0651,3.0702,3.9238,-1.2228,1.4232,0.4319,
10.150475,-0.0651,3.0702,3.9238,-1.2228,1.4232,0.4319,
10.152343,-1.3429,3.9447,-3.1643,-1.2228,1.4232,0.4319,
10.178907,-1.3429,3.9447,-3.1643,0.4223,0.6506,-0.5626,
10.216095,-1.3429,3.9447,-3.1643,0.4223,0.6506,-0.5626,
10.217967,1.8231,0.0618,-2.6159,0.4223,0.6506,-0.5626,
10.243657,1.8231,0.0618,-2.6159,1.1797,0.3821,0.4304,
10.281862,1.8231,0.0618,-2.6159,1.1797,0.3821,0.4304,
10.283983,-2.9742,-0.1258,-1.2907,1.1797,0.3821,0.4304,
10.311021,-2.9742,-0.1258,-1.2907,0.8769,-0.7191,0.3438,
10.345478,-2.9742,-0.1258,-1.2907,0.8769,-0.7191,0.3438,
10.347067,0.4769,-1.8391,-1.7472,0.8769,-0.7191,0.3438,
10.374657,0.4769,-1.8391,-1.7472,0.7169,-1.3387,0.0764,
10.411769,0.4769,-1.8391,-1.7472,0.7169,-1.3387,0.0764,
10.413485,1.5478,-2.2611,-0.2882,0.7169,-1.3387,0.0764,
10.440211,1.5478,-2.2611,-0.2882,0.4620,-0.9190,-0.1168,
10.477608,1.5478,-2.2611,-0.2882,0.4620,-0.9190,-0.1168,
10.478679,2.5288,-1.7613,0.5561,0.4620,-0.9190,-0.1168,
10.505382,2.5288,-1.7613,0.5561,0.5889,-0.3702,-0.3399,
10.542222,2.5288,-1.7613,0.5561,0.5889,-0.3702,-0.3399,
10.543848,1.7210,0.8279,1.2987,0.5889,-0.3702,-0.3399,
10.571674,1.7210,0.8279,1.2987,0.4556,-0.2320,-0.1410,
10.608150,1.7210,0.8279,1.2987,0.4556,-0.2320,-0.1410,
10.609059,3.1794,2.8502,2.2120,0.4556,-0.2320,-0.1410,
10.637422,3.1794,2.8502,2.2120,0.1237,-0.3303,0.6185,
10.674025,3.1794,2.8502,2.2120,0.1237,-0.3303,0.6185,
10.675611,1.3809,2.6169,-2.8463,0.1237,-0.3303,0.6185,
10.701848,1.3809,2.6169,-2.8463,-1.1643,0.2483,0.9559,
10.739391,1.3809,2.6169,-2.8463,-1.1643,0.2483,0.9559,
10.741051,-5.4765,3.2218,1.0636,-1.1643,0.2483,0.9559,
10.767008,-5.4765,3.2218,1.0636,-1.2616,-0.5968,0.1973,
10.804433,-5.4765,3.2218,1.0636,-1.2616,-0.5968,0.1973,
10.806430,2.1022,-0.6913,-0.5607,-1.2616,-0.5968,0.1973,
10.833192,2.1022,-0.6913,-0.5607,-1.3018,0.9681,-0.3990,
10.869937,2.1022,-0.6913,-0.5607,-1.3018,0.9681,-0.3990,
10.872020,0.3505,-3.3052,-1.0380,-1.3018,0.9681,-0.3990,
10.899939,0.3505,-3.3052,-1.0380,-0.7285,1.8372,0.1098,
10.938196,0.3505,-3.3052,-1.0380,-0.7285,1.8372,0.1098,
10.940978,-0.5586,-2.5305,-0.0370,-0.7285,1.8372,0.1098,
10.965881,-0.5586,-2.5305,-0.0370,0.2929,1.5681,0.1219,
11.001978,-0.5586,-2.5305,-0.0370,0.2929,1.5681,0.1219,
11.003056,0.2076,-2.8963,1.3513,0.2929,1.5681,0.1219,
11.030526,0.2076,-2.8963,1.3513,0.3797,1.5357,0.0713,
11.067494,0.2076,-2.8963,1.3513,0.3797,1.5357,0.0713,
11.070279,0.2763,2.3750,1.8989,0.3797,1.5357,0.0713,
11.094729,0.2763,2.3750,1.8989,-0.3890,1.3757,-0.0554,
11.132362,0.2763,2.3750,1.8989,-0.3890,1.3757,-0.0554,
11.133626,-2.3503,4.4809,0.8620,-0.3890,1.3757,-0.0554,
11.160740,-2.3503,4.4809,0.8620,-0.2060,-0.5252,-0.4172,
11.199201,-2.3503,4.4809,0.8620,-0.2060,-0.5252,-0.4172,
11.200367,-1.5061,-1.9611,-3.8758,-0.2060,-0.5252,-0.4172,
11.225594,-1.5061,-1.9611,-3.8758,0.8134,0.5067,-0.1910,
11.264347,-1.5061,-1.9611,-3.8758,0.8134,0.5067,-0.1910,
11.266114,-0.1497,2.4324,-3.8279,0.8134,0.5067,-0.1910,
11.291584,-0.1497,2.4324,-3.8279,0.7854,-0.7727,-0.2271,
11.328297,-0.1497,2.4324,-3.8279,0.7854,-0.7727,-0.2271,
11.330170,-0.4442,-1.4414,-2.1811,0.7854,-0.7727,-0.2271,
11.358048,-0.4442,-1.4414,-2.1811,0.7874,-1.1539,-0.0661,
11.395315,-0.4442,-1.4414,-2.1811,0.7874,-1.1539,-0.0661,
11.395787,1.6969,-1.8614,-0.6625,0.7874,-1.1539,-0.0661,
11.422965,1.6969,-1.8614,-0.6625,0.5617,-1.2103,-0.1255,
11.459274,1.6969,-1.8614,-0.6625,0.5617,-1.2103,-0.1255,
11.459774,2.1579,-1.4819,0.1084,0.5617,-1.2103,-0.1255,
11.489081,2.1579,-1.4819,0.1084,0.4722,-1.0585,-0.2202,
11.525504,2.1579,-1.4819,0.1084,0.4722,-1.0585,-0.2202,
11.526109,2.5191,-0.0989,0.7839,0.4722,-1.0585,-0.2202,
11.553293,2.5191,-0.0989,0.7839,-0.0192,-0.7723,-0.6694,
11.590564,2.5191,-0.0989,0.7839,-0.0192,-0.7723,-0.6694,
11.591989,3.9151,0.3832,1.2370,-0.0192,-0.7723,-0.6694,
11.619551,3.9151,0.3832,1.2370,0.1255,0.4189,0.1403,
11.655161,3.9151,0.3832,1.2370,0.1255,0.4189,0.1403,
11.656908,4.9589,3.6650,-2.9924,0.1255,0.4189,0.1403,
11.684203,4.9589,3.6650,-2.9924,-0.4887,1.1159,1.2370,
11.721144,4.9589,3.6650,-2.9924,-0.4887,1.1159,1.2370,
11.723242,-4.7524,3.5618,-2.5836,-0.4887,1.1159,1.2370,
11.748801,-4.7524,3.5618,-2.5836,-1.2335,0.0470,0.6713,
11.786416,-4.7524,3.5618,-2.5836,-1.2335,0.0470,0.6713,
11.788075,2.5184,0.2277,-2.0088,-1.2335,0.0470,0.6713,
11.814753,2.5184,0.2277,-2.0088,-0.9963,1.7225,0.2269,
11.851543,2.5184,0.2277,-2.0088,-0.9963,1.7225,0.2269,
11.853492,1.2311,-1.6583,-1.1967,-0.9963,1.7225,0.2269,
11.881297,1.2311,-1.6583,-1.1967,-0.4696,2.4477,0.2738,
11.917731,1.2311,-1.6583,-1.1967,-0.4696,2.4477,0.2738,
11.920046,1.7066,-1.6834,-0.9301,-0.4696,2.4477,0.2738,
11.946330,1.7066,-1.6834,-0.9301,0.0643,3.1192,0.3564,
11.983698,1.7066,-1.6834,-0.9301,0.0643,3.1192,0.3564,
11.985509,0.3852,-1.8907,-1.4266,0.0643,3.1192,0.3564,
12.010812,0.3852,-1.8907,-1.4266,0.5226,2.8468,0.1196,
12.048171,0.3852,-1.8907,-1.4266,0.5226,2.8468,0.1196,
12.050079,-0.3354,-1.9638,-1.6780,0.5226,2.8468,0.1196,
12.076997,-0.3354,-1.9638,-1.6780,0.7285,1.8897,-0.1936,
12.114616,-0.3354,-1.9638,-1.6780,0.7285,1.8897,-0.1936,
12.116838,-1.5378,2.9012,2.1548,0.7285,1.8897,-0.1936,
12.142670,-1.5378,2.9012,2.1548,-0.7691,0.8514,0.1419,
12.181226,-1.5378,2.9012,2.1548,-0.7691,0.8514,0.1419,
12.183722,3.3836,4.9090,1.5333,-0.7691,0.8514,0.1419,
12.208248,3.3836,4.9090,1.5333,-0.0730,0.1767,0.6414,
12.245897,3.3836,4.9090,1.5333,-0.0730,0.1767,0.6414,
12.247931,-1.4702,-3.2906,-3.0117,-0.0730,0.1767,0.6414,
12.272992,-1.4702,-3.2906,-3.0117,0.4097,2.7385,-0.4107,
12.310398,-1.4702,-3.2906,-3.0117,0.4097,2.7385,-0.4107,
12.312823,-2.1097,1.5769,-2.2873,0.4097,2.7385,-0.4107,
12.338379,-2.1097,1.5769,-2.2873,1.1275,0.6280,0.3031,
12.375877,-2.1097,1.5769,-2.2873,1.1275,0.6280,0.3031,
12.377244,-0.4617,-2.5453,-1.4699,1.1275,0.6280,0.3031,
12.403989,-0.4617,-2.5453,-1.4699,1.2262,-0.7921,0.6364,
12.440966,-0.4617,-2.5453,-1.4699,1.2262,-0.7921,0.6364,
12.442978,0.1517,-0.9497,-0.6760,1.2262,-0.7921,0.6364,
12.469725,0.1517,-0.9497,-0.6760,0.8207,-1.2427,0.1787,
12.506802,0.1517,-0.9497,-0.6760,0.8207,-1.2427,0.1787,
12.508747,2.0398,-0.7521,0.0069,0.8207,-1.2427,0.1787,
12.534845,2.0398,-0.7521,0.0069,0.5962,-1.0153,-0.0121,
12.572362,2.0398,-0.7521,0.0069,0.5962,-1.0153,-0.0121,
12.574571,3.1256,0.7045,1.1405,0.5962,-1.0153,-0.0121,
12.600405,3.1256,0.7045,1.1405,0.2979,-0.7275,-0.3945,
12.637734,3.1256,0.7045,1.1405,0.2979,-0.7275,-0.3945,
12.639642,4.5867,1.7093,0.2449,0.2979,-0.7275,-0.3945,
12.666332,4.5867,1.7093,0.2449,0.0797,0.0383,0.2807,
12.703554,4.5867,1.7093,0.2449,0.0797,0.0383,0.2807,
12.705314,1.4726,3.1242,-0.2266,0.0797,0.0383,0.2807,
12.732309,1.4726,3.1242,-0.2266,-0.5825,0.1504,0.8198,
12.768852,1.4726,3.1242,-0.2266,-0.5825,0.1504,0.8198,
12.770832,-1.8729,-0.0316,-3.6771,-0.5825,0.1504,0.8198,
12.797233,-1.8729,-0.0316,-3.6771,-1.3526,0.1785,0.5313,
12.834338,-1.8729,-0.0316,-3.6771,-1.3526,0.1785,0.5313,
12.836164,-1.2166,1.8933,-0.9260,-1.3526,0.1785,0.5313,
12.862589,-1.2166,1.8933,-0.9260,-1.1761,0.3155,-0.1501,
12.900467,-1.2166,1.8933,-0.9260,-1.1761,0.3155,-0.1501,
12.902707,0.1968,-2.1148,-0.0515,-1.1761,0.3155,-0.1501,
12.928061,0.1968,-2.1148,-0.0515,-0.7760,1.1237,0.0536,
12.965023,0.1968,-2.1148,-0.0515,-0.7760,1.1237,0.0536,
12.966845,0.2312,-2.7828,-0.2334,-0.7760,1.1237,0.0536,
12.994791,0.2312,-2.7828,-0.2334,-0.1042,1.4539,0.0932,
13.032231,0.2312,-2.7828,-0.2334,-0.1042,1.4539,0.0932,
13.034448,-0.4879,-2.6834,0.0607,-0.1042,1.4539,0.0932,
13.059897,-0.4879,-2.6834,0.0607,0.4629,1.3227,0.1318,
13.096897,-0.4879,-2.6834,0.0607,0.4629,1.3227,0.1318,
13.098897,-0.4822,-0.5949,0.4458,0.4629,1.3227,0.1318,
13.125365,-0.4822,-0.5949,0.4458,0.2375,1.1044,0.0909,
13.162083,-0.4822,-0.5949,0.4458,0.2375,1.1044,0.0909,
13.165986,-0.6903,4.0312,3.6303,0.2375,1.1044,0.0909,
13.191030,-0.6903,4.0312,3.6303,-0.5973,0.4720,0.3390,
13.227079,-0.6903,4.0312,3.6303,-0.5973,0.4720,0.3390,
13.229001,-0.3696,3.6809,0.7805,-0.5973,0.4720,0.3390,
13.255356,-0.3696,3.6809,0.7805,-0.4756,-0.2543,-0.3987,
13.293086,-0.3696,3.6809,0.7805,-0.4756,-0.2543,-0.3987,
13.294612,-3.3377,-2.8501,-2.7630,-0.4756,-0.2543,-0.3987,
13.320977,-3.3377,-2.8501,-2.7630,0.8228,0.0562,-0.4775,
13.357945,-3.3377,-2.8501,-2.7630,0.8228,0.0562,-0.4775,
13.359793,-0.8427,1.4903,-2.7641,0.8228,0.0562,-0.4775,
13.386718,-0.8427,1.4903,-2.7641,0.9876,-1.1752,-0.1565,
13.423608,-0.8427,1.4903,-2.7641,0.9876,-1.1752,-0.1565,
13.425389,-0.2648,-1.2782,-1.1888,0.9876,-1.1752,-0.1565,
13.451999,-0.2648,-1.2782,-1.1888,0.8833,-1.8529,0.4505,
13.490122,-0.2648,-1.2782,-1.1888,0.8833,-1.8529,0.4505,
13.492473,1.3297,-1.8176,-0.3107,0.8833,-1.8529,0.4505,
13.517250,1.3297,-1.8176,-0.3107,0.9675,-1.5970,-0.1739,
13.554889,1.3297,-1.8176,-0.3107,0.9675,-1.5970,-0.1739,
13.556895,1.3811,-1.5550,0.1110,0.9675,-1.5970,-0.1739,
13.582504,1.3811,-1.5550,0.1110,0.5530,-1.1623,-0.4216,
13.619680,1.3811,-1.5550,0.1110,0.5530,-1.1623,-0.4216,
13.621637,1.1923,0.4209,1.4346,0.5530,-1.1623,-0.4216,
13.648298,1.1923,0.4209,1.4346,0.5470,-0.6359,-0.1746,
13.685168,1.1923,0.4209,1.4346,0.5470,-0.6359,-0.1746,
13.686745,3.2455,2.2186,1.9485,0.5470,-0.6359,-0.1746,
13.713974,3.2455,2.2186,1.9485,0.0428,-0.4670,0.6388,
13.750881,3.2455,2.2186,1.9485,0.0428,-0.4670,0.6388,
13.752681,0.8943,3.2496,-1.9968,0.0428,-0.4670,0.6388,
13.779171,0.8943,3.2496,-1.9968,-1.0557,-0.0930,0.9752,
13.816967,0.8943,3.2496,-1.9968,-1.0557,-0.0930,0.9752,
13.819052,-6.8845,3.6287,-0.6032,-1.0557,-0.0930,0.9752,
13.844495,-6.8845,3.6287,-0.6032,-1.3665,-1.4111,0.0777,
13.881453,-6.8845,3.6287,-0.6032,-1.3665,-1.4111,0.0777,
13.883114,2.1742,-0.1233,-0.5727,-1.3665,-1.4111,0.0777,
13.910138,2.1742,-0.1233,-0.5727,-1.3993,0.0107,-0.1313,
13.947712,2.1742,-0.1233,-0.5727,-1.3993,0.0107,-0.1313,
13.949433,-0.8326,-3.8747,-0.2483,-1.3993,0.0107,-0.1313,
13.975913,-0.8326,-3.8747,-0.2483,-0.5524,0.7706,-0.1055,
14.013376,-0.8326,-3.8747,-0.2483,-0.5524,0.7706,-0.1055,
14.015118,-0.0977,-3.5205,0.1781,-0.5524,0.7706,-0.1055,
14.042553,-0.0977,-3.5205,0.1781,0.4873,1.0464,-0.1081,
14.078909,-0.0977,-3.5205,0.1781,0.4873,1.0464,-0.1081,
14.080820,-0.3855,-2.3877,1.2317,0.4873,1.0464,-0.1081,
14.107274,-0.3855,-2.3877,1.2317,0.7251,1.1464,-0.0174,
14.144304,-0.3855,-2.3877,1.2317,0.7251,1.1464,-0.0174,
14.146182,-1.6195,3.7637,1.5029,0.7251,1.1464,-0.0174,
14.171559,-1.6195,3.7637,1.5029,-0.1003,0.5818,0.1048,
14.209345,-1.6195,3.7637,1.5029,-0.1003,0.5818,0.1048,
14.210915,-0.5158,-1.0290,3.2995,-0.1003,0.5818,0.1048,
14.238086,-0.5158,-1.0290,3.2995,-1.0825,0.9989,0.0515,
14.275036,-0.5158,-1.0290,3.2995,-1.0825,0.9989,0.0515,
14.277130,-3.6706,4.8266,-2.2711,-1.0825,0.9989,0.0515,
14.303130,-3.6706,4.8266,-2.2711,-0.0188,-1.0876,-0.7650,
14.340484,-3.6706,4.8266,-2.2711,-0.0188,-1.0876,-0.7650,
14.342381,1.5320,-1.3055,-4.1007,-0.0188,-1.0876,-0.7650,
14.368907,1.5320,-1.3055,-4.1007,1.2289,-0.0788,-0.0748,
14.406014,1.5320,-1.3055,-4.1007,1.2289,-0.0788,-0.0748,
14.407937,-2.2326,1.2653,-0.5887,1.2289,-0.0788,-0.0748,
14.433582,-2.2326,1.2653,-0.5887,0.8154,-1.1790,0.0492,
14.471677,-2.2326,1.2653,-0.5887,0.8154,-1.1790,0.0492,
14.473574,-0.2595,-2.5866,-2.0891,0.8154,-1.1790,0.0492,
14.499817,-0.2595,-2.5866,-2.0891,1.1115,-1.7275,-0.0843,
14.536459,-0.2595,-2.5866,-2.0891,1.1115,-1.7275,-0.0843,
14.538439,1.0140,-0.6960,0.0177,1.1115,-1.7275,-0.0843,
14.565684,1.0140,-0.6960,0.0177,0.6872,-1.7153,-0.4395,
14.602827,1.0140,-0.6960,0.0177,0.6872,-1.7153,-0.4395,
14.604731,3.2688,-0.1107,0.5994,0.6872,-1.7153,-0.4395,
14.630243,3.2688,-0.1107,0.5994,0.3091,-1.3373,-0.7434,
14.669098,3.2688,-0.1107,0.5994,0.3091,-1.3373,-0.7434,
14.670806,2.5441,0.3287,0.5822,0.3091,-1.3373,-0.7434,
14.696900,2.5441,0.3287,0.5822,-0.0047,-0.6745,-0.1497,
14.734090,2.5441,0.3287,0.5822,-0.0047,-0.6745,-0.1497,
14.735878,4.2442,1.6767,0.2842,-0.0047,-0.6745,-0.1497,
14.762626,4.2442,1.6767,0.2842,-0.1170,0.6880,0.7705,
14.799228,4.2442,1.6767,0.2842,-0.1170,0.6880,0.7705,
14.801091,0.9230,1.9480,-3.7945,-0.1170,0.6880,0.7705,
14.827179,0.9230,1.9480,-3.7945,-1.4780,0.4488,1.1267,
14.863889,0.9230,1.9480,-3.7945,-1.4780,0.4488,1.1267,
14.865775,-1.7722,1.4663,0.0131,-1.4780,0.4488,1.1267,
14.892438,-1.7722,1.4663,0.0131,-1.0623,0.8375,0.2761,
14.929609,-1.7722,1.4663,0.0131,-1.0623,0.8375,0.2761,
14.931248,2.7191,-2.0516,-1.8417,-1.0623,0.8375,0.2761,
14.958859,2.7191,-2.0516,-1.8417,-0.6555,3.4044,0.0423,
14.995411,2.7191,-2.0516,-1.8417,-0.6555,3.4044,0.0423,
14.997219,0.6722,-1.1199,-1.8563,-0.6555,3.4044,0.0423,
15.023548,0.6722,-1.1199,-1.8563,-0.2625,3.4302,0.4123,
15.060333,0.6722,-1.1199,-1.8563,-0.2625,3.4302,0.4123,
15.062488,-0.0882,-0.0427,-1.6824,-0.2625,3.4302,0.4123,
15.089908,-0.0882,-0.0427,-1.6824,-0.0392,2.6770,0.4322,
15.126257,-0.0882,-0.0427,-1.6824,-0.0392,2.6770,0.4322,
15.128160,-1.3361,-3.0772,-1.1102,-0.0392,2.6770,0.4322,
15.155193,-1.3361,-3.0772,-1.1102,0.6306,2.1076,-0.1518,
15.192257,-1.3361,-3.0772,-1.1102,0.6306,2.1076,-0.1518,
15.194485,-1.3065,1.0365,0.5979,0.6306,2.1076,-0.1518,
15.220367,-1.3065,1.0365,0.5979,-0.3170,1.9861,-0.4649,
15.258723,-1.3065,1.0365,0.5979,-0.3170,1.9861,-0.4649,
15.260718,1.9291,0.4493,2.3415,-0.3170,1.9861,-0.4649,
15.287240,1.9291,0.4493,2.3415,-1.3434,1.8126,0.0985,
15.323927,1.9291,0.4493,2.3415,-1.3434,1.8126,0.0985,
15.326147,1.9344,8.2729,-2.3869,-1.3434,1.8126,0.0985,
15.350317,1.9344,8.2729,-2.3869,0.9694,0.5470,0.3705,
15.387657,1.9344,8.2729,-2.3869,0.9694,0.5470,0.3705,
15.389448,3.3368,-3.3555,-5.5054,0.9694,0.5470,0.3705,
15.415346,3.3368,-3.3555,-5.5054,1.3580,3.0215,-0.3729,
15.453221,3.3368,-3.3555,-5.5054,1.3580,3.0215,-0.3729,
15.454654,-1.8924,0.3132,-0.6221,1.3580,3.0215,-0.3729,
15.483873,-1.8924,0.3132,-0.6221,1.0661,0.7636,0.2465,
15.518504,-1.8924,0.3132,-0.6221,1.0661,0.7636,0.2465,
15.520139,1.2792,-1.0344,-0.4826,1.0661,0.7636,0.2465,
15.546084,1.2792,-1.0344,-0.4826,0.7776,0.2433,-0.2188,
15.583998,1.2792,-1.0344,-0.4826,0.7776,0.2433,-0.2188,
15.585691,1.6552,-2.3172,0.0609,0.7776,0.2433,-0.2188,
15.612278,1.6552,-2.3172,0.0609,0.7153,0.1994,-0.2410,
15.649795,1.6552,-2.3172,0.0609,0.7153,0.1994,-0.2410,
15.651268,0.7143,0.9266,2.4557,0.7153,0.1994,-0.2410,
15.678094,0.7143,0.9266,2.4557,0.3685,-0.5522,-0.0298,
15.714936,0.7143,0.9266,2.4557,0.3685,-0.5522,-0.0298,
15.716460,3.8533,1.0728,0.8131,0.3685,-0.5522,-0.0298,
15.744008,3.8533,1.0728,0.8131,0.0336,0.7706,0.9629,
15.781509,3.8533,1.0728,0.8131,0.0336,0.7706,0.9629,
15.783011,3.6158,3.2480,-3.0800,0.0336,0.7706,0.9629,
15.808759,3.6158,3.2480,-3.0800,-1.6496,-0.0032,0.4940,
15.845360,3.6158,3.2480,-3.0800,-1.6496,-0.0032,0.4940,
15.846029,-0.9003,1.5166,-1.8312,-1.6496,-0.0032,0.4940,
15.874897,-0.9003,1.5166,-1.8312,-1.1222,1.3392,0.3199,
15.910898,-0.9003,1.5166,-1.8312,-1.1222,1.3392,0.3199,
15.911485,1.8270,-0.2673,-1.4318,-1.1222,1.3392,0.3199,
15.939383,1.8270,-0.2673,-1.4318,-0.7802,2.2248,-0.0738,
15.977289,1.8270,-0.2673,-1.4318,-0.7802,2.2248,-0.0738,
15.977783,-0.3883,-2.2152,-1.3610,-0.7802,2.2248,-0.0738,
16.005818,-0.3883,-2.2152,-1.3610,-0.4826,2.4764,0.5069,
16.043047,-0.3883,-2.2152,-1.3610,-0.4826,2.4764,0.5069,
16.043663,-0.3219,-2.1690,-1.2903,-0.4826,2.4764,0.5069,
16.072844,-0.3219,-2.1690,-1.2903,0.1607,2.6715,0.3306,
16.109386,-0.3219,-2.1690,-1.2903,0.1607,2.6715,0.3306,
16.111260,0.7959,-2.6593,-0.4533,0.1607,2.6715,0.3306,
16.137025,0.7959,-2.6593,-0.4533,0.8323,2.7313,0.0531,
16.173938,0.7959,-2.6593,-0.4533,0.8323,2.7313,0.0531,
16.175446,-1.0992,4.2512,1.7188,0.8323,2.7313,0.0531,
16.201491,-1.0992,4.2512,1.7188,-0.5782,1.7214,0.1712,
16.239838,-1.0992,4.2512,1.7188,-0.5782,1.7214,0.1712,
16.242017,-1.3253,2.1933,-0.3422,-0.5782,1.7214,0.1712,
16.268171,-1.3253,2.1933,-0.3422,-1.0360,0.6645,-0.0790,
16.304042,-1.3253,2.1933,-0.3422,-1.0360,0.6645,-0.0790,
16.305866,0.3275,-3.5240,-3.9453,-1.0360,0.6645,-0.0790,
16.333275,0.3275,-3.5240,-3.9453,0.3981,1.8702,0.3509,
16.370394,0.3275,-3.5240,-3.9453,0.3981,1.8702,0.3509,
16.372190,1.6968,2.7514,-3.0976,0.3981,1.8702,0.3509,
16.398785,1.6968,2.7514,-3.0976,1.0186,-0.5380,-0.1173,
16.437135,1.6968,2.7514,-3.0976,1.0186,-0.5380,-0.1173,
16.438947,-3.3054,-1.6555,-1.4513,1.0186,-0.5380,-0.1173,
16.464373,-3.3054,-1.6555,-1.4513,0.7752,-1.2822,0.6064,
16.501960,-3.3054,-1.6555,-1.4513,0.7752,-1.2822,0.6064,
16.503613,2.0707,-1.5409,-0.3548,0.7752,-1.2822,0.6064,
16.529362,2.0707,-1.5409,-0.3548,0.7068,-1.7393,-0.1263,
16.565630,2.0707,-1.5409,-0.3548,0.7068,-1.7393,-0.1263,
16.566336,1.7813,-1.7605,0.1084,0.7068,-1.7393,-0.1263,
16.596356,1.7813,-1.7605,0.1084,0.7509,-1.2504,-0.0938,
16.632112,1.7813,-1.7605,0.1084,0.7509,-1.2504,-0.0938,
16.634729,2.5398,0.2238,1.2506,0.7509,-1.2504,-0.0938,
16.660000,2.5398,0.2238,1.2506,0.1901,-1.0817,-0.3393,
16.697402,2.5398,0.2238,1.2506,0.1901,-1.0817,-0.3393,
16.699189,4.6916,2.5397,0.4405,0.1901,-1.0817,-0.3393,
16.725432,4.6916,2.5397,0.4405,-0.1225,0.0308,0.0541,
16.762412,4.6916,2.5397,0.4405,-0.1225,0.0308,0.0541,
16.762913,2.9114,2.8496,-1.0683,-0.1225,0.0308,0.0541,
16.791858,2.9114,2.8496,-1.0683,-0.6503,0.5686,0.6868,
16.827648,2.9114,2.8496,-1.0683,-0.6503,0.5686,0.6868,
16.828117,-2.9122,1.7256,-0.9722,-0.6503,0.5686,0.6868,
16.857974,-2.9122,1.7256,-0.9722,-1.1894,0.1723,0.5290,
16.894731,-2.9122,1.7256,-0.9722,-1.1894,0.1723,0.5290,
16.895277,0.0563,1.0083,-1.3993,-1.1894,0.1723,0.5290,
16.921489,0.0563,1.0083,-1.3993,-1.1455,1.0076,-0.0070,
16.960879,0.0563,1.0083,-1.3993,-1.1455,1.0076,-0.0070,
16.961392,0.0515,-2.1346,-0.7250,-1.1455,1.0076,-0.0070,
16.988900,0.0515,-2.1346,-0.7250,-0.7416,1.6353,0.0649,
17.025531,0.0515,-2.1346,-0.7250,-0.7416,1.6353,0.0649,
17.026058,0.1033,-3.1106,-0.9008,-0.7416,1.6353,0.0649,
17.053025,0.1033,-3.1106,-0.9008,-0.1669,1.9024,0.2326,
17.090469,0.1033,-3.1106,-0.9008,-0.1669,1.9024,0.2326,
17.091049,-1.1962,-2.6867,-0.1955,-0.1669,1.9024,0.2326,
17.118184,-1.1962,-2.6867,-0.1955,0.5040,1.3457,0.1903,
17.156389,-1.1962,-2.6867,-0.1955,0.5040,1.3457,0.1903,
17.158126,-0.0836,-2.2522,0.7861,0.5040,1.3457,0.1903,
17.184838,-0.0836,-2.2522,0.7861,0.5938,1.0354,-0.0215,
17.221500,-0.0836,-2.2522,0.7861,0.5938,1.0354,-0.0215,
17.223201,-1.1408,6.7511,4.0234,0.5938,1.0354,-0.0215,
17.249532,-1.1408,6.7511,4.0234,-0.5545,-0.0754,0.5001,
17.286483,-1.1408,6.7511,4.0234,-0.5545,-0.0754,0.5001,
17.288431,-1.2678,4.8979,0.5936,-0.5545,-0.0754,0.5001,
17.316293,-1.2678,4.8979,0.5936,-0.0747,-1.5687,-0.8549,
17.353134,-1.2678,4.8979,0.5936,-0.0747,-1.5687,-0.8549,
17.354872,-1.5856,-3.6359,-2.5036,-0.0747,-1.5687,-0.8549,
17.381011,-1.5856,-3.6359,-2.5036,0.7398,0.5292,-0.3487,
17.418223,-1.5856,-3.6359,-2.5036,0.7398,0.5292,-0.3487,
17.420181,1.7457,1.0419,-2.4323,0.7398,0.5292,-0.3487,
17.447162,1.7457,1.0419,-2.4323,1.0977,-0.7213,0.1394,
17.483967,1.7457,1.0419,-2.4323,1.0977,-0.7213,0.1394,
17.485929,-1.0881,-1.9169,-1.5638,1.0977,-0.7213,0.1394,
17.511325,-1.0881,-1.9169,-1.5638,0.8575,-1.0774,0.1636,
17.548984,-1.0881,-1.9169,-1.5638,0.8575,-1.0774,0.1636,
17.550912,0.5697,-2.0962,-0.2891,0.8575,-1.0774,0.1636,
17.577234,0.5697,-2.0962,-0.2891,0.8621,-1.5091,-0.0038,
17.613868,0.5697,-2.0962,-0.2891,0.8621,-1.5091,-0.0038,
17.615944,2.3749,-0.9126,0.2925,0.8621,-1.5091,-0.0038,
17.643475,2.3749,-0.9126,0.2925,0.5250,-1.1051,-0.1219,
17.679933,2.3749,-0.9126,0.2925,0.5250,-1.1051,-0.1219,
17.681716,2.8630,0.8702,1.9335,0.5250,-1.1051,-0.1219,
17.707992,2.8630,0.8702,1.9335,0.1895,-0.6526,-0.3583,
17.745090,2.8630,0.8702,1.9335,0.1895,-0.6526,-0.3583,
17.745872,4.1968,1.1905,0.7208,0.1895,-0.6526,-0.3583,
17.773363,4.1968,1.1905,0.7208,0.3172,0.4542,0.7459,
17.810153,4.1968,1.1905,0.7208,0.3172,0.4542,0.7459,
17.810657,0.1657,4.4644,-2.4210,0.3172,0.4542,0.7459,
17.838522,0.1657,4.4644,-2.4210,-0.5618,0.5994,1.2443,
17.876107,0.1657,4.4644,-2.4210,-0.5618,0.5994,1.2443,
17.876735,-4.8247,2.5166,-0.7099,-0.5618,0.5994,1.2443,
17.905194,-4.8247,2.5166,-0.7099,-1.5154,-0.3913,0.3564,
17.941082,-4.8247,2.5166,-0.7099,-1.5154,-0.3913,0.3564,
17.942546,0.8098,-0.6878,-1.3127,-1.5154,-0.3913,0.3564,
17.970505,0.8098,-0.6878,-1.3127,-1.3610,1.0773,-0.3085,
18.007241,0.8098,-0.6878,-1.3127,-1.3610,1.0773,-0.3085,
18.008874,-1.3462,-2.7776,-0.1008,-1.3610,1.0773,-0.3085,
18.034641,-1.3462,-2.7776,-0.1008,-0.8966,1.0498,0.1567,
18.073486,-1.3462,-2.7776,-0.1008,-0.8966,1.0498,0.1567,
18.075199,0.1390,-2.5429,-0.0007,-0.8966,1.0498,0.1567,
18.100288,0.1390,-2.5429,-0.0007,-0.0803,1.0021,0.1672,
18.137620,0.1390,-2.5429,-0.0007,-0.0803,1.0021,0.1672,
18.139363,-0.5750,-3.5054,0.4616,-0.0803,1.0021,0.1672,
18.167609,-0.5750,-3.5054,0.4616,0.7233,1.4800,-0.2547,
18.202981,-0.5750,-3.5054,0.4616,0.7233,1.4800,-0.2547,
18.205087,0.9870,1.1243,0.8682,0.7233,1.4800,-0.2547,
18.231343,0.9870,1.1243,0.8682,-0.0020,1.2565,-0.0356,
18.268378,0.9870,1.1243,0.8682,-0.0020,1.2565,-0.0356,
18.270440,-1.5147,3.0501,2.8975,-0.0020,1.2565,-0.0356,
18.297033,-1.5147,3.0501,2.8975,-1.1565,-0.3132,-0.2666,
18.333910,-1.5147,3.0501,2.8975,-1.1565,-0.3132,-0.2666,
18.335424,-3.6809,-1.5594,-2.9006,-1.1565,-0.3132,-0.2666,
18.362775,-3.6809,-1.5594,-2.9006,0.1791,0.8059,-0.3728,
18.400692,-3.6809,-1.5594,-2.9006,0.1791,0.8059,-0.3728,
18.402895,2.9647,1.2318,-5.0373,0.1791,0.8059,-0.3728,
18.429147,2.9647,1.2318,-5.0373,1.5046,-0.1298,0.0860,
18.466875,2.9647,1.2318,-5.0373,1.5046,-0.1298,0.0860,
18.468213,-2.6123,-0.5919,-0.3242,1.5046,-0.1298,0.0860,
18.493898,-2.6123,-0.5919,-0.3242,0.9042,-0.9998,0.1590,
18.531038,-2.6123,-0.5919,-0.3242,0.9042,-0.9998,0.1590,
18.533079,-0.1064,-1.6059,-3.1107,0.9042,-0.9998,0.1590,
18.559880,-0.1064,-1.6059,-3.1107,0.9166,-1.5598,-0.3691,
18.597161,-0.1064,-1.6059,-3.1107,0.9166,-1.5598,-0.3691,
18.599416,1.4681,-1.6511,-0.3100,0.9166,-1.5598,-0.3691,
18.624133,1.4681,-1.6511,-0.3100,0.5437,-1.3155,-0.3493,
18.661262,1.4681,-1.6511,-0.3100,0.5437,-1.3155,-0.3493,
18.663278,2.7421,-0.1431,1.0371,0.5437,-1.3155,-0.3493,
18.690253,2.7421,-0.1431,1.0371,0.3850,-0.8726,-0.3013,
18.726888,2.7421,-0.1431,1.0371,0.3850,-0.8726,-0.3013,
18.727980,3.5880,1.5597,1.1124,0.3850,-0.8726,-0.3013,
18.756848,3.5880,1.5597,1.1124,0.1726,-0.2288,0.2057,
18.793207,3.5880,1.5597,1.1124,0.1726,-0.2288,0.2057,
18.794748,4.2551,4.0104,-0.7627,0.1726,-0.2288,0.2057,
18.821186,4.2551,4.0104,-0.7627,0.2217,0.9668,1.1770,
18.857409,4.2551,4.0104,-0.7627,0.2217,0.9668,1.1770,
18.859374,-3.6740,1.9501,-4.4669,0.2217,0.9668,1.1770,
18.886758,-3.6740,1.9501,-4.4669,-2.2110,-0.0967,0.4438,
18.922655,-3.6740,1.9501,-4.4669,-2.2110,-0.0967,0.4438,
18.923924,-2.2511,0.9539,-1.4461,-2.2110,-0.0967,0.4438,
18.951980,-2.2511,0.9539,-1.4461,-1.2967,0.3763,-0.0057,
18.989506,-2.2511,0.9539,-1.4461,-1.2967,0.3763,-0.0057,
18.991255,1.3018,-2.5501,-0.4979,-1.2967,0.3763,-0.0057,
19.017625,1.3018,-2.5501,-0.4979,-0.8735,1.7675,-0.2550,
19.054701,1.3018,-2.5501,-0.4979,-0.8735,1.7675,-0.2550,
19.056212,0.5157,-3.3362,-0.5768,-0.8735,1.7675,-0.2550,
19.082664,0.5157,-3.3362,-0.5768,-0.1003,2.1434,0.1733,
19.120872,0.5157,-3.3362,-0.5768,-0.1003,2.1434,0.1733,
19.122480,-1.1851,-2.0231,0.1090,-0.1003,2.1434,0.1733,
19.149158,-1.1851,-2.0231,0.1090,0.6025,1.5058,0.3896,
19.185974,-1.1851,-2.0231,0.1090,0.6025,1.5058,0.3896,
19.187579,-0.7031,-2.7003,0.8837,0.6025,1.5058,0.3896,
19.213572,-0.7031,-2.7003,0.8837,0.5467,1.5924,0.2341,
19.250383,-0.7031,-2.7003,0.8837,0.5467,1.5924,0.2341,
19.251962,-2.0475,5.2717,2.3505,0.5467,1.5924,0.2341,
19.280003,-2.0475,5.2717,2.3505,-0.0906,0.9925,0.1683,
19.316334,-2.0475,5.2717,2.3505,-0.0906,0.9925,0.1683,
19.317668,-0.5610,-0.3200,-0.4647,-0.0906,0.9925,0.1683,
19.344826,-0.5610,-0.3200,-0.4647,-1.4363,1.6677,-0.8114,
19.382404,-0.5610,-0.3200,-0.4647,-1.4363,1.6677,-0.8114,
19.385506,-6.6292,0.0790,-2.6156,-1.4363,1.6677,-0.8114,
19.410642,-6.6292,0.0790,-2.6156,0.4094,-1.2217,-0.0762,
19.447798,-6.6292,0.0790,-2.6156,0.4094,-1.2217,-0.0762,
19.449885,3.0801,-2.6074,-4.8608,0.4094,-1.2217,-0.0762,
19.477345,3.0801,-2.6074,-4.8608,1.5521,-0.0725,-0.5043,
19.513169,3.0801,-2.6074,-4.8608,1.5521,-0.0725,-0.5043,
19.515330,-1.8861,-0.7419,1.5002,1.5521,-0.0725,-0.5043,
19.542346,-1.8861,-0.7419,1.5002,0.8274,-1.6751,0.3656,
19.578037,-1.8861,-0.7419,1.5002,0.8274,-1.6751,0.3656,
19.578820,0.6155,-1.8900,-2.1699,0.8274,-1.6751,0.3656,
19.608417,0.6155,-1.8900,-2.1699,1.0899,-1.6107,-0.0005,
19.643643,0.6155,-1.8900,-2.1699,1.0899,-1.6107,-0.0005,
19.644979,1.9681,-0.1088,-0.4209,1.0899,-1.6107,-0.0005,
19.671521,1.9681,-0.1088,-0.4209,0.1906,-1.2294,0.0049,
19.709240,1.9681,-0.1088,-0.4209,0.1906,-1.2294,0.0049,
19.710570,2.4359,-0.7092,1.6973,0.1906,-1.2294,0.0049,
19.737466,2.4359,-0.7092,1.6973,0.3396,-0.7291,-0.3531,
19.774891,2.4359,-0.7092,1.6973,0.3396,-0.7291,-0.3531,
19.775712,1.3137,1.3602,1.1081,0.3396,-0.7291,-0.3531,
19.803202,1.3137,1.3602,1.1081,0.1272,-0.7115,0.1232,
19.839748,1.3137,1.3602,1.1081,0.1272,-0.7115,0.1232,
19.841556,5.0577,3.5385,-0.9690,0.1272,-0.7115,0.1232,
19.869139,5.0577,3.5385,-0.9690,0.0283,0.5559,1.0275,
19.906254,5.0577,3.5385,-0.9690,0.0283,0.5559,1.0275,
19.907960,-2.3655,2.2477,-3.7174,0.0283,0.5559,1.0275,
19.934213,-2.3655,2.2477,-3.7174,-2.0401,-0.0067,0.4310,
19.970846,-2.3655,2.2477,-3.7174,-2.0401,-0.0067,0.4310,
19.972769,-0.0135,-0.2062,-1.4901,-2.0401,-0.0067,0.4310,
20.000202,-0.0135,-0.2062,-1.4901,-1.0913,0.8179,-0.0298,
20.038186,-0.0135,-0.2062,-1.4901,-1.0913,0.8179,-0.0298,
20.039935,0.8341,-2.4749,-0.9579,-1.0913,0.8179,-0.0298,
20.066186,0.8341,-2.4749,-0.9579,-0.5783,2.2228,-0.1975,
20.102740,0.8341,-2.4749,-0.9579,-0.5783,2.2228,-0.1975,
20.105124,0.1028,-2.3471,-0.1282,-0.5783,2.2228,-0.1975,
20.130134,0.1028,-2.3471,-0.1282,0.0087,2.1640,0.0102,
20.168960,0.1028,-2.3471,-0.1282,0.0087,2.1640,0.0102,
20.171191,-1.1247,-2.6093,-0.0946,0.0087,2.1640,0.0102,
20.196843,-1.1247,-2.6093,-0.0946,0.4131,1.7744,0.2190,
20.234081,-1.1247,-2.6093,-0.0946,0.4131,1.7744,0.2190,
20.235261,0.5822,-0.4301,0.6506,0.4131,1.7744,0.2190,
20.263326,0.5822,-0.4301,0.6506,0.1155,1.5163,0.1145,
20.298950,0.5822,-0.4301,0.6506,0.1155,1.5163,0.1145,
20.301150,-0.8917,3.8888,4.0031,0.1155,1.5163,0.1145,
20.326662,-0.8917,3.8888,4.0031,-1.4549,1.4613,0.5377,
20.363907,-0.8917,3.8888,4.0031,-1.4549,1.4613,0.5377,
20.365717,-0.7618,5.6772,-1.7497,-1.4549,1.4613,0.5377,
20.393291,-0.7618,5.6772,-1.7497,0.3531,-0.5628,-0.8234,
20.428441,-0.7618,5.6772,-1.7497,0.3531,-0.5628,-0.8234,
20.429613,0.4594,-3.2646,-3.8102,0.3531,-0.5628,-0.8234,
20.457881,0.4594,-3.2646,-3.8102,1.3332,0.7492,0.2598,
20.494546,0.4594,-3.2646,-3.8102,1.3332,0.7492,0.2598,
20.495106,-1.9849,1.4387,-0.8410,1.3332,0.7492,0.2598,
20.523362,-1.9849,1.4387,-0.8410,0.8228,-1.0652,0.0951,
20.561419,-1.9849,1.4387,-0.8410,0.8228,-1.0652,0.0951,
20.562517,1.1446,-2.5519,-2.7018,0.8228,-1.0652,0.0951,
20.588909,1.1446,-2.5519,-2.7018,1.0589,-0.8755,-0.0742,
20.625998,1.1446,-2.5519,-2.7018,1.0589,-0.8755,-0.0742,
20.626638,1.2604,-1.4785,-0.0715,1.0589,-0.8755,-0.0742,
20.653897,1.2604,-1.4785,-0.0715,0.8242,-0.3112,-0.4087,
20.692699,1.2604,-1.4785,-0.0715,0.8242,-0.3112,-0.4087,
20.693311,1.9029,0.0367,0.1431,0.8242,-0.3112,-0.4087,
20.719024,1.9029,0.0367,0.1431,0.4820,-0.2793,-0.5305,
20.757162,1.9029,0.0367,0.1431,0.4820,-0.2793,-0.5305,
20.757736,0.9126,0.7420,1.0362,0.4820,-0.2793,-0.5305,
20.785585,0.9126,0.7420,1.0362,0.1248,-0.8002,-0.0040,
20.823366,0.9126,0.7420,1.0362,0.1248,-0.8002,-0.0040,
20.825434,4.3081,1.1446,0.9623,0.1248,-0.8002,-0.0040,
20.851109,4.3081,1.1446,0.9623,0.2477,0.2447,0.7769,
20.888878,4.3081,1.1446,0.9623,0.2477,0.2447,0.7769,
20.890681,2.6354,3.1137,-3.8539,0.2477,0.2447,0.7769,
20.916249,2.6354,3.1137,-3.8539,-1.4786,0.5457,0.5576,
20.953318,2.6354,3.1137,-3.8539,-1.4786,0.5457,0.5576,
20.954794,-0.9790,2.5429,-0.3246,-1.4786,0.5457,0.5576,
20.981157,-0.9790,2.5429,-0.3246,-1.1570,1.0573,0.0425,
21.018369,-0.9790,2.5429,-0.3246,-1.1570,1.0573,0.0425,
21.019893,1.4432,-1.1266,-1.5379,-1.1570,1.0573,0.0425,
21.047907,1.4432,-1.1266,-1.5379,-0.9058,2.3747,-0.2830,
21.083796,1.4432,-1.1266,-1.5379,-0.9058,2.3747,-0.2830,
21.085875,-0.6395,-4.3005,-1.4639,-0.9058,2.3747,-0.2830,
21.112943,-0.6395,-4.3005,-1.4639,-0.5008,2.9850,0.4398,
21.149613,-0.6395,-4.3005,-1.4639,-0.5008,2.9850,0.4398,
21.150727,0.8344,-0.7844,-0.5620,-0.5008,2.9850,0.4398,
21.177833,0.8344,-0.7844,-0.5620,0.2392,2.3738,0.6144,
21.214915,0.8344,-0.7844,-0.5620,0.2392,2.3738,0.6144,
21.216655,1.0329,-2.8977,-1.1535,0.2392,2.3738,0.6144,
21.243950,1.0329,-2.8977,-1.1535,0.4827,2.4396,0.1098,
21.281122,1.0329,-2.8977,-1.1535,0.4827,2.4396,0.1098,
21.282776,-3.2203,4.8365,1.6335,0.4827,2.4396,0.1098,
21.308841,-3.2203,4.8365,1.6335,-0.5683,1.5705,-0.1582,
21.346898,-3.2203,4.8365,1.6335,-0.5683,1.5705,-0.1582,
21.349458,1.0862,-0.6713,0.8228,-0.5683,1.5705,-0.1582,
21.374644,1.0862,-0.6713,0.8228,-1.4160,1.7507,0.1530,
21.411172,1.0862,-0.6713,0.8228,-1.4160,1.7507,0.1530,
21.412758,-0.5183,2.2219,-2.3796,-1.4160,1.7507,0.1530,
21.439518,-0.5183,2.2219,-2.3796,1.7017,-0.1518,0.5050,
21.477033,-0.5183,2.2219,-2.3796,1.7017,-0.1518,0.5050,
21.478993,1.9455,-1.3746,-5.0064,1.7017,-0.1518,0.5050,
21.504497,1.9455,-1.3746,-5.0064,0.8885,1.7359,-0.6484,
21.542435,1.9455,-1.3746,-5.0064,0.8885,1.7359,-0.6484,
21.543931,-1.2024,-0.1520,-1.0879,0.8885,1.7359,-0.6484,
21.570508,-1.2024,-0.1520,-1.0879,1.1084,-0.2961,0.4006,
21.608228,-1.2024,-0.1520,-1.0879,1.1084,-0.2961,0.4006,
21.610740,1.8868,-1.7610,-1.0250,1.1084,-0.2961,0.4006,
21.636295,1.8868,-1.7610,-1.0250,0.8535,-0.5180,0.2049,
21.673695,1.8868,-1.7610,-1.0250,0.8535,-0.5180,0.2049,
21.675639,0.6083,-2.3055,-0.0192,0.8535,-0.5180,0.2049,
21.701358,0.6083,-2.3055,-0.0192,0.7420,-0.5982,-0.0336,
21.738619,0.6083,-2.3055,-0.0192,0.7420,-0.5982,-0.0336,
21.739767,1.7383,-1.4957,0.8665,0.7420,-0.5982,-0.0336,
21.766284,1.7383,-1.4957,0.8665,0.5596,-0.6680,-0.4117,
21.803724,1.7383,-1.4957,0.8665,0.5596,-0.6680,-0.4117,
21.805507,2.5081,3.0603,2.1887,0.5596,-0.6680,-0.4117,
21.833179,2.5081,3.0603,2.1887,0.0651,-0.7338,-0.2185,
21.869828,2.5081,3.0603,2.1887,0.0651,-0.7338,-0.2185,
21.871383,5.8901,2.7459,0.8692,0.0651,-0.7338,-0.2185,
21.898155,5.8901,2.7459,0.8692,-0.0504,0.2204,0.5857,
21.934931,5.8901,2.7459,0.8692,-0.0504,0.2204,0.5857,
21.936776,-0.9203,3.5022,-3.7770,-0.0504,0.2204,0.5857,
21.965698,-0.9203,3.5022,-3.7770,-1.4598,0.7127,1.1536,
22.000922,-0.9203,3.5022,-3.7770,-1.4598,0.7127,1.1536,
22.002504,-2.0456,0.1957,-0.1294,-1.4598,0.7127,1.1536,
22.030271,-2.0456,0.1957,-0.1294,-1.3532,0.5592,0.1568,
22.066565,-2.0456,0.1957,-0.1294,-1.3532,0.5592,0.1568,
22.068491,2.0594,-2.2220,-2.4136,-1.3532,0.5592,0.1568,
22.095193,2.0594,-2.2220,-2.4136,-0.8548,3.0013,-0.0421,
22.132181,2.0594,-2.2220,-2.4136,-0.8548,3.0013,-0.0421,
22.133488,-1.2479,-0.3719,-0.5640,-0.8548,3.0013,-0.0421,
22.159730,-1.2479,-0.3719,-0.5640,-0.6402,1.7387,0.5846,
22.196760,-1.2479,-0.3719,-0.5640,-0.6402,1.7387,0.5846,
22.198243,-0.8310,-2.1102,-1.3467,-0.6402,1.7387,0.5846,
22.225640,-0.8310,-2.1102,-1.3467,0.0767,1.7216,0.1828,
22.262286,-0.8310,-2.1102,-1.3467,0.0767,1.7216,0.1828,
22.263931,0.5151,-3.5006,-0.8920,0.0767,1.7216,0.1828,
22.291022,0.5151,-3.5006,-0.8920,0.8079,1.9077,-0.1620,
22.328178,0.5151,-3.5006,-0.8920,0.8079,1.9077,-0.1620,
22.329874,-0.8772,3.1941,2.1364,0.8079,1.9077,-0.1620,
22.356215,-0.8772,3.1941,2.1364,-0.3732,1.3975,0.0962,
22.394100,-0.8772,3.1941,2.1364,-0.3732,1.3975,0.0962,
22.395857,0.5767,0.5484,2.1959,-0.3732,1.3975,0.0962,
22.422705,0.5767,0.5484,2.1959,-1.2222,0.3662,0.0443,
22.459110,0.5767,0.5484,2.1959,-1.2222,0.3662,0.0443,
22.461225,-2.0601,2.0491,-4.6195,-1.2222,0.3662,0.0443,
22.487228,-2.0601,2.0491,-4.6195,0.3093,0.5475,-0.2159,
22.525263,-2.0601,2.0491,-4.6195,0.3093,0.5475,-0.2159,
22.526868,2.7767,-0.9246,-4.0902,0.3093,0.5475,-0.2159,
22.553000,2.7767,-0.9246,-4.0902,1.3460,0.4032,-0.0516,
22.590687,2.7767,-0.9246,-4.0902,1.3460,0.4032,-0.0516,
22.592443,-2.7387,0.4032,-0.2140,1.3460,0.4032,-0.0516,
22.618133,-2.7387,0.4032,-0.2140,0.9360,-0.5652,0.3789,
22.656385,-2.7387,0.4032,-0.2140,0.9360,-0.5652,0.3789,
22.658272,0.6446,-2.1112,-1.3743,0.9360,-0.5652,0.3789,
22.684243,0.6446,-2.1112,-1.3743,1.0047,-1.1206,0.1544,
22.721660,0.6446,-2.1112,-1.3743,1.0047,-1.1206,0.1544,
22.723547,0.5879,-1.7374,-0.2200,1.0047,-1.1206,0.1544,
22.749179,0.5879,-1.7374,-0.2200,0.7231,-1.2900,-0.0221,
22.787202,0.5879,-1.7374,-0.2200,0.7231,-1.2900,-0.0221,
22.788866,1.9725,-1.6240,0.6051,0.7231,-1.2900,-0.0221,
22.814843,1.9725,-1.6240,0.6051,0.5527,-0.8129,-0.4110,
22.852344,1.9725,-1.6240,0.6051,0.5527,-0.8129,-0.4110,
22.854722,1.1793,0.6923,1.9608,0.5527,-0.8129,-0.4110,
22.879715,1.1793,0.6923,1.9608,0.4052,-0.6122,-0.1552,
22.917442,1.1793,0.6923,1.9608,0.4052,-0.6122,-0.1552,
22.918978,5.8825,2.4722,1.8596,0.4052,-0.6122,-0.1552,
22.946212,5.8825,2.4722,1.8596,0.2891,-0.0140,0.4832,
22.984799,5.8825,2.4722,1.8596,0.2891,-0.0140,0.4832,
22.987141,-0.4871,2.9563,-3.6806,0.2891,-0.0140,0.4832,
23.012056,-0.4871,2.9563,-3.6806,-1.1791,0.9287,1.3285,
23.049454,-0.4871,2.9563,-3.6806,-1.1791,0.9287,1.3285,
23.051074,-4.6050,2.2016,1.4452,-1.1791,0.9287,1.3285,
23.077211,-4.6050,2.2016,1.4452,-1.4007,-0.5789,0.3685,
23.113333,-4.6050,2.2016,1.4452,-1.4007,-0.5789,0.3685,
23.114296,1.5200,-1.2143,-2.5400,-1.4007,-0.5789,0.3685,
23.143184,1.5200,-1.2143,-2.5400,-1.2201,2.2660,-0.2251,
23.179578,1.5200,-1.2143,-2.5400,-1.2201,2.2660,-0.2251,
23.181663,-1.0695,-0.8695,-0.2880,-1.2201,2.2660,-0.2251,
23.207191,-1.0695,-0.8695,-0.2880,-0.6810,1.5253,0.3097,
23.245221,-1.0695,-0.8695,-0.2880,-0.6810,1.5253,0.3097,
23.247019,-0.9912,-1.9936,-0.1513,-0.6810,1.5253,0.3097,
23.273245,-0.9912,-1.9936,-0.1513,-0.1213,0.9807,0.3658,
23.310404,-0.9912,-1.9936,-0.1513,-0.1213,0.9807,0.3658,
23.311909,-0.6671,-4.1247,-0.3429,-0.1213,0.9807,0.3658,
23.338809,-0.6671,-4.1247,-0.3429,0.8564,1.3792,-0.1807,
23.375806,-0.6671,-4.1247,-0.3429,0.8564,1.3792,-0.1807,
23.378057,0.9362,-1.7167,0.5163,0.8564,1.3792,-0.1807,
23.404505,0.9362,-1.7167,0.5163,0.5040,1.3066,-0.0560,
23.440917,0.9362,-1.7167,0.5163,0.5040,1.3066,-0.0560,
23.442701,-0.2141,4.7375,5.6329,0.5040,1.3066,-0.0560,
23.469844,-0.2141,4.7375,5.6329,-0.6568,0.5620,0.3913,
23.506773,-0.2141,4.7375,5.6329,-0.6568,0.5620,0.3913,
23.509007,-1.0729,5.5565,-1.7435,-0.6568,0.5620,0.3913,
23.534655,-1.0729,5.5565,-1.7435,-0.1080,0.0105,-1.5296,
23.572234,-1.0729,5.5565,-1.7435,-0.1080,0.0105,-1.5296,
23.574369,-0.7304,-0.9788,-2.6006,-0.1080,0.0105,-1.5296,
23.601188,-0.7304,-0.9788,-2.6006,1.1952,-0.2016,0.7376,
23.637627,-0.7304,-0.9788,-2.6006,1.1952,-0.2016,0.7376,
23.639119,-0.1345,1.1163,-1.9787,1.1952,-0.2016,0.7376,
23.665434,-0.1345,1.1163,-1.9787,0.9391,-0.6072,0.0367,
23.702918,-0.1345,1.1163,-1.9787,0.9391,-0.6072,0.0367,
23.704420,-0.6508,-1.7956,-2.2077,0.9391,-0.6072,0.0367,
23.731194,-0.6508,-1.7956,-2.2077,0.8897,-1.5372,0.1376,
23.768649,-0.6508,-1.7956,-2.2077,0.8897,-1.5372,0.1376,
23.770742,0.4875,-2.0187,-0.6764,0.8897,-1.5372,0.1376,
23.796917,0.4875,-2.0187,-0.6764,0.8230,-1.7216,-0.1103,
23.834074,0.4875,-2.0187,-0.6764,0.8230,-1.7216,-0.1103,
23.836048,2.2146,-0.7918,0.2109,0.8230,-1.7216,-0.1103,
23.862314,2.2146,-0.7918,0.2109,0.5027,-1.3202,-0.3103,
23.899563,2.2146,-0.7918,0.2109,0.5027,-1.3202,-0.3103,
23.901459,3.0163,-0.3376,1.3720,0.5027,-1.3202,-0.3103,
23.928249,3.0163,-0.3376,1.3720,0.2549,-0.5731,-0.4924,
23.964327,3.0163,-0.3376,1.3720,0.2549,-0.5731,-0.4924,
23.966168,2.8808,0.7526,0.6794,0.2549,-0.5731,-0.4924,
23.993164,2.8808,0.7526,0.6794,0.1315,-0.1651,0.2448,
24.030145,2.8808,0.7526,0.6794,0.1315,-0.1651,0.2448,
24.031118,1.5114,3.0360,0.2116,0.1315,-0.1651,0.2448,
24.058821,1.5114,3.0360,0.2116,-0.3679,0.0330,1.1328,
24.096096,1.5114,3.0360,0.2116,-0.3679,0.0330,1.1328,
24.098103,-1.6309,3.7428,-2.7000,-0.3679,0.0330,1.1328,
24.125077,-1.6309,3.7428,-2.7000,-1.5253,-0.0209,0.9991,
24.162644,-1.6309,3.7428,-2.7000,-1.5253,-0.0209,0.9991,
24.164967,-0.7582,0.7295,-0.6747,-1.5253,-0.0209,0.9991,
24.189810,-0.7582,0.7295,-0.6747,-1.4565,1.0504,-0.0886,
24.227817,-0.7582,0.7295,-0.6747,-1.4565,1.0504,-0.0886,
24.229636,1.3625,-2.5942,-1.8670,-1.4565,1.0504,-0.0886,
24.255333,1.3625,-2.5942,-1.8670,-0.9785,2.8112,-0.0961,
24.293022,1.3625,-2.5942,-1.8670,-0.9785,2.8112,-0.0961,
24.295161,-1.6431,-1.2727,-0.2566,-0.9785,2.8112,-0.0961,
24.321216,-1.6431,-1.2727,-0.2566,-0.2581,1.6499,0.3453,
24.357809,-1.6431,-1.2727,-0.2566,-0.2581,1.6499,0.3453,
24.359428,-0.9723,-2.9108,-0.7337,-0.2581,1.6499,0.3453,
24.386798,-0.9723,-2.9108,-0.7337,0.5560,1.4377,0.1309,
24.424034,-0.9723,-2.9108,-0.7337,0.5560,1.4377,0.1309,
24.425768,-0.3846,-3.5677,0.4037,0.5560,1.4377,0.1309,
24.451418,-0.3846,-3.5677,0.4037,0.9067,1.3251,-0.1649,
24.489389,-0.3846,-3.5677,0.4037,0.9067,1.3251,-0.1649,
24.491173,-4.2678,6.0317,1.6598,0.9067,1.3251,-0.1649,
24.516488,-4.2678,6.0317,1.6598,-0.5319,0.8314,-0.1359,
24.554569,-4.2678,6.0317,1.6598,-0.5319,0.8314,-0.1359,
24.556109,-0.4768,-1.6878,0.9038,-0.5319,0.8314,-0.1359,
24.583170,-0.4768,-1.6878,0.9038,-1.0788,0.3474,-0.6965,
24.620079,-0.4768,-1.6878,0.9038,-1.0788,0.3474,-0.6965,
24.621757,-3.6053,3.7103,-1.7049,-1.0788,0.3474,-0.6965,
24.648346,-3.6053,3.7103,-1.7049,0.5293,-0.3073,0.0047,
24.686167,-3.6053,3.7103,-1.7049,0.5293,-0.3073,0.0047,
24.687780,3.0277,-3.6371,-4.4651,0.5293,-0.3073,0.0047,
24.714037,3.0277,-3.6371,-4.4651,1.0447,0.3522,-0.3427,
24.750713,3.0277,-3.6371,-4.4651,1.0447,0.3522,-0.3427,
24.751845,-0.9877,0.4712,-0.1449,1.0447,0.3522,-0.3427,
24.779677,-0.9877,0.4712,-0.1449,0.9305,-0.8928,0.3448,
24.816231,-0.9877,0.4712,-0.1449,0.9305,-0.8928,0.3448,
24.818034,0.9917,-2.0506,-1.7226,0.9305,-0.8928,0.3448,
24.844177,0.9917,-2.0506,-1.7226,1.1299,-1.1445,-0.0331,
24.881639,0.9917,-2.0506,-1.7226,1.1299,-1.1445,-0.0331,
24.882829,1.0780,-1.0340,0.1302,1.1299,-1.1445,-0.0331,
24.909443,1.0780,-1.0340,0.1302,0.6156,-1.0116,-0.2544,
24.946652,1.0780,-1.0340,0.1302,0.6156,-1.0116,-0.2544,
24.947754,2.7433,-0.4267,1.1776,0.6156,-1.0116,-0.2544,
24.975529,2.7433,-0.4267,1.1776,0.3922,-0.6309,-0.3655,
25.012041,2.7433,-0.4267,1.1776,0.3922,-0.6309,-0.3655,
25.013476,2.2999,0.7875,1.9280,0.3922,-0.6309,-0.3655,
25.040242,2.2999,0.7875,1.9280,0.2372,-0.1449,-0.0600,
25.078297,2.2999,0.7875,1.9280,0.2372,-0.1449,-0.0600,
25.079773,5.3419,2.3337,0.7145,0.2372,-0.1449,-0.0600,
25.106304,5.3419,2.3337,0.7145,-0.3358,0.0761,0.7233,
25.143519,5.3419,2.3337,0.7145,-0.3358,0.0761,0.7233,
25.145292,0.5481,1.5917,-3.6410,-0.3358,0.0761,0.7233,
25.173037,0.5481,1.5917,-3.6410,-1.2595,1.1999,1.6825,
25.208826,0.5481,1.5917,-3.6410,-1.2595,1.1999,1.6825,
25.210368,-1.9168,2.8425,-1.4336,-1.2595,1.1999,1.6825,
25.237205,-1.9168,2.8425,-1.4336,-0.9879,1.1492,0.1144,
25.274458,-1.9168,2.8425,-1.4336,-0.9879,1.1492,0.1144,
25.276092,1.9179,-1.2051,-1.0697,-0.9879,1.1492,0.1144,
25.303028,1.9179,-1.2051,-1.0697,-0.7986,3.4063,-0.2996,
25.339678,1.9179,-1.2051,-1.0697,-0.7986,3.4063,-0.2996,
25.341432,1.1553,-1.2541,-2.3920,-0.7986,3.4063,-0.2996,
25.368082,1.1553,-1.2541,-2.3920,-0.2976,3.0717,0.2796,
25.406113,1.1553,-1.2541,-2.3920,-0.2976,3.0717,0.2796,
25.407732,-1.8049,-1.1626,-1.6779,-0.2976,3.0717,0.2796,
25.433328,-1.8049,-1.1626,-1.6779,0.0799,2.2868,0.4911,
25.470488,-1.8049,-1.1626,-1.6779,0.0799,2.2868,0.4911,
25.472093,-1.2658,-3.7765,-1.3725,0.0799,2.2868,0.4911,
25.498373,-1.2658,-3.7765,-1.3725,0.5855,1.6739,0.1171,
25.536179,-1.2658,-3.7765,-1.3725,0.5855,1.6739,0.1171,
25.537828,-1.5060,-0.9735,-0.6123,0.5855,1.6739,0.1171,
25.564977,-1.5060,-0.9735,-0.6123,0.2792,1.0062,0.0444,
25.601483,-1.5060,-0.9735,-0.6123,0.2792,1.0062,0.0444,
25.603536,0.4214,2.6856,3.6731,0.2792,1.0062,0.0444,
25.629906,0.4214,2.6856,3.6731,-0.7081,0.2611,0.2715,
25.667799,0.4214,2.6856,3.6731,-0.7081,0.2611,0.2715,
25.669713,0.2701,9.1631,2.6138,-0.7081,0.2611,0.2715,
25.696867,0.2701,9.1631,2.6138,-0.4737,-0.3122,-0.4039,
25.732907,0.2701,9.1631,2.6138,-0.4737,-0.3122,-0.4039,
25.735026,0.7656,-4.4003,-3.0929,-0.4737,-0.3122,-0.4039,
25.761189,0.7656,-4.4003,-3.0929,1.3120,0.5803,0.1026,
25.799230,0.7656,-4.4003,-3.0929,1.3120,0.5803,0.1026,
25.800836,-0.4520,4.5251,-1.8968,1.3120,0.5803,0.1026,
25.826484,-0.4520,4.5251,-1.8968,0.9552,-0.1153,-0.0177,
25.863556,-0.4520,4.5251,-1.8968,0.9552,-0.1153,-0.0177,
25.865659,-0.0896,-2.9608,-1.8156,0.9552,-0.1153,-0.0177,
25.891711,-0.0896,-2.9608,-1.8156,1.0179,-1.1843,0.0951,
25.929584,-0.0896,-2.9608,-1.8156,1.0179,-1.1843,0.0951,
25.931169,1.6038,-2.2532,-0.4823,1.0179,-1.1843,0.0951,
25.957312,1.6038,-2.2532,-0.4823,0.6148,-1.0017,-0.2144,
25.994944,1.6038,-2.2532,-0.4823,0.6148,-1.0017,-0.2144,
25.996087,2.0499,-2.0084,0.4757,0.6148,-1.0017,-0.2144,
26.023427,2.0499,-2.0084,0.4757,0.5907,-0.6254,-0.1839,
26.060226,2.0499,-2.0084,0.4757,0.5907,-0.6254,-0.1839,
26.061873,2.7077,-0.3190,1.3372,0.5907,-0.6254,-0.1839,
26.089190,2.7077,-0.3190,1.3372,0.5348,-0.2027,-0.4924,
26.126003,2.7077,-0.3190,1.3372,0.5348,-0.2027,-0.4924,
26.127255,3.0303,1.4661,0.5860,0.5348,-0.2027,-0.4924,
26.155479,3.0303,1.4661,0.5860,0.1616,0.0582,0.0611,
26.191600,3.0303,1.4661,0.5860,0.1616,0.0582,0.0611,
26.193296,3.2306,2.4190,0.2559,0.1616,0.0582,0.0611,
26.219167,3.2306,2.4190,0.2559,-0.2304,0.3569,0.8201,
26.258980,3.2306,2.4190,0.2559,-0.2304,0.3569,0.8201,
26.260855,-1.2825,1.8640,-4.0200,-0.2304,0.3569,0.8201,
26.285297,-1.2825,1.8640,-4.0200,-1.4716,0.3751,0.9853,
26.322219,-1.2825,1.8640,-4.0200,-1.4716,0.3751,0.9853,
26.323929,-1.6660,1.7955,-0.7893,-1.4716,0.3751,0.9853,
26.351123,-1.6660,1.7955,-0.7893,-1.3094,0.5354,-0.0712,
26.388911,-1.6660,1.7955,-0.7893,-1.3094,0.5354,-0.0712,
26.390577,2.5516,-1.8438,-1.8070,-1.3094,0.5354,-0.0712,
26.416212,2.5516,-1.8438,-1.8070,-0.9149,2.7184,-0.1686,
26.453021,2.5516,-1.8438,-1.8070,-0.9149,2.7184,-0.1686,
26.454696,-1.3396,-1.1031,0.0214,-0.9149,2.7184,-0.1686,
26.481500,-1.3396,-1.1031,0.0214,-0.2085,1.6189,0.2972,
26.518409,-1.3396,-1.1031,0.0214,-0.2085,1.6189,0.2972,
26.519940,-0.9467,-3.0925,-1.0488,-0.2085,1.6189,0.2972,
26.548125,-0.9467,-3.0925,-1.0488,0.3693,1.4919,0.2071,
26.584503,-0.9467,-3.0925,-1.0488,0.3693,1.4919,0.2071,
26.586264,-0.8242,-3.5405,-0.3770,0.3693,1.4919,0.2071,
26.612029,-0.8242,-3.5405,-0.3770,0.9919,1.3857,-0.0127,
26.650776,-0.8242,-3.5405,-0.3770,0.9919,1.3857,-0.0127,
26.652296,-1.2718,3.8386,1.8405,0.9919,1.3857,-0.0127,
26.679301,-1.2718,3.8386,1.8405,-0.2140,0.8010,0.2343,
26.715424,-1.2718,3.8386,1.8405,-0.2140,0.8010,0.2343,
26.717499,0.1882,0.8957,2.0215,-0.2140,0.8010,0.2343,
26.743176,0.1882,0.8957,2.0215,-1.1141,0.5725,-0.1649,
26.780012,0.1882,0.8957,2.0215,-1.1141,0.5725,-0.1649,
26.782643,-2.6181,2.1659,-3.4152,-1.1141,0.5725,-0.1649,
26.809714,-2.6181,2.1659,-3.4152,0.4070,-0.1133,-0.3022,
26.846931,-2.6181,2.1659,-3.4152,0.4070,-0.1133,-0.3022,
26.848936,2.0944,-1.9298,-4.4146,0.4070,-0.1133,-0.3022,
26.875262,2.0944,-1.9298,-4.4146,1.0403,0.5935,-0.1177,
26.911764,2.0944,-1.9298,-4.4146,1.0403,0.5935,-0.1177,
26.913771,-2.9849,0.6822,0.7960,1.0403,0.5935,-0.1177,
26.940320,-2.9849,0.6822,0.7960,0.5841,-1.3859,0.4798,
26.979007,-2.9849,0.6822,0.7960,0.5841,-1.3859,0.4798,
26.981037,1.1967,-3.0303,-1.6184,0.5841,-1.3859,0.4798,
27.005275,1.1967,-3.0303,-1.6184,1.1086,-1.4003,0.0583,
27.042421,1.1967,-3.0303,-1.6184,1.1086,-1.4003,0.0583,
27.044345,1.6214,-0.6995,0.3762,1.1086,-1.4003,0.0583,
27.070399,1.6214,-0.6995,0.3762,0.7459,-1.1399,-0.0495,
27.107749,1.6214,-0.6995,0.3762,0.7459,-1.1399,-0.0495,
27.109851,1.9760,-1.3213,1.0712,0.7459,-1.1399,-0.0495,
27.136954,1.9760,-1.3213,1.0712,0.7399,-0.6096,-0.4505,
27.174237,1.9760,-1.3213,1.0712,0.7399,-0.6096,-0.4505,
27.175848,1.2472,1.0590,0.6210,0.7399,-0.6096,-0.4505,
27.203257,1.2472,1.0590,0.6210,0.1385,-0.4731,-0.0021,
27.239479,1.2472,1.0590,0.6210,0.1385,-0.4731,-0.0021,
27.241587,4.2129,2.6789,1.2193,0.1385,-0.4731,-0.0021,
27.267494,4.2129,2.6789,1.2193,0.1040,-0.1848,0.9047,
27.304278,4.2129,2.6789,1.2193,0.1040,-0.1848,0.9047,
27.305488,-0.8636,2.9938,-3.8781,0.1040,-0.1848,0.9047,
27.331945,-0.8636,2.9938,-3.8781,-1.9419,-0.1171,0.9746,
27.370208,-0.8636,2.9938,-3.8781,-1.9419,-0.1171,0.9746,
27.371789,-2.9661,1.3634,-1.1818,-1.9419,-0.1171,0.9746,
27.398176,-2.9661,1.3634,-1.1818,-1.2874,0.1229,0.0049,
27.436708,-2.9661,1.3634,-1.1818,-1.2874,0.1229,0.0049,
27.438766,0.5655,-0.8098,-0.6229,-1.2874,0.1229,0.0049,
27.463980,0.5655,-0.8098,-0.6229,-1.3123,1.0171,-0.1232,
27.500848,0.5655,-0.8098,-0.6229,-1.3123,1.0171,-0.1232,
27.502236,-0.1844,-3.3462,-1.0024,-1.3123,1.0171,-0.1232,
27.528893,-0.1844,-3.3462,-1.0024,-0.4914,1.7335,0.1422,
27.566094,-0.1844,-3.3462,-1.0024,-0.4914,1.7335,0.1422,
27.567480,-0.5315,-1.9785,0.0120,-0.4914,1.7335,0.1422,
27.595307,-0.5315,-1.9785,0.0120,0.5150,1.5163,0.0588,
27.633301,-0.5315,-1.9785,0.0120,0.5150,1.5163,0.0588,
27.634673,0.1867,-2.7418,0.9123,0.5150,1.5163,0.0588,
27.661482,0.1867,-2.7418,0.9123,0.5683,1.8903,-0.0849,
27.698688,0.1867,-2.7418,0.9123,0.5683,1.8903,-0.0849,
27.700385,0.6452,2.3116,0.9819,0.5683,1.8903,-0.0849,
27.726598,0.6452,2.3116,0.9819,-0.5545,2.1878,0.1576,
27.763023,0.6452,2.3116,0.9819,-0.5545,2.1878,0.1576,
27.764973,-2.3104,1.5936,0.8873,-0.5545,2.1878,0.1576,
27.791691,-2.3104,1.5936,0.8873,-0.2976,0.5808,-0.3636,
27.827657,-2.3104,1.5936,0.8873,-0.2976,0.5808,-0.3636,
27.829469,-2.7362,0.0391,-0.9146,-0.2976,0.5808,-0.3636,
27.856450,-2.7362,0.0391,-0.9146,0.7002,-0.2578,-0.0944,
27.893909,-2.7362,0.0391,-0.9146,0.7002,-0.2578,-0.0944,
27.896125,2.3932,1.2078,-5.1121,0.7002,-0.2578,-0.0944,
27.923917,2.3932,1.2078,-5.1121,1.3114,0.2060,-0.1466,
27.960260,2.3932,1.2078,-5.1121,1.3114,0.2060,-0.1466,
27.962215,-1.8177,-1.2007,-0.9288,1.3114,0.2060,-0.1466,
27.987182,-1.8177,-1.2007,-0.9288,0.9992,-0.6895,0.0351,
28.024464,-1.8177,-1.2007,-0.9288,0.9992,-0.6895,0.0351,
28.026239,2.5493,-0.8635,-1.1187,0.9992,-0.6895,0.0351,
28.052058,2.5493,-0.8635,-1.1187,0.6403,-0.7051,-0.1684,
28.090068,2.5493,-0.8635,-1.1187,0.6403,-0.7051,-0.1684,
28.091438,1.8162,-1.6021,0.0992,0.6403,-0.7051,-0.1684,
28.119485,1.8162,-1.6021,0.0992,0.3477,-0.4123,-0.1214,
28.155378,1.8162,-1.6021,0.0992,0.3477,-0.4123,-0.1214,
28.156426,2.6136,-1.2199,0.4545,0.3477,-0.4123,-0.1214,
28.186383,2.6136,-1.2199,0.4545,0.4986,-0.0634,-0.3468,
28.221987,2.6136,-1.2199,0.4545,0.4986,-0.0634,-0.3468,
28.223721,1.8521,0.7103,1.0380,0.4986,-0.0634,-0.3468,
28.249200,1.8521,0.7103,1.0380,0.1848,0.1556,-0.3038,
28.288968,1.8521,0.7103,1.0380,0.1848,0.1556,-0.3038,
28.291515,2.9420,1.8645,-0.1029,0.1848,0.1556,-0.3038,
28.315730,2.9420,1.8645,-0.1029,-0.2422,0.5901,0.5696,
28.352097,2.9420,1.8645,-0.1029,-0.2422,0.5901,0.5696,
28.353759,0.9794,2.1299,-2.6755,-0.2422,0.5901,0.5696,
28.379579,0.9794,2.1299,-2.6755,-1.1814,0.3320,1.0568,
28.418625,0.9794,2.1299,-2.6755,-1.1814,0.3320,1.0568,
28.421119,-0.1133,0.5098,0.2084,-1.1814,0.3320,1.0568,
28.445967,-0.1133,0.5098,0.2084,-1.0495,2.0458,-0.0133,
28.484260,-0.1133,0.5098,0.2084,-1.0495,2.0458,-0.0133,
28.486338,3.1195,-1.3217,-1.9062,-1.0495,2.0458,-0.0133,
28.512136,3.1195,-1.3217,-1.9062,-0.8073,3.2019,0.0206,
28.548937,3.1195,-1.3217,-1.9062,-0.8073,3.2019,0.0206,
28.550147,-0.6678,-0.1504,-1.0455,-0.8073,3.2019,0.0206,
28.577329,-0.6678,-0.1504,-1.0455,-0.3664,2.6722,0.5759,
28.613731,-0.6678,-0.1504,-1.0455,-0.3664,2.6722,0.5759,
28.615449,-0.0340,-2.0279,-1.5827,-0.3664,2.6722,0.5759,
28.642124,-0.0340,-2.0279,-1.5827,0.1442,2.5650,0.2359,
28.679185,-0.0340,-2.0279,-1.5827,0.1442,2.5650,0.2359,
28.681679,0.0181,-2.2775,-1.7383,0.1442,2.5650,0.2359,
28.708106,0.0181,-2.2775,-1.7383,0.9000,2.0853,0.1781,
28.744969,0.0181,-2.2775,-1.7383,0.9000,2.0853,0.1781,
28.746621,-2.2324,1.2603,-0.1926,0.9000,2.0853,0.1781,
28.774799,-2.2324,1.2603,-0.1926,-0.1280,1.1548,0.1226,
28.810593,-2.2324,1.2603,-0.1926,-0.1280,1.1548,0.1226,
28.812297,0.1209,2.1193,4.1809,-0.1280,1.1548,0.1226,
28.839707,0.1209,2.1193,4.1809,-0.1187,0.3025,0.2233,
28.876420,0.1209,2.1193,4.1809,-0.1187,0.3025,0.2233,
28.878493,2.0227,0.6939,-0.2895,-0.1187,0.3025,0.2233,
28.904648,2.0227,0.6939,-0.2895,-0.8457,0.9026,-0.3034,
28.941207,2.0227,0.6939,-0.2895,-0.8457,0.9026,-0.3034,
28.942814,-4.6389,-2.5415,-3.6404,-0.8457,0.9026,-0.3034,
28.969542,-4.6389,-2.5415,-3.6404,0.6900,0.7395,0.0780,
29.007080,-4.6389,-2.5415,-3.6404,0.6900,0.7395,0.0780,
29.009047,1.2229,2.2669,-4.2046,0.6900,0.7395,0.0780,
29.035131,1.2229,2.2669,-4.2046,1.1306,-0.0709,-0.0846,
29.072151,1.2229,2.2669,-4.2046,1.1306,-0.0709,-0.0846,
29.073930,-1.8037,-1.2294,0.1698,1.1306,-0.0709,-0.0846,
29.100349,-1.8037,-1.2294,0.1698,0.6944,-1.3514,0.6246,
29.137116,-1.8037,-1.2294,0.1698,0.6944,-1.3514,0.6246,
29.139138,1.0149,-2.1254,-1.2307,0.6944,-1.3514,0.6246,
29.165212,1.0149,-2.1254,-1.2307,0.9166,-1.5782,0.1955,
29.203290,1.0149,-2.1254,-1.2307,0.9166,-1.5782,0.1955,
29.205403,1.3607,-0.5183,0.2603,0.9166,-1.5782,0.1955,
29.233116,1.3607,-0.5183,0.2603,0.3917,-1.3964,-0.0669,
29.269091,1.3607,-0.5183,0.2603,0.3917,-1.3964,-0.0669,
29.270653,2.5969,-0.8820,1.4860,0.3917,-1.3964,-0.0669,
29.297075,2.5969,-0.8820,1.4860,0.4585,-0.6946,-0.3882,
29.334698,2.5969,-0.8820,1.4860,0.4585,-0.6946,-0.3882,
29.336241,2.3504,1.1970,1.1821,0.4585,-0.6946,-0.3882,
29.361853,2.3504,1.1970,1.1821,0.1549,-0.1526,0.2509,
29.399193,2.3504,1.1970,1.1821,0.1549,-0.1526,0.2509,
29.401080,2.5038,3.3429,0.1994,0.1549,-0.1526,0.2509,
29.429238,2.5038,3.3429,0.1994,0.0116,0.0455,1.4337,
29.464702,2.5038,3.3429,0.1994,0.0116,0.0455,1.4337,
29.466546,-3.0591,2.5584,-3.7854,0.0116,0.0455,1.4337,
29.492776,-3.0591,2.5584,-3.7854,-1.8772,-0.8587,0.4953,
29.529779,-3.0591,2.5584,-3.7854,-1.8772,-0.8587,0.4953,
29.531264,-1.4318,0.7832,-0.8997,-1.8772,-0.8587,0.4953,
29.558289,-1.4318,0.7832,-0.8997,-1.5530,-0.2694,-0.0997,
29.595902,-1.4318,0.7832,-0.8997,-1.5530,-0.2694,-0.0997,
29.597346,0.8888,-2.5807,-0.2425,-1.5530,-0.2694,-0.0997,
29.624133,0.8888,-2.5807,-0.2425,-0.9250,0.9797,-0.0073,
29.662396,0.8888,-2.5807,-0.2425,-0.9250,0.9797,-0.0073,
29.663932,-1.2629,-1.7290,0.7105,-0.9250,0.9797,-0.0073,
29.690517,-1.2629,-1.7290,0.7105,-0.0609,0.3793,0.0403,
29.728261,-1.2629,-1.7290,0.7105,-0.0609,0.3793,0.0403,
29.730011,-0.8034,-2.3882,0.5963,-0.0609,0.3793,0.0403,
29.755510,-0.8034,-2.3882,0.5963,0.3424,0.6924,-0.0825,
29.793123,-0.8034,-2.3882,0.5963,0.3424,0.6924,-0.0825,
29.794556,0.8664,-1.3769,1.2034,0.3424,0.6924,-0.0825,
29.820615,0.8664,-1.3769,1.2034,0.3557,0.9627,-0.1003,
29.859036,0.8664,-1.3769,1.2034,0.3557,0.9627,-0.1003,
29.860818,-1.1708,2.5711,3.3603,0.3557,0.9627,-0.1003,
29.886132,-1.1708,2.5711,3.3603,-1.2026,0.7782,0.1133,
29.923392,-1.1708,2.5711,3.3603,-1.2026,0.7782,0.1133,
29.925106,-2.7600,3.1507,-0.3079,-1.2026,0.7782,0.1133,
29.951314,-2.7600,3.1507,-0.3079,0.4264,-1.0896,0.0238,
29.989260,-2.7600,3.1507,-0.3079,0.4264,-1.0896,0.0238,
29.990943,0.1196,-2.4620,-3.5284,0.4264,-1.0896,0.0238,
30.017186,0.1196,-2.4620,-3.5284,0.9001,0.4837,-0.7868,
30.054554,0.1196,-2.4620,-3.5284,0.9001,0.4837,-0.7868,
30.056065,-2.6123,0.9118,0.1097,0.9001,0.4837,-0.7868,
30.082575,-2.6123,0.9118,0.1097,0.8158,-0.9847,0.1544,
30.119606,-2.6123,0.9118,0.1097,0.8158,-0.9847,0.1544,
30.121473,0.3110,-1.7497,-2.0303,0.8158,-0.9847,0.1544,
30.148096,0.3110,-1.7497,-2.0303,0.9600,-1.6018,0.1717,
30.185761,0.3110,-1.7497,-2.0303,0.9600,-1.6018,0.1717,
30.187334,0.7076,-0.8949,0.1995,0.9600,-1.6018,0.1717,
30.213483,0.7076,-0.8949,0.1995,0.6277,-1.7006,0.0012,
30.250477,0.7076,-0.8949,0.1995,0.6277,-1.7006,0.0012,
30.252052,1.8078,-1.2424,0.8279,0.6277,-1.7006,0.0012,
30.279862,1.8078,-1.2424,0.8279,0.5799,-1.3792,-0.2358,
30.316408,1.8078,-1.2424,0.8279,0.5799,-1.3792,-0.2358,
30.318395,1.5355,0.8260,1.3267,0.5799,-1.3792,-0.2358,
30.345829,1.5355,0.8260,1.3267,0.3795,-0.9473,-0.1633,
30.382997,1.5355,0.8260,1.3267,0.3795,-0.9473,-0.1633,
30.384694,4.4512,1.7790,1.8146,0.3795,-0.9473,-0.1633,
30.410281,4.4512,1.7790,1.8146,0.2578,-0.3122,0.7500,
30.448953,4.4512,1.7790,1.8146,0.2578,-0.3122,0.7500,
30.450990,-1.1418,4.0399,-2.2497,0.2578,-0.3122,0.7500,
30.476103,-1.1418,4.0399,-2.2497,-1.3567,-0.6880,1.1900,
30.512681,-1.1418,4.0399,-2.2497,-1.3567,-0.6880,1.1900,
30.513479,-4.5597,-0.1894,2.6719,-1.3567,-0.6880,1.1900,
30.541497,-4.5597,-0.1894,2.6719,-1.5307,-0.9598,0.1975,
30.578901,-4.5597,-0.1894,2.6719,-1.5307,-0.9598,0.1975,
30.579445,2.5052,-0.2685,-0.7447,-1.5307,-0.9598,0.1975,
30.606256,2.5052,-0.2685,-0.7447,-1.2871,1.1426,-0.3749,
30.643502,2.5052,-0.2685,-0.7447,-1.2871,1.1426,-0.3749,
30.644127,-0.9058,-1.6695,0.4033,-1.2871,1.1426,-0.3749,
30.671976,-0.9058,-1.6695,0.4033,-0.6946,1.1161,0.1909,
30.709537,-0.9058,-1.6695,0.4033,-0.6946,1.1161,0.1909,
30.710320,-0.9271,-2.4502,0.2277,-0.6946,1.1161,0.1909,
30.737771,-0.9271,-2.4502,0.2277,0.1594,1.0316,0.0079,
30.774808,-0.9271,-2.4502,0.2277,0.1594,1.0316,0.0079,
30.775290,-0.4335,-3.4110,0.1803,0.1594,1.0316,0.0079,
30.803565,-0.4335,-3.4110,0.1803,0.7915,1.5611,-0.2340,
30.840261,-0.4335,-3.4110,0.1803,0.7915,1.5611,-0.2340,
30.840916,-0.0990,1.5535,1.0834,0.7915,1.5611,-0.2340,
30.868505,-0.0990,1.5535,1.0834,0.0380,1.3027,-0.1834,
30.905493,-0.0990,1.5535,1.0834,0.0380,1.3027,-0.1834,
30.907007,-0.3670,1.9675,1.9616,0.0380,1.3027,-0.1834,
30.933231,-0.3670,1.9675,1.9616,-1.5365,0.6115,-0.0736,
30.970765,-0.3670,1.9675,1.9616,-1.5365,0.6115,-0.0736,
30.972482,-4.6109,1.6799,-3.5418,-1.5365,0.6115,-0.0736,
30.998984,-4.6109,1.6799,-3.5418,0.2996,-0.4304,-0.3291,
31.036168,-4.6109,1.6799,-3.5418,0.2996,-0.4304,-0.3291,
31.037960,2.0404,-1.7986,-4.9258,0.2996,-0.4304,-0.3291,
31.064972,2.0404,-1.7986,-4.9258,1.2376,0.0388,-0.3906,
31.102089,2.0404,-1.7986,-4.9258,1.2376,0.0388,-0.3906,
31.104026,-1.8645,-0.1568,0.5126,1.2376,0.0388,-0.3906,
31.130011,-1.8645,-0.1568,0.5126,0.6510,-1.5698,0.2077,
31.167182,-1.8645,-0.1568,0.5126,0.6510,-1.5698,0.2077,
31.169063,1.7837,-2.3034,-2.0659,0.6510,-1.5698,0.2077,
31.195238,1.7837,-2.3034,-2.0659,1.0372,-1.4122,-0.2989,
31.233467,1.7837,-2.3034,-2.0659,1.0372,-1.4122,-0.2989,
31.235020,1.5441,-0.6310,-0.1278,1.0372,-1.4122,-0.2989,
31.261264,1.5441,-0.6310,-0.1278,0.4244,-0.9752,-0.4221,
31.298134,1.5441,-0.6310,-0.1278,0.4244,-0.9752,-0.4221,
31.299606,2.4403,-0.1110,0.8699,0.4244,-0.9752,-0.4221,
31.326602,2.4403,-0.1110,0.8699,0.1859,-0.6220,-0.2430,
31.364152,2.4403,-0.1110,0.8699,0.1859,-0.6220,-0.2430,
31.366326,2.2527,1.0849,1.3287,0.1859,-0.6220,-0.2430,
31.393570,2.2527,1.0849,1.3287,-0.0990,-0.7446,0.0712,
31.430061,2.2527,1.0849,1.3287,-0.0990,-0.7446,0.0712,
31.431339,5.6579,1.6069,-3.9949,-0.0990,-0.7446,0.0712,
31.458451,5.6579,1.6069,-3.9949,-0.4235,1.6049,1.2714,
31.494766,5.6579,1.6069,-3.9949,-0.4235,1.6049,1.2714,
31.496152,-1.6404,3.4524,-0.8743,-0.4235,1.6049,1.2714,
31.523136,-1.6404,3.4524,-0.8743,-0.9401,0.8015,0.5142,
31.560412,-1.6404,3.4524,-0.8743,-0.9401,0.8015,0.5142,
31.562199,3.2900,1.6368,-2.0886,-0.9401,0.8015,0.5142,
31.588335,3.2900,1.6368,-2.0886,-0.8329,3.5791,-0.1793,
31.626354,3.2900,1.6368,-2.0886,-0.8329,3.5791,-0.1793,
31.627255,2.6476,-3.2596,-3.5555,-0.8329,3.5791,-0.1793,
31.654671,2.6476,-3.2596,-3.5555,-0.5099,4.7896,-0.0374,
31.693371,2.6476,-3.2596,-3.5555,-0.5099,4.7896,-0.0374,
31.694226,-0.5935,1.1169,-1.5043,-0.5099,4.7896,-0.0374,
31.720421,-0.5935,1.1169,-1.5043,-0.3555,3.2944,0.8548,
31.756716,-0.5935,1.1169,-1.5043,-0.3555,3.2944,0.8548,
31.758422,0.4487,-1.7602,-2.8882,-0.3555,3.2944,0.8548,
31.784789,0.4487,-1.7602,-2.8882,0.1206,3.0910,0.6773,
31.822045,0.4487,-1.7602,-2.8882,0.1206,3.0910,0.6773,
31.823240,-1.2187,-2.3717,-1.6740,0.1206,3.0910,0.6773,
31.849898,-1.2187,-2.3717,-1.6740,0.4934,2.3133,0.0564,
31.887500,-1.2187,-2.3717,-1.6740,0.4934,2.3133,0.0564,
31.889358,-1.0318,0.4331,1.5412,0.4934,2.3133,0.0564,
31.916033,-1.0318,0.4331,1.5412,-0.2242,1.5501,0.1614,
31.953576,-1.0318,0.4331,1.5412,-0.2242,1.5501,0.1614,
31.955226,0.0300,-1.1616,1.8291,-0.2242,1.5501,0.1614,
31.981240,0.0300,-1.1616,1.8291,-0.9548,-0.1242,0.3042,
32.018850,0.0300,-1.1616,1.8291,-0.9548,-0.1242,0.3042,
32.020991,0.8916,3.5391,-4.6282,-0.9548,-0.1242,0.3042,
32.047125,0.8916,3.5391,-4.6282,0.1471,1.1556,0.4473,
32.084070,0.8916,3.5391,-4.6282,0.1471,1.1556,0.4473,
32.086390,2.0532,-0.4677,-4.8573,0.1471,1.1556,0.4473,
32.112340,2.0532,-0.4677,-4.8573,1.1284,0.8993,-0.0093,
32.150000,2.0532,-0.4677,-4.8573,1.1284,0.8993,-0.0093,
32.151520,0.8678,2.5735,-1.2631,1.1284,0.8993,-0.0093,
32.179200,0.8678,2.5735,-1.2631,0.8209,0.0849,0.2271,
32.214259,0.8678,2.5735,-1.2631,0.8209,0.0849,0.2271,
32.214943,0.3577,-1.9547,-0.6870,0.8209,0.0849,0.2271,
32.243627,0.3577,-1.9547,-0.6870,0.6046,-0.1796,0.1278,
32.280445,0.3577,-1.9547,-0.6870,0.6046,-0.1796,0.1278,
32.281773,0.6912,-2.5120,0.3831,0.6046,-0.1796,0.1278,
32.309330,0.6912,-2.5120,0.3831,0.4745,-0.5980,-0.1718,
32.345675,0.6912,-2.5120,0.3831,0.4745,-0.5980,-0.1718,
32.346905,1.9463,-2.3276,0.9320,0.4745,-0.5980,-0.1718,
32.374449,1.9463,-2.3276,0.9320,0.6180,-0.5421,-0.3830,
32.411494,1.9463,-2.3276,0.9320,0.6180,-0.5421,-0.3830,
32.413089,2.8552,1.5481,2.3955,0.6180,-0.5421,-0.3830,
32.440262,2.8552,1.5481,2.3955,0.3170,-0.0770,-0.0338,
32.477156,2.8552,1.5481,2.3955,0.3170,-0.0770,-0.0338,
32.477751,6.8028,4.3304,-0.4727,0.3170,-0.0770,-0.0338,
32.505414,6.8028,4.3304,-0.4727,-0.4275,1.2199,0.9924,
32.542367,6.8028,4.3304,-0.4727,-0.4275,1.2199,0.9924,
32.542874,-2.6185,2.2618,-3.9367,-0.4275,1.2199,0.9924,
32.570923,-2.6185,2.2618,-3.9367,-1.9099,0.5600,0.6771,
32.608004,-2.6185,2.2618,-3.9367,-1.9099,0.5600,0.6771,
32.608558,0.4063,1.6405,-1.7161,-1.9099,0.5600,0.6771,
32.636024,0.4063,1.6405,-1.7161,-1.3700,1.4459,0.2324,
32.673136,0.4063,1.6405,-1.7161,-1.3700,1.4459,0.2324,
32.673726,0.0175,-0.9936,-0.6647,-1.3700,1.4459,0.2324,
32.700552,0.0175,-0.9936,-0.6647,-0.8493,1.7871,0.2271,
32.739174,0.0175,-0.9936,-0.6647,-0.8493,1.7871,0.2271,
32.740894,-0.0711,-2.5124,-0.8608,-0.8493,1.7871,0.2271,
32.766990,-0.0711,-2.5124,-0.8608,-0.2711,2.0026,0.3326,
32.804932,-0.0711,-2.5124,-0.8608,-0.2711,2.0026,0.3326,
32.806506,0.1627,-3.6671,-0.8730,-0.2711,2.0026,0.3326,
32.832166,0.1627,-3.6671,-0.8730,0.7427,2.0395,0.0232,
32.868839,0.1627,-3.6671,-0.8730,0.7427,2.0395,0.0232,
32.870468,0.4959,-1.1862,0.9432,0.7427,2.0395,0.0232,
32.898686,0.4959,-1.1862,0.9432,0.5272,1.4786,0.0411,
32.937016,0.4959,-1.1862,0.9432,0.5272,1.4786,0.0411,
32.938525,-1.6584,3.4477,3.6630,0.5272,1.4786,0.0411,
32.965188,-1.6584,3.4477,3.6630,-1.2799,1.0201,0.1443,
33.001561,-1.6584,3.4477,3.6630,-1.2799,1.0201,0.1443,
33.004037,-0.8191,6.1457,-0.8559,-1.2799,1.0201,0.1443,
33.029467,-0.8191,6.1457,-0.8559,0.3267,-0.6413,0.2030,
33.066576,-0.8191,6.1457,-0.8559,0.3267,-0.6413,0.2030,
33.068619,2.0063,-3.9504,-5.2307,0.3267,-0.6413,0.2030,
33.094225,2.0063,-3.9504,-5.2307,1.6893,1.7094,-0.3387,
33.133014,2.0063,-3.9504,-5.2307,1.6893,1.7094,-0.3387,
33.134718,-4.3195,2.6424,0.8305,1.6893,1.7094,-0.3387,
33.160811,-4.3195,2.6424,0.8305,0.8964,-0.7124,0.3004,
33.197162,-4.3195,2.6424,0.8305,0.8964,-0.7124,0.3004,
33.198761,1.3123,-2.4469,-2.2407,0.8964,-0.7124,0.3004,
33.226198,1.3123,-2.4469,-2.2407,1.0721,-0.8306,0.2534,
33.263088,1.3123,-2.4469,-2.2407,1.0721,-0.8306,0.2534,
33.264788,1.3371,-1.1017,0.0767,1.0721,-0.8306,0.2534,
33.290856,1.3371,-1.1017,0.0767,0.5470,-0.7230,-0.0319,
33.328713,1.3371,-1.1017,0.0767,0.5470,-0.7230,-0.0319,
33.330260,0.9337,-0.4175,1.0708,0.5470,-0.7230,-0.0319,
33.357851,0.9337,-0.4175,1.0708,0.5880,-0.8751,-0.2373,
33.394018,0.9337,-0.4175,1.0708,0.5880,-0.8751,-0.2373,
33.395685,0.8033,0.4379,1.6175,0.5880,-0.8751,-0.2373,
33.422903,0.8033,0.4379,1.6175,0.3529,-0.9956,-0.2300,
33.459555,0.8033,0.4379,1.6175,0.3529,-0.9956,-0.2300,
33.461872,6.7821,1.7835,1.3148,0.3529,-0.9956,-0.2300,
33.487741,6.7821,1.7835,1.3148,0.3619,0.1910,0.5647,
33.525098,6.7821,1.7835,1.3148,0.3619,0.1910,0.5647,
33.527282,0.3502,2.7231,-3.0144,0.3619,0.1910,0.5647,
33.553962,0.3502,2.7231,-3.0144,-1.1047,0.4866,0.9180,
33.590791,0.3502,2.7231,-3.0144,-1.1047,0.4866,0.9180,
33.593168,-5.5510,1.8713,1.9748,-1.1047,0.4866,0.9180,
33.619532,-5.5510,1.8713,1.9748,-1.3496,-0.1999,0.3457,
33.655528,-5.5510,1.8713,1.9748,-1.3496,-0.1999,0.3457,
33.656209,1.9671,-0.6727,-1.6733,-1.3496,-0.1999,0.3457,
33.682599,1.9671,-0.6727,-1.6733,-1.1826,1.1464,-0.2427,
33.721060,1.9671,-0.6727,-1.6733,-1.1826,1.1464,-0.2427,
33.721617,-0.9144,-2.2887,-0.4643,-1.1826,1.1464,-0.2427,
33.748003,-0.9144,-2.2887,-0.4643,-0.6900,1.1741,0.1321,
33.785363,-0.9144,-2.2887,-0.4643,-0.6900,1.1741,0.1321,
33.785841,-0.7303,-2.7902,-0.3866,-0.6900,1.1741,0.1321,
33.814229,-0.7303,-2.7902,-0.3866,0.0560,1.1697,0.2521,
33.851571,-0.7303,-2.7902,-0.3866,0.0560,1.1697,0.2521,
33.852079,-1.1891,-3.2336,0.3456,0.0560,1.1697,0.2521,
33.880056,-1.1891,-3.2336,0.3456,0.8184,1.1264,0.2031,
33.917247,-1.1891,-3.2336,0.3456,0.8184,1.1264,0.2031,
33.918782,0.3854,-0.4164,1.1802,0.8184,1.1264,0.2031,
33.945632,0.3854,-0.4164,1.1802,0.4339,1.2591,0.0809,
33.982391,0.3854,-0.4164,1.1802,0.4339,1.2591,0.0809,
33.984204,0.3763,4.5231,3.6081,0.4339,1.2591,0.0809,
34.010649,0.3763,4.5231,3.6081,-1.6470,1.2052,0.1509,
34.047509,0.3763,4.5231,3.6081,-1.6470,1.2052,0.1509,
34.049181,-2.4266,5.2501,-0.6370,-1.6470,1.2052,0.1509,
34.076035,-2.4266,5.2501,-0.6370,0.1336,-0.5173,-0.1738,
34.113928,-2.4266,5.2501,-0.6370,0.1336,-0.5173,-0.1738,
34.116100,1.6729,-5.9392,-4.6769,0.1336,-0.5173,-0.1738,
34.142071,1.6729,-5.9392,-4.6769,1.3977,1.1455,-0.3896,
34.178753,1.6729,-5.9392,-4.6769,1.3977,1.1455,-0.3896,
34.180685,-3.5783,3.2241,1.9397,1.3977,1.1455,-0.3896,
34.207177,-3.5783,3.2241,1.9397,0.5838,-0.7663,0.3062,
34.244646,-3.5783,3.2241,1.9397,0.5838,-0.7663,0.3062,
34.246454,-0.0341,-2.7927,-2.8905,0.5838,-0.7663,0.3062,
34.272787,-0.0341,-2.7927,-2.8905,1.1161,-1.1266,0.2301,
34.311671,-0.0341,-2.7927,-2.8905,1.1161,-1.1266,0.2301,
34.312221,0.8313,-1.1336,-0.2258,1.1161,-1.1266,0.2301,
34.338363,0.8313,-1.1336,-0.2258,0.6287,-1.3360,-0.1177,
34.377247,0.8313,-1.1336,-0.2258,0.6287,-1.3360,-0.1177,
34.378189,2.2151,-0.9876,0.3909,0.6287,-1.3360,-0.1177,
34.404357,2.2151,-0.9876,0.3909,0.6429,-1.0052,-0.2987,
34.442026,2.2151,-0.9876,0.3909,0.6429,-1.0052,-0.2987,
34.442535,1.3832,0.5598,1.7015,0.6429,-1.0052,-0.2987,
34.468975,1.3832,0.5598,1.7015,0.3552,-0.8416,-0.2570,
34.506971,1.3832,0.5598,1.7015,0.3552,-0.8416,-0.2570,
34.507544,4.8290,1.6305,0.8779,0.3552,-0.8416,-0.2570,
34.534536,4.8290,1.6305,0.8779,0.0718,-0.1709,0.5299,
34.571715,4.8290,1.6305,0.8779,0.0718,-0.1709,0.5299,
34.573635,0.2428,2.4999,-2.0892,0.0718,-0.1709,0.5299,
34.600315,0.2428,2.4999,-2.0892,-0.9617,0.4036,1.0757,
34.637222,0.2428,2.4999,-2.0892,-0.9617,0.4036,1.0757,
34.638803,-5.8258,3.1111,2.9048,-0.9617,0.4036,1.0757,
34.665794,-5.8258,3.1111,2.9048,-1.2744,-1.0880,0.6425,
34.703101,-5.8258,3.1111,2.9048,-1.2744,-1.0880,0.6425,
34.704712,1.9275,-0.2671,-1.0048,-1.2744,-1.0880,0.6425,
34.731802,1.9275,-0.2671,-1.0048,-1.3173,1.2251,-0.3483,
34.769270,1.9275,-0.2671,-1.0048,-1.3173,1.2251,-0.3483,
34.770910,-0.1819,-2.8007,-0.4096,-1.3173,1.2251,-0.3483,
34.796496,-0.1819,-2.8007,-0.4096,-0.7669,1.5910,0.0559,
34.834412,-0.1819,-2.8007,-0.4096,-0.7669,1.5910,0.0559,
34.836021,-0.1517,-2.8008,-0.4025,-0.7669,1.5910,0.0559,
34.862585,-0.1517,-2.8008,-0.4025,0.2663,1.6203,0.1658,
34.899876,-0.1517,-2.8008,-0.4025,0.2663,1.6203,0.1658,
34.901674,-0.7868,-3.2694,0.2076,0.2663,1.6203,0.1658,
34.927245,-0.7868,-3.2694,0.2076,0.8387,1.5771,0.0044,
34.964400,-0.7868,-3.2694,0.2076,0.8387,1.5771,0.0044,
34.965835,0.0252,1.0308,0.8328,0.8387,1.5771,0.0044,
34.993105,0.0252,1.0308,0.8328,0.0677,1.3326,-0.0837,
35.030028,0.0252,1.0308,0.8328,0.0677,1.3326,-0.0837,
35.031040,-1.3935,2.9418,1.6432,0.0677,1.3326,-0.0837,
35.058498,-1.3935,2.9418,1.6432,-1.5214,0.9157,-0.1373,
35.096780,-1.3935,2.9418,1.6432,-1.5214,0.9157,-0.1373,
35.098420,-4.8086,2.5654,-2.3601,-1.5214,0.9157,-0.1373,
35.124945,-4.8086,2.5654,-2.3601,0.1032,-1.0481,-0.1620,
35.162243,-4.8086,2.5654,-2.3601,0.1032,-1.0481,-0.1620,
35.163993,1.9817,-3.6710,-5.3098,0.1032,-1.0481,-0.1620,
35.191081,1.9817,-3.6710,-5.3098,1.6926,0.6756,-0.3198,
35.228405,1.9817,-3.6710,-5.3098,1.6926,0.6756,-0.3198,
35.230399,-3.8487,1.2088,2.6987,1.6926,0.6756,-0.3198,
35.256156,-3.8487,1.2088,2.6987,0.8338,-1.7352,0.2392,
35.291867,-3.8487,1.2088,2.6987,0.8338,-1.7352,0.2392,
35.293710,1.3573,-2.1542,-3.3605,0.8338,-1.7352,0.2392,
35.320413,1.3573,-2.1542,-3.3605,0.8154,-1.6819,-0.1347,
35.359219,1.3573,-2.1542,-3.3605,0.8154,-1.6819,-0.1347,
35.361048,1.7779,-1.1190,-0.4897,0.8154,-1.6819,-0.1347,
35.386896,1.7779,-1.1190,-0.4897,0.6793,-1.3572,-0.2359,
35.423565,1.7779,-1.1190,-0.4897,0.6793,-1.3572,-0.2359,
35.424954,1.7194,-0.8837,0.6256,0.6793,-1.3572,-0.2359,
35.453017,1.7194,-0.8837,0.6256,0.5180,-1.1481,-0.3647,
35.488474,1.7194,-0.8837,0.6256,0.5180,-1.1481,-0.3647,
35.489834,1.7188,1.8538,0.7187,0.5180,-1.1481,-0.3647,
35.517209,1.7188,1.8538,0.7187,0.1990,-0.7772,-0.0415,
35.554077,1.7188,1.8538,0.7187,0.1990,-0.7772,-0.0415,
35.555197,6.1245,2.5569,1.7548,0.1990,-0.7772,-0.0415,
35.583049,6.1245,2.5569,1.7548,0.1434,0.2246,0.7813,
35.619431,6.1245,2.5569,1.7548,0.1434,0.2246,0.7813,
35.621151,0.3513,1.1904,-3.4332,0.1434,0.2246,0.7813,
35.649662,0.3513,1.1904,-3.4332,-1.1927,0.9171,0.9772,
35.684625,0.3513,1.1904,-3.4332,-1.1927,0.9171,0.9772,
35.685549,-5.5239,0.8798,1.7764,-1.1927,0.9171,0.9772,
35.714633,-5.5239,0.8798,1.7764,-1.0061,-0.1764,0.3885,
35.750218,-5.5239,0.8798,1.7764,-1.0061,-0.1764,0.3885,
35.753013,2.1686,-1.1124,-1.6825,-1.0061,-0.1764,0.3885,
35.778306,2.1686,-1.1124,-1.6825,-0.7813,2.2651,-0.1341,
35.816334,2.1686,-1.1124,-1.6825,-0.7813,2.2651,-0.1341,
35.817857,0.2609,-1.7927,-1.0372,-0.7813,2.2651,-0.1341,
35.844341,0.2609,-1.7927,-1.0372,-0.2427,2.5456,0.1993,
35.882335,0.2609,-1.7927,-1.0372,-0.2427,2.5456,0.1993,
35.883851,-1.3791,-1.0700,0.2735,-0.2427,2.5456,0.1993,
35.910967,-1.3791,-1.0700,0.2735,0.2740,1.7747,0.2129,
35.947712,-1.3791,-1.0700,0.2735,0.2740,1.7747,0.2129,
35.949780,-0.9098,-2.6853,-0.1414,0.2740,1.7747,0.2129,
35.975121,-0.9098,-2.6853,-0.1414,0.4265,1.5308,0.2169,
36.013509,-0.9098,-2.6853,-0.1414,0.4265,1.5308,0.2169,
36.015468,-1.6758,0.3729,0.3133,0.4265,1.5308,0.2169,
36.041120,-1.6758,0.3729,0.3133,0.1026,1.1106,-0.1061,
36.078349,-1.6758,0.3729,0.3133,0.1026,1.1106,-0.1061,
36.080024,-1.3694,2.6380,3.1892,0.1026,1.1106,-0.1061,
36.107944,-1.3694,2.6380,3.1892,-0.9780,0.6829,-0.0199,
36.143421,-1.3694,2.6380,3.1892,-0.9780,0.6829,-0.0199,
36.144414,-0.8698,6.4333,-0.1513,-0.9780,0.6829,-0.0199,
36.172009,-0.8698,6.4333,-0.1513,-0.1594,-1.2558,-0.5864,
36.208709,-0.8698,6.4333,-0.1513,-0.1594,-1.2558,-0.5864,
36.209393,0.5387,-3.5768,-3.4589,-0.1594,-1.2558,-0.5864,
36.237744,0.5387,-3.5768,-3.4589,1.0916,0.3367,0.0912,
36.275423,0.5387,-3.5768,-3.4589,1.0916,0.3367,0.0912,
36.275993,-0.4533,1.9058,-2.3513,1.0916,0.3367,0.0912,
36.304178,-0.4533,1.9058,-2.3513,0.7712,-0.9933,0.0576,
36.339713,-0.4533,1.9058,-2.3513,0.7712,-0.9933,0.0576,
36.340966,-0.5770,-1.7572,-1.8255,0.7712,-0.9933,0.0576,
36.367776,-0.5770,-1.7572,-1.8255,0.8375,-1.5466,0.1261,
36.405778,-0.5770,-1.7572,-1.8255,0.8375,-1.5466,0.1261,
36.407245,2.0623,-1.7867,-0.8007,0.8375,-1.5466,0.1261,
36.433517,2.0623,-1.7867,-0.8007,0.7715,-1.2274,-0.1860,
36.471099,2.0623,-1.7867,-0.8007,0.7715,-1.2274,-0.1860,
36.472670,1.9973,-0.7739,0.2864,0.7715,-1.2274,-0.1860,
36.499079,1.9973,-0.7739,0.2864,0.6055,-0.8586,-0.2859,
36.536109,1.9973,-0.7739,0.2864,0.6055,-0.8586,-0.2859,
36.537805,2.2013,0.1817,1.1508,0.6055,-0.8586,-0.2859,
36.565188,2.2013,0.1817,1.1508,0.4377,-0.2375,-0.4960,
36.601814,2.2013,0.1817,1.1508,0.4377,-0.2375,-0.4960,
36.603553,3.1127,2.5677,1.5510,0.4377,-0.2375,-0.4960,
36.629282,3.1127,2.5677,1.5510,0.1746,-0.0974,0.1562,
36.667837,3.1127,2.5677,1.5510,0.1746,-0.0974,0.1562,
36.669685,2.4871,2.2509,-0.1607,0.1746,-0.0974,0.1562,
36.695398,2.4871,2.2509,-0.1607,-0.4704,0.3108,0.8462,
36.732946,2.4871,2.2509,-0.1607,-0.4704,0.3108,0.8462,
36.734647,-0.5988,-0.7835,-3.5641,-0.4704,0.3108,0.8462,
36.761301,-0.5988,-0.7835,-3.5641,-1.3528,0.6141,0.8454,
36.798409,-0.5988,-0.7835,-3.5641,-1.3528,0.6141,0.8454,
36.800172,-0.0350,2.5418,-0.6383,-1.3528,0.6141,0.8454,
36.827737,-0.0350,2.5418,-0.6383,-1.1223,1.2581,0.0519,
36.863480,-0.0350,2.5418,-0.6383,-1.1223,1.2581,0.0519,
36.865440,1.6046,-1.8368,-1.5818,-1.1223,1.2581,0.0519,
36.892350,1.6046,-1.8368,-1.5818,-0.7277,2.8288,-0.1193,
36.930434,1.6046,-1.8368,-1.5818,-0.7277,2.8288,-0.1193,
36.932029,-0.8175,-1.2148,-0.4424,-0.7277,2.8288,-0.1193,
36.957832,-0.8175,-1.2148,-0.4424,-0.2818,1.9978,0.2595,
36.995214,-0.8175,-1.2148,-0.4424,-0.2818,1.9978,0.2595,
36.997466,-0.4730,-3.1935,-1.0969,-0.2818,1.9978,0.2595,
37.023780,-0.4730,-3.1935,-1.0969,0.3934,1.9320,0.0330,
37.060990,-0.4730,-3.1935,-1.0969,0.3934,1.9320,0.0330,
37.062088,-0.1907,-2.5125,-0.4507,0.3934,1.9320,0.0330,
37.089460,-0.1907,-2.5125,-0.4507,0.6515,1.8185,-0.0635,
37.125125,-0.1907,-2.5125,-0.4507,0.6515,1.8185,-0.0635,
37.126056,-1.4878,4.8588,3.8885,0.6515,1.8185,-0.0635,
37.155558,-1.4878,4.8588,3.8885,-0.6327,1.0609,0.4472,
37.190391,-1.4878,4.8588,3.8885,-0.6327,1.0609,0.4472,
37.191263,-1.0129,1.0593,-0.0843,-0.6327,1.0609,0.4472,
37.220743,-1.0129,1.0593,-0.0843,-0.9639,0.8016,-1.0592,
37.256839,-1.0129,1.0593,-0.0843,-0.9639,0.8016,-1.0592,
37.258139,-1.7028,-2.1382,-2.9160,-0.9639,0.8016,-1.0592,
37.284082,-1.7028,-2.1382,-2.9160,0.4876,0.5562,0.4617,
37.322199,-1.7028,-2.1382,-2.9160,0.4876,0.5562,0.4617,
37.323537,5.9015,2.4919,-5.2090,0.4876,0.5562,0.4617,
37.349935,5.9015,2.4919,-5.2090,1.1516,0.1758,-0.1489,
37.387734,5.9015,2.4919,-5.2090,1.1516,0.1758,-0.1489,
37.389565,-2.8074,-1.0258,-0.7473,1.1516,0.1758,-0.1489,
37.415550,-2.8074,-1.0258,-0.7473,0.8154,-0.5066,0.1431,
37.452415,-2.8074,-1.0258,-0.7473,0.8154,-0.5066,0.1431,
37.454181,2.2840,-2.0325,-0.5334,0.8154,-0.5066,0.1431,
37.480920,2.2840,-2.0325,-0.5334,0.6083,-0.5400,-0.1556,
37.519850,2.2840,-2.0325,-0.5334,0.6083,-0.5400,-0.1556,
37.522003,1.2829,-2.1843,0.4362,0.6083,-0.5400,-0.1556,
37.546618,1.2829,-2.1843,0.4362,0.6564,-0.4407,-0.3187,
37.583472,1.2829,-2.1843,0.4362,0.6564,-0.4407,-0.3187,
37.585709,2.3947,-0.6679,1.1564,0.6564,-0.4407,-0.3187,
37.611959,2.3947,-0.6679,1.1564,0.5232,-0.3647,-0.4921,
37.649331,2.3947,-0.6679,1.1564,0.5232,-0.3647,-0.4921,
37.650857,2.8298,2.8888,1.2560,0.5232,-0.3647,-0.4921,
37.677749,2.8298,2.8888,1.2560,0.0522,-0.2146,0.0368,
37.714718,2.8298,2.8888,1.2560,0.0522,-0.2146,0.0368,
37.716221,4.3588,3.0920,-0.1159,0.0522,-0.2146,0.0368,
37.744171,4.3588,3.0920,-0.1159,-0.2337,0.4511,1.0124,
37.780248,4.3588,3.0920,-0.1159,-0.2337,0.4511,1.0124,
37.781827,-0.1052,2.2689,-3.4031,-0.2337,0.4511,1.0124,
37.808755,-0.1052,2.2689,-3.4031,-1.4901,0.8421,0.7955,
37.846747,-0.1052,2.2689,-3.4031,-1.4901,0.8421,0.7955,
37.848725,-0.6408,0.1084,-1.1976,-1.4901,0.8421,0.7955,
37.874045,-0.6408,0.1084,-1.1976,-1.2732,1.7477,0.1179,
37.911423,-0.6408,0.1084,-1.1976,-1.2732,1.7477,0.1179,
37.913252,1.3908,-2.2382,-2.5679,-1.2732,1.7477,0.1179,
37.939887,1.3908,-2.2382,-2.5679,-0.6880,3.1104,-0.0559,
37.976137,1.3908,-2.2382,-2.5679,-0.6880,3.1104,-0.0559,
37.977638,-1.0319,0.3916,-0.0378,-0.6880,3.1104,-0.0559,
38.004374,-1.0319,0.3916,-0.0378,-0.4720,1.7590,0.6385,
38.042313,-1.0319,0.3916,-0.0378,-0.4720,1.7590,0.6385,
38.044083,-0.8559,-3.3325,-1.4050,-0.4720,1.7590,0.6385,
38.070823,-0.8559,-3.3325,-1.4050,0.1167,1.8990,0.1342,
38.107188,-0.8559,-3.3325,-1.4050,0.1167,1.8990,0.1342,
38.113288,0.3088,-3.8749,-1.0690,0.1167,1.8990,0.1342,
38.135887,0.3088,-3.8749,-1.0690,0.6223,2.1228,-0.1330,
38.173071,0.3088,-3.8749,-1.0690,0.6223,2.1228,-0.1330,
38.175229,-0.7079,4.3772,1.6431,0.6223,2.1228,-0.1330,
38.201611,-0.7079,4.3772,1.6431,-0.3827,1.3729,0.0443,
38.239924,-0.7079,4.3772,1.6431,-0.3827,1.3729,0.0443,
38.241542,-1.7206,0.0644,1.8964,-0.3827,1.3729,0.0443,
38.266510,-1.7206,0.0644,1.8964,-0.9053,0.3793,-0.2844,
38.303500,-1.7206,0.0644,1.8964,-0.9053,0.3793,-0.2844,
38.304965,-0.6706,2.8172,-3.1638,-0.9053,0.3793,-0.2844,
38.332069,-0.6706,2.8172,-3.1638,0.7288,-0.0412,-0.0180,
38.370560,-0.6706,2.8172,-3.1638,0.7288,-0.0412,-0.0180,
38.372488,2.2239,-1.1256,-4.3672,0.7288,-0.0412,-0.0180,
38.398279,2.2239,-1.1256,-4.3672,1.0140,0.6072,-0.5455,
38.435829,2.2239,-1.1256,-4.3672,1.0140,0.6072,-0.5455,
38.437879,-1.6305,-0.1059,-0.6832,1.0140,0.6072,-0.5455,
38.463567,-1.6305,-0.1059,-0.6832,1.0686,-0.8584,0.4368,
38.501154,-1.6305,-0.1059,-0.6832,1.0686,-0.8584,0.4368,
38.502952,0.9244,-2.0361,-0.8767,1.0686,-0.8584,0.4368,
38.528986,0.9244,-2.0361,-0.8767,0.8934,-1.1490,0.1982,
38.567094,0.9244,-2.0361,-0.8767,0.8934,-1.1490,0.1982,
38.569427,1.5227,-1.6156,-0.3096,0.8934,-1.1490,0.1982,
38.595085,1.5227,-1.6156,-0.3096,0.5872,-0.7037,0.0725,
38.631411,1.5227,-1.6156,-0.3096,0.5872,-0.7037,0.0725,
38.632958,3.4012,-1.4152,-0.1495,0.5872,-0.7037,0.0725,
38.660997,3.4012,-1.4152,-0.1495,0.5996,0.0423,-0.2311,
38.697501,3.4012,-1.4152,-0.1495,0.5996,0.0423,-0.2311,
38.698889,0.8747,0.7084,2.0266,0.5996,0.0423,-0.2311,
38.725569,0.8747,0.7084,2.0266,0.4921,-0.3286,-0.2277,
38.762250,0.8747,0.7084,2.0266,0.4921,-0.3286,-0.2277,
38.763361,2.7821,2.2778,2.3551,0.4921,-0.3286,-0.2277,
38.790670,2.7821,2.2778,2.3551,-0.0356,-0.5857,0.2431,
38.828838,2.7821,2.2778,2.3551,-0.0356,-0.5857,0.2431,
38.830429,2.0275,2.3684,-3.9956,-0.0356,-0.5857,0.2431,
38.856405,2.0275,2.3684,-3.9956,-0.9386,0.5649,1.4326,
38.893153,2.0275,2.3684,-3.9956,-0.9386,0.5649,1.4326,
38.894698,-5.4042,3.5377,0.5085,-0.9386,0.5649,1.4326,
38.921954,-5.4042,3.5377,0.5085,-1.4911,-0.5626,0.2744,
38.958885,-5.4042,3.5377,0.5085,-1.4911,-0.5626,0.2744,
38.960416,2.9158,-1.9174,-2.3623,-1.4911,-0.5626,0.2744,
38.987027,2.9158,-1.9174,-2.3623,-1.2075,2.6279,-0.1978,
39.024623,2.9158,-1.9174,-2.3623,-1.2075,2.6279,-0.1978,
39.026615,-0.1930,-0.9511,-0.4322,-1.2075,2.6279,-0.1978,
39.052477,-0.1930,-0.9511,-0.4322,-0.6614,1.8737,0.2718,
39.089546,-0.1930,-0.9511,-0.4322,-0.6614,1.8737,0.2718,
39.090211,-0.9281,-1.5803,-0.6238,-0.6614,1.8737,0.2718,
39.119305,-0.9281,-1.5803,-0.6238,-0.1573,1.5713,0.3230,
39.157304,-0.9281,-1.5803,-0.6238,-0.1573,1.5713,0.3230,
39.159135,-0.5358,-3.8550,-0.8929,-0.1573,1.5713,0.3230,
39.184694,-0.5358,-3.8550,-0.8929,0.6287,1.7229,0.0064,
39.221352,-0.5358,-3.8550,-0.8929,0.6287,1.7229,0.0064,
39.222787,0.2894,-2.3859,0.6316,0.6287,1.7229,0.0064,
39.250572,0.2894,-2.3859,0.6316,0.9557,1.2929,0.0483,
39.285795,0.2894,-2.3859,0.6316,0.9557,1.2929,0.0483,
39.288375,-0.4534,4.4965,4.2402,0.9557,1.2929,0.0483,
39.314744,-0.4534,4.4965,4.2402,-0.3375,0.8147,0.0518,
39.351723,-0.4534,4.4965,4.2402,-0.3375,0.8147,0.0518,
39.353792,1.3009,6.7144,0.2475,-0.3375,0.8147,0.0518,
39.380789,1.3009,6.7144,0.2475,-0.5594,-0.2291,-1.1141,
39.417801,1.3009,6.7144,0.2475,-0.5594,-0.2291,-1.1141,
39.419551,-1.8594,-2.9584,-5.0590,-0.5594,-0.2291,-1.1141,
39.445941,-1.8594,-2.9584,-5.0590,1.2543,1.6487,-0.2399,
39.482772,-1.8594,-2.9584,-5.0590,1.2543,1.6487,-0.2399,
39.483946,-0.2376,-1.8941,-2.9144,1.2543,1.6487,-0.2399,
39.510291,-0.2376,-1.8941,-2.9144,0.5234,-1.5692,0.5229,
39.547934,-0.2376,-1.8941,-2.9144,0.5234,-1.5692,0.5229,
39.549506,-0.1550,0.0777,-2.1892,0.5234,-1.5692,0.5229,
39.577283,-0.1550,0.0777,-2.1892,0.5322,-1.2578,0.6130,
39.614291,-0.1550,0.0777,-2.1892,0.5322,-1.2578,0.6130,
39.616000,1.5841,-1.5378,-0.0517,0.5322,-1.2578,0.6130,
39.644914,1.5841,-1.5378,-0.0517,0.6697,-0.9184,0.1533,
39.680506,1.5841,-1.5378,-0.0517,0.6697,-0.9184,0.1533,
39.682355,0.9500,-0.8523,0.3599,0.6697,-0.9184,0.1533,
39.707347,0.9500,-0.8523,0.3599,0.4536,-0.9824,-0.0977,
39.745274,0.9500,-0.8523,0.3599,0.4536,-0.9824,-0.0977,
39.746907,1.6066,0.0150,2.0159,0.4536,-0.9824,-0.0977,
39.773162,1.6066,0.0150,2.0159,0.0597,-0.7935,-0.4265,
39.810693,1.6066,0.0150,2.0159,0.0597,-0.7935,-0.4265,
39.812818,6.2019,-0.9254,-1.1897,0.0597,-0.7935,-0.4265,
39.840479,6.2019,-0.9254,-1.1897,0.1184,1.0973,0.6431,
39.877833,6.2019,-0.9254,-1.1897,0.1184,1.0973,0.6431,
39.880904,0.6054,2.6457,0.7306,0.1184,1.0973,0.6431,
39.904345,0.6054,2.6457,0.7306,-0.4079,0.7372,0.9862,
39.943265,0.6054,2.6457,0.7306,-0.4079,0.7372,0.9862,
39.945504,-3.8425,4.5397,-2.9762,-0.4079,0.7372,0.9862,
39.969771,-3.8425,4.5397,-2.9762,-1.3515,-1.2877,0.8740,
40.006086,-3.8425,4.5397,-2.9762,-1.3515,-1.2877,0.8740,
40.006788,-2.4721,1.3617,-2.0625,-1.3515,-1.2877,0.8740,
40.037837,-2.4721,1.3617,-2.0625,-1.4722,0.6342,-0.1417,
40.073316,-2.4721,1.3617,-2.0625,-1.4722,0.6342,-0.1417,
40.073968,0.5201,-1.6481,-0.1581,-1.4722,0.6342,-0.1417,
40.099691,0.5201,-1.6481,-0.1581,-1.0015,1.5508,0.0139,
40.137677,0.5201,-1.6481,-0.1581,-1.0015,1.5508,0.0139,
40.139184,-3.0857,-2.2693,-0.0203,-1.0015,1.5508,0.0139,
40.165708,-3.0857,-2.2693,-0.0203,-0.2312,0.0403,0.1857,
40.202334,-3.0857,-2.2693,-0.0203,-0.2312,0.0403,0.1857,
40.203896,0.3947,-4.6148,-0.3339,-0.2312,0.0403,0.1857,
40.230589,0.3947,-4.6148,-0.3339,0.7882,1.0076,-0.4493,
40.268165,0.3947,-4.6148,-0.3339,0.7882,1.0076,-0.4493,
40.269872,0.0395,-2.7652,1.0752,0.7882,1.0076,-0.4493,
40.297451,0.0395,-2.7652,1.0752,0.7869,1.5026,-0.2567,
40.333588,0.0395,-2.7652,1.0752,0.7869,1.5026,-0.2567,
40.335632,-0.3832,6.1451,5.3706,0.7869,1.5026,-0.2567,
40.361812,-0.3832,6.1451,5.3706,-0.8632,0.4600,0.5692,
40.398833,-0.3832,6.1451,5.3706,-0.8632,0.4600,0.5692,
40.400658,-2.8877,3.9197,-0.3738,-0.8632,0.4600,0.5692,
40.428158,-2.8877,3.9197,-0.3738,-0.1077,-0.0777,-1.1400,
40.464672,-2.8877,3.9197,-0.3738,-0.1077,-0.0777,-1.1400,
40.466187,-0.6848,-0.8424,-3.0710,-0.1077,-0.0777,-1.1400,
40.493809,-0.6848,-0.8424,-3.0710,1.1471,-0.1741,-0.0266,
40.529797,-0.6848,-0.8424,-3.0710,1.1471,-0.1741,-0.0266,
40.531345,-1.7388,1.2364,-2.3385,1.1471,-0.1741,-0.0266,
40.558237,-1.7388,1.2364,-2.3385,0.8971,-1.1865,-0.0399,
40.595540,-1.7388,1.2364,-2.3385,0.8971,-1.1865,-0.0399,
40.597299,0.0683,-1.3563,-2.2942,0.8971,-1.1865,-0.0399,
40.623914,0.0683,-1.3563,-2.2942,0.9348,-1.6034,0.1432,
40.661237,0.0683,-1.3563,-2.2942,0.9348,-1.6034,0.1432,
40.662998,0.8762,-1.9602,-0.6303,0.9348,-1.6034,0.1432,
40.689572,0.8762,-1.9602,-0.6303,0.9781,-1.7381,-0.1352,
40.727324,0.8762,-1.9602,-0.6303,0.9781,-1.7381,-0.1352,
40.727864,1.4809,-1.2571,0.2024,0.9781,-1.7381,-0.1352,
40.755106,1.4809,-1.2571,0.2024,0.5985,-1.4838,-0.3650,
40.791922,1.4809,-1.2571,0.2024,0.5985,-1.4838,-0.3650,
40.792401,1.8202,-0.1806,1.4467,0.5985,-1.4838,-0.3650,
40.821558,1.8202,-0.1806,1.4467,0.3024,-1.0815,-0.4820,
40.857625,1.8202,-0.1806,1.4467,0.3024,-1.0815,-0.4820,
40.858273,3.8070,1.0566,1.5432,0.3024,-1.0815,-0.4820,
40.886930,3.8070,1.0566,1.5432,0.2450,-0.4191,0.1466,
40.922611,3.8070,1.0566,1.5432,0.2450,-0.4191,0.1466,
40.923079,3.0501,3.3622,-0.4469,0.2450,-0.4191,0.1466,
40.952237,3.0501,3.3622,-0.4469,0.0817,0.7659,1.1417,
40.988659,3.0501,3.3622,-0.4469,0.0817,0.7659,1.1417,
40.989158,-1.1227,1.9644,-2.8945,0.0817,0.7659,1.1417,
41.016969,-1.1227,1.9644,-2.8945,-1.8995,-0.1610,0.6020,
41.053029,-1.1227,1.9644,-2.8945,-1.8995,-0.1610,0.6020,
41.053616,-0.9089,0.1377,-1.2997,-1.8995,-0.1610,0.6020,
41.082585,-0.9089,0.1377,-1.2997,-1.2092,2.1171,-0.0231,
41.119725,-0.9089,0.1377,-1.2997,-1.2092,2.1171,-0.0231,
41.121573,1.5670,-0.4387,-1.5003,-1.2092,2.1171,-0.0231,
41.147573,1.5670,-0.4387,-1.5003,-1.0223,2.5247,-0.1999,
41.185429,1.5670,-0.4387,-1.5003,-1.0223,2.5247,-0.1999,
41.187075,-1.1737,-0.5454,-0.1659,-1.0223,2.5247,-0.1999,
41.213665,-1.1737,-0.5454,-0.1659,-0.5484,1.8902,0.2159,
41.250383,-1.1737,-0.5454,-0.1659,-0.5484,1.8902,0.2159,
41.251939,-0.1454,-4.2250,-0.8790,-0.5484,1.8902,0.2159,
41.279797,-0.1454,-4.2250,-0.8790,0.3071,1.9248,0.0912,
41.316000,-0.1454,-4.2250,-0.8790,0.3071,1.9248,0.0912,
41.317389,0.2796,-3.3586,-0.0043,0.3071,1.9248,0.0912,
41.344695,0.2796,-3.3586,-0.0043,0.3621,2.1426,0.2126,
41.381468,0.2796,-3.3586,-0.0043,0.3621,2.1426,0.2126,
41.383085,-1.0745,3.9593,2.5443,0.3621,2.1426,0.2126,
41.410449,-1.0745,3.9593,2.5443,-0.5455,1.7836,0.0779,
41.447212,-1.0745,3.9593,2.5443,-0.5455,1.7836,0.0779,
41.448999,-0.4627,3.5253,-1.0328,-0.5455,1.7836,0.0779,
41.477033,-0.4627,3.5253,-1.0328,-0.2573,0.5040,-0.6939,
41.513686,-0.4627,3.5253,-1.0328,-0.2573,0.5040,-0.6939,
41.515763,1.3820,-0.8766,-2.8124,-0.2573,0.5040,-0.6939,
41.542278,1.3820,-0.8766,-2.8124,1.1359,1.5536,0.8589,
41.578177,1.3820,-0.8766,-2.8124,1.1359,1.5536,0.8589,
41.579721,3.6603,-0.0366,-5.2546,1.1359,1.5536,0.8589,
41.606813,3.6603,-0.0366,-5.2546,0.9476,0.3725,-0.3494,
41.643397,3.6603,-0.0366,-5.2546,0.9476,0.3725,-0.3494,
41.644924,-3.3567,-0.2016,-1.3097,0.9476,0.3725,-0.3494,
41.672140,-3.3567,-0.2016,-1.3097,0.6695,-0.5093,0.1536,
41.710073,-3.3567,-0.2016,-1.3097,0.6695,-0.5093,0.1536,
41.711798,2.4967,-2.9376,-0.4747,0.6695,-0.5093,0.1536,
41.737286,2.4967,-2.9376,-0.4747,0.6084,-0.6364,-0.0254,
41.774656,2.4967,-2.9376,-0.4747,0.6084,-0.6364,-0.0254,
41.777011,1.2660,-1.9316,0.1768,0.6084,-0.6364,-0.0254,
41.801966,1.2660,-1.9316,0.1768,0.6663,-0.5240,-0.0919,
41.841080,1.2660,-1.9316,0.1768,0.6663,-0.5240,-0.0919,
41.841807,1.8779,-0.7311,1.4194,0.6663,-0.5240,-0.0919,
41.868202,1.8779,-0.7311,1.4194,0.4326,-0.4936,-0.3916,
41.906128,1.8779,-0.7311,1.4194,0.4326,-0.4936,-0.3916,
41.907849,3.3771,1.3741,1.9224,0.4326,-0.4936,-0.3916,
41.933777,3.3771,1.3741,1.9224,0.0756,-0.0921,-0.1197,
41.971059,3.3771,1.3741,1.9224,0.0756,-0.0921,-0.1197,
41.971639,4.9941,3.2473,-1.3454,0.0756,-0.0921,-0.1197,
41.998772,4.9941,3.2473,-1.3454,-0.2280,0.8604,1.3150,
42.036246,4.9941,3.2473,-1.3454,-0.2280,0.8604,1.3150,
42.037555,-2.4155,3.6016,-2.9669,-0.2280,0.8604,1.3150,
42.064012,-2.4155,3.6016,-2.9669,-1.7654,0.2590,0.7424,
42.102329,-2.4155,3.6016,-2.9669,-1.7654,0.2590,0.7424,
42.104977,-0.1539,0.2182,-1.7608,-1.7654,0.2590,0.7424,
42.129625,-0.1539,0.2182,-1.7608,-1.3187,1.6958,-0.0057,
42.167218,-0.1539,0.2182,-1.7608,-1.3187,1.6958,-0.0057,
42.168746,0.4911,-1.0849,-1.5741,-1.3187,1.6958,-0.0057,
42.195689,0.4911,-1.0849,-1.5741,-1.0185,2.5079,0.1170,
42.233306,0.4911,-1.0849,-1.5741,-1.0185,2.5079,0.1170,
42.235041,-1.4494,-0.4521,-0.0797,-1.0185,2.5079,0.1170,
42.261524,-1.4494,-0.4521,-0.0797,-0.5599,1.0562,0.6199,
42.297753,-1.4494,-0.4521,-0.0797,-0.5599,1.0562,0.6199,
42.299296,-0.8681,-4.0629,-1.1347,-0.5599,1.0562,0.6199,
42.326976,-0.8681,-4.0629,-1.1347,0.3375,1.3567,-0.0747,
42.364309,-0.8681,-4.0629,-1.1347,0.3375,1.3567,-0.0747,
42.366434,0.2540,-3.2990,-0.0298,0.3375,1.3567,-0.0747,
42.392162,0.2540,-3.2990,-0.0298,0.5452,1.6089,-0.1710,
42.429724,0.2540,-3.2990,-0.0298,0.5452,1.6089,-0.1710,
42.431500,1.5208,4.7653,3.2076,0.5452,1.6089,-0.1710,
42.457571,1.5208,4.7653,3.2076,-0.5831,1.7654,0.2955,
42.494600,1.5208,4.7653,3.2076,-0.5831,1.7654,0.2955,
42.496255,-0.8442,5.3408,0.5536,-0.5831,1.7654,0.2955,
42.523352,-0.8442,5.3408,0.5536,0.1335,0.0528,-0.7758,
42.560976,-0.8442,5.3408,0.5536,0.1335,0.0528,-0.7758,
42.563105,-2.3501,-3.8062,-3.4430,0.1335,0.0528,-0.7758,
42.589116,-2.3501,-3.8062,-3.4430,0.6594,0.6144,0.5884,
42.624888,-2.3501,-3.8062,-3.4430,0.6594,0.6144,0.5884,
42.625988,1.1710,1.3341,-3.6298,0.6594,0.6144,0.5884,
42.653313,1.1710,1.3341,-3.6298,0.7730,-0.5382,-0.3366,
42.690613,1.1710,1.3341,-3.6298,0.7730,-0.5382,-0.3366,
42.691334,-0.4728,-0.8478,-1.8549,0.7730,-0.5382,-0.3366,
42.719189,-0.4728,-0.8478,-1.8549,0.8351,-1.3896,0.4004,
42.756176,-0.4728,-0.8478,-1.8549,0.8351,-1.3896,0.4004,
42.756906,2.1610,-2.1972,-0.5421,0.8351,-1.3896,0.4004,
42.785347,2.1610,-2.1972,-0.5421,1.1041,-0.9635,-0.2514,
42.822311,2.1610,-2.1972,-0.5421,1.1041,-0.9635,-0.2514,
42.822809,0.9705,-0.7196,-1.1706,1.1041,-0.9635,-0.2514,
42.851169,0.9705,-0.7196,-1.1706,0.9413,-0.6808,-0.2990,
42.887739,0.9705,-0.7196,-1.1706,0.9413,-0.6808,-0.2990,
42.889761,1.8269,0.1348,0.7377,0.9413,-0.6808,-0.2990,
42.915896,1.8269,0.1348,0.7377,0.3325,-0.6281,-0.3960,
42.954052,1.8269,0.1348,0.7377,0.3325,-0.6281,-0.3960,
42.955881,2.7076,0.3434,0.0393,0.3325,-0.6281,-0.3960,
42.981350,2.7076,0.3434,0.0393,0.0015,0.0480,-0.0363,
43.018243,2.7076,0.3434,0.0393,0.0015,0.0480,-0.0363,
43.019986,2.8125,1.7783,2.8304,0.0015,0.0480,-0.0363,
43.047203,2.8125,1.7783,2.8304,0.0463,-0.1985,0.3522,
43.084888,2.8125,1.7783,2.8304,0.0463,-0.1985,0.3522,
43.086618,2.4471,1.2781,-2.0742,0.0463,-0.1985,0.3522,
43.112152,2.4471,1.2781,-2.0742,-0.9836,0.8369,0.7947,
43.148698,2.4471,1.2781,-2.0742,-0.9836,0.8369,0.7947,
43.149916,-2.4615,1.1002,-1.3835,-0.9836,0.8369,0.7947,
43.177976,-2.4615,1.1002,-1.3835,-1.1246,0.3748,0.8157,
43.215043,-2.4615,1.1002,-1.3835,-1.1246,0.3748,0.8157,
43.216160,0.1352,1.7432,-1.1348,-1.1246,0.3748,0.8157,
43.243853,0.1352,1.7432,-1.1348,-1.1046,1.6706,-0.0901,
43.282020,0.1352,1.7432,-1.1348,-1.1046,1.6706,-0.0901,
43.283883,0.7126,-1.0263,-1.3472,-1.1046,1.6706,-0.0901,
43.311429,0.7126,-1.0263,-1.3472,-0.8993,2.3740,0.0997,
43.347356,0.7126,-1.0263,-1.3472,-0.8993,2.3740,0.0997,
43.349380,-2.0175,-1.3971,-0.4355,-0.8993,2.3740,0.0997,
43.374002,-2.0175,-1.3971,-0.4355,-0.1839,1.4421,0.1956,
43.411745,-2.0175,-1.3971,-0.4355,-0.1839,1.4421,0.1956,
43.414139,-0.3383,-3.5526,-0.4864,-0.1839,1.4421,0.1956,
43.441941,-0.3383,-3.5526,-0.4864,0.5246,1.4598,0.0483,
43.477275,-0.3383,-3.5526,-0.4864,0.5246,1.4598,0.0483,
43.479588,0.5250,-2.4747,0.5290,0.5246,1.4598,0.0483,
43.506693,0.5250,-2.4747,0.5290,0.5915,1.4412,0.0499,
43.542665,0.5250,-2.4747,0.5290,0.5915,1.4412,0.0499,
43.544451,-2.4634,5.1513,3.2253,0.5915,1.4412,0.0499,
43.571247,-2.4634,5.1513,3.2253,-0.7738,0.8357,0.3913,
43.609192,-2.4634,5.1513,3.2253,-0.7738,0.8357,0.3913,
43.610954,-1.5364,-0.0227,0.1967,-0.7738,0.8357,0.3913,
43.635318,-1.5364,-0.0227,0.1967,-0.1434,0.0638,-0.6622,
43.673372,-1.5364,-0.0227,0.1967,-0.1434,0.0638,-0.6622,
43.674169,-2.4026,2.3356,-1.8010,-0.1434,0.0638,-0.6622,
43.700331,-2.4026,2.3356,-1.8010,0.6150,-0.9013,0.1300,
43.738371,-2.4026,2.3356,-1.8010,0.6150,-0.9013,0.1300,
43.738927,3.3508,-2.3832,-5.4500,0.6150,-0.9013,0.1300,
43.766579,3.3508,-2.3832,-5.4500,0.7169,0.4128,-0.6312,
43.803755,3.3508,-2.3832,-5.4500,0.7169,0.4128,-0.6312,
43.804444,-1.6983,-0.4730,-0.2703,0.7169,0.4128,-0.6312,
43.832690,-1.6983,-0.4730,-0.2703,0.8430,-1.6280,0.4030,
43.868816,-1.6983,-0.4730,-0.2703,0.8430,-1.6280,0.4030,
43.870215,2.1623,-1.3385,-0.6726,0.8430,-1.6280,0.4030,
43.898127,2.1623,-1.3385,-0.6726,0.8192,-1.3899,0.0455,
43.935226,2.1623,-1.3385,-0.6726,0.8192,-1.3899,0.0455,
43.936994,1.3458,-0.6581,0.6449,0.8192,-1.3899,0.0455,
43.964724,1.3458,-0.6581,0.6449,0.6533,-1.0713,-0.1872,
44.001112,1.3458,-0.6581,0.6449,0.6533,-1.0713,-0.1872,
44.003046,2.6760,-0.1563,1.6110,0.6533,-1.0713,-0.1872,
44.029697,2.6760,-0.1563,1.6110,0.4090,-0.4392,-0.4804,
44.065779,2.6760,-0.1563,1.6110,0.4090,-0.4392,-0.4804,
44.067414,1.8360,0.1146,-0.1221,0.4090,-0.4392,-0.4804,
44.094438,1.8360,0.1146,-0.1221,0.1139,0.0512,0.2286,
44.132173,1.8360,0.1146,-0.1221,0.1139,0.0512,0.2286,
44.133862,1.7211,1.7127,1.4585,0.1139,0.0512,0.2286,
44.159583,1.7211,1.7127,1.4585,-0.2211,-0.7717,0.6851,
44.196150,1.7211,1.7127,1.4585,-0.2211,-0.7717,0.6851,
44.197621,0.7428,0.8162,-4.2127,-0.2211,-0.7717,0.6851,
44.225270,0.7428,0.8162,-4.2127,-1.3474,0.0449,1.1405,
44.261668,0.7428,0.8162,-4.2127,-1.3474,0.0449,1.1405,
44.262755,-3.9623,2.1773,-0.3164,-1.3474,0.0449,1.1405,
44.290294,-3.9623,2.1773,-0.3164,-1.1234,-0.4962,0.0312,
44.328120,-3.9623,2.1773,-0.3164,-1.1234,-0.4962,0.0312,
44.329933,2.4918,0.0858,-0.8260,-1.1234,-0.4962,0.0312,
44.357343,2.4918,0.0858,-0.8260,-1.0437,1.2320,-0.0110,
44.392624,2.4918,0.0858,-0.8260,-1.0437,1.2320,-0.0110,
44.393962,-0.8925,-1.6429,0.3328,-1.0437,1.2320,-0.0110,
44.422457,-0.8925,-1.6429,0.3328,-0.1993,0.9575,0.2830,
44.459269,-0.8925,-1.6429,0.3328,-0.1993,0.9575,0.2830,
44.459898,-0.7710,-3.2679,0.0322,-0.1993,0.9575,0.2830,
44.488373,-0.7710,-3.2679,0.0322,0.4528,0.9287,0.0515,
44.525545,-0.7710,-3.2679,0.0322,0.4528,0.9287,0.0515,
44.527317,-0.1880,-3.5019,0.3355,0.4528,0.9287,0.0515,
44.553749,-0.1880,-3.5019,0.3355,0.7957,1.5269,-0.5136,
44.590758,-0.1880,-3.5019,0.3355,0.7957,1.5269,-0.5136,
44.591953,-0.1277,4.4282,1.9524,0.7957,1.5269,-0.5136,
44.619307,-0.1277,4.4282,1.9524,-0.4982,0.7929,-0.0773,
44.655018,-0.1277,4.4282,1.9524,-0.4982,0.7929,-0.0773,
44.656070,0.9454,2.7421,-0.3022,-0.4982,0.7929,-0.0773,
44.683595,0.9454,2.7421,-0.3022,-0.1454,-0.1668,-0.4966,
44.720931,0.9454,2.7421,-0.3022,-0.1454,-0.1668,-0.4966,
44.722498,-1.9621,-1.2826,-0.5228,-0.1454,-0.1668,-0.4966,
44.749580,-1.9621,-1.2826,-0.5228,0.5690,1.3659,0.2570,
44.787535,-1.9621,-1.2826,-0.5228,0.5690,1.3659,0.2570,
44.789226,2.2199,-1.0026,-5.1983,0.5690,1.3659,0.2570,
44.813939,2.2199,-1.0026,-5.1983,1.0976,0.8460,-0.2434,
44.851001,2.2199,-1.0026,-5.1983,1.0976,0.8460,-0.2434,
44.852353,-0.5810,0.0297,-1.1384,1.0976,0.8460,-0.2434,
44.879687,-0.5810,0.0297,-1.1384,0.6183,-0.1254,0.1423,
44.916430,-0.5810,0.0297,-1.1384,0.6183,-0.1254,0.1423,
44.918184,1.4968,-0.7411,-1.0514,0.6183,-0.1254,0.1423,
44.945012,1.4968,-0.7411,-1.0514,0.4820,-0.1225,-0.1101,
44.982503,1.4968,-0.7411,-1.0514,0.4820,-0.1225,-0.1101,
44.983949,1.6219,-1.7381,-0.5439,0.4820,-0.1225,-0.1101,
45.011975,1.6219,-1.7381,-0.5439,0.5208,-0.1407,-0.1965,
45.047695,1.6219,-1.7381,-0.5439,0.5208,-0.1407,-0.1965,
45.049523,2.0503,-1.3442,0.4625,0.5208,-0.1407,-0.1965,
45.077045,2.0503,-1.3442,0.4625,0.4574,-0.1350,-0.5863,
45.113460,2.0503,-1.3442,0.4625,0.4574,-0.1350,-0.5863,
45.115061,1.7483,0.5942,2.2854,0.4574,-0.1350,-0.5863,
45.142652,1.7483,0.5942,2.2854,0.2891,-0.0159,-0.3902,
45.180042,1.7483,0.5942,2.2854,0.2891,-0.0159,-0.3902,
45.181891,4.9589,1.6646,1.2544,0.2891,-0.0159,-0.3902,
45.207937,4.9589,1.6646,1.2544,0.0547,0.5869,0.2185,
45.245269,4.9589,1.6646,1.2544,0.0547,0.5869,0.2185,
45.246946,-0.5232,2.2878,-3.7541,0.0547,0.5869,0.2185,
45.274013,-0.5232,2.2878,-3.7541,-1.0020,0.7940,1.0481,
45.311099,-0.5232,2.2878,-3.7541,-1.0020,0.7940,1.0481,
45.313251,-0.9874,0.9187,0.1616,-1.0020,0.7940,1.0481,
45.338952,-0.9874,0.9187,0.1616,-1.3465,0.9175,0.2952,
45.376699,-0.9874,0.9187,0.1616,-1.3465,0.9175,0.2952,
45.377241,2.5199,-0.0968,-3.0908,-1.3465,0.9175,0.2952,
45.403015,2.5199,-0.0968,-3.0908,-0.9629,3.1321,0.1063,
45.441583,2.5199,-0.0968,-3.0908,-0.9629,3.1321,0.1063,
45.442184,-0.0606,-0.5585,-0.9049,-0.9629,3.1321,0.1063,
45.470684,-0.0606,-0.5585,-0.9049,-0.4328,2.3747,0.5519,
45.507523,-0.0606,-0.5585,-0.9049,-0.4328,2.3747,0.5519,
45.509601,-1.0566,-1.1506,-0.5530,-0.4328,2.3747,0.5519,
45.534968,-1.0566,-1.1506,-0.5530,-0.1023,1.8017,0.6110,
45.573700,-1.0566,-1.1506,-0.5530,-0.1023,1.8017,0.6110,
45.575841,-0.7382,-4.4877,-0.9986,-0.1023,1.8017,0.6110,
45.601327,-0.7382,-4.4877,-0.9986,0.8998,1.7020,0.1478,
45.637534,-0.7382,-4.4877,-0.9986,0.8998,1.7020,0.1478,
45.638193,-0.8724,-1.1996,-0.2377,0.8998,1.7020,0.1478,
45.665424,-0.8724,-1.1996,-0.2377,0.7300,1.3166,-0.0217,
45.703772,-0.8724,-1.1996,-0.2377,0.7300,1.3166,-0.0217,
45.705634,0.2641,4.3836,5.0848,0.7300,1.3166,-0.0217,
45.730959,0.2641,4.3836,5.0848,-1.0566,0.3506,0.3048,
45.767667,0.2641,4.3836,5.0848,-1.0566,0.3506,0.3048,
45.769517,-1.7174,6.4409,0.4731,-1.0566,0.3506,0.3048,
45.796362,-1.7174,6.4409,0.4731,-0.0281,-0.7785,-0.0887,
45.833381,-1.7174,6.4409,0.4731,-0.0281,-0.7785,-0.0887,
45.834728,0.2304,-5.2967,-4.0248,-0.0281,-0.7785,-0.0887,
45.861959,0.2304,-5.2967,-4.0248,1.2054,0.6049,-0.4890,
45.898644,0.2304,-5.2967,-4.0248,1.2054,0.6049,-0.4890,
45.900288,-2.1035,3.2467,0.0579,1.2054,0.6049,-0.4890,
45.928158,-2.1035,3.2467,0.0579,0.5289,-0.7607,0.1127,
45.964993,-2.1035,3.2467,0.0579,0.5289,-0.7607,0.1127,
45.966497,-0.4640,-2.4608,-1.2828,0.5289,-0.7607,0.1127,
45.994102,-0.4640,-2.4608,-1.2828,0.9297,-1.5631,0.4389,
46.030096,-0.4640,-2.4608,-1.2828,0.9297,-1.5631,0.4389,
46.032078,0.8867,-1.2810,0.2223,0.9297,-1.5631,0.4389,
46.059765,0.8867,-1.2810,0.2223,0.7521,-1.5788,0.0156,
46.096984,0.8867,-1.2810,0.2223,0.7521,-1.5788,0.0156,
46.098435,1.7074,-1.2382,-0.0442,0.7521,-1.5788,0.0156,
46.124916,1.7074,-1.2382,-0.0442,0.7193,-1.1623,-0.1668,
46.161591,1.7074,-1.2382,-0.0442,0.7193,-1.1623,-0.1668,
46.163152,1.4716,0.6145,1.1015,0.7193,-1.1623,-0.1668,
46.190293,1.4716,0.6145,1.1015,0.4534,-0.7133,-0.3543,
46.227083,1.4716,0.6145,1.1015,0.4534,-0.7133,-0.3543,
46.228997,3.6469,1.5529,1.3964,0.4534,-0.7133,-0.3543,
46.255059,3.6469,1.5529,1.3964,0.2178,-0.5030,0.4519,
46.293470,3.6469,1.5529,1.3964,0.2178,-0.5030,0.4519,
46.295099,0.5734,4.6850,-1.5294,0.2178,-0.5030,0.4519,
46.321010,0.5734,4.6850,-1.5294,-0.4972,-0.5107,1.3172,
46.358592,0.5734,4.6850,-1.5294,-0.4972,-0.5107,1.3172,
46.360227,-4.2910,0.7731,-3.2970,-0.4972,-0.5107,1.3172,
46.386752,-4.2910,0.7731,-3.2970,-1.4734,-1.2530,0.2521,
46.423265,-4.2910,0.7731,-3.2970,-1.4734,-1.2530,0.2521,
46.423836,0.9612,-0.2509,-0.3621,-1.4734,-1.2530,0.2521,
46.451386,0.9612,-0.2509,-0.3621,-1.2831,0.5061,-0.2889,
46.489245,0.9612,-0.2509,-0.3621,-1.2831,0.5061,-0.2889,
46.489913,0.0332,-1.8749,-0.1982,-1.2831,0.5061,-0.2889,
46.517274,0.0332,-1.8749,-0.1982,-0.8570,1.1215,0.1063,
46.553776,0.0332,-1.8749,-0.1982,-0.8570,1.1215,0.1063,
46.554797,-1.7917,-1.6412,0.5607,-0.8570,1.1215,0.1063,
46.582299,-1.7917,-1.6412,0.5607,-0.0577,0.4804,0.0530,
46.618372,-1.7917,-1.6412,0.5607,-0.0577,0.4804,0.0530,
46.618945,-0.7864,-2.7262,0.5726,-0.0577,0.4804,0.0530,
46.647717,-0.7864,-2.7262,0.5726,0.4681,0.6733,-0.0031,
46.684507,-0.7864,-2.7262,0.5726,0.4681,0.6733,-0.0031,
46.686255,0.5779,-0.5029,1.2905,0.4681,0.6733,-0.0031,
46.712667,0.5779,-0.5029,1.2905,0.3809,0.6217,-0.3479,
46.751711,0.5779,-0.5029,1.2905,0.3809,0.6217,-0.3479,
46.753780,-0.2590,2.1453,4.5911,0.3809,0.6217,-0.3479,
46.778864,-0.2590,2.1453,4.5911,-1.3079,0.4355,0.3114,
46.815059,-0.2590,2.1453,4.5911,-1.3079,0.4355,0.3114,
46.816193,-2.9631,3.8890,-1.6895,-1.3079,0.4355,0.3114,
46.843569,-2.9631,3.8890,-1.6895,0.2065,-1.1179,-0.4661,
46.880680,-2.9631,3.8890,-1.6895,0.2065,-1.1179,-0.4661,
46.882111,0.3293,-3.2394,-3.7293,0.2065,-1.1179,-0.4661,
46.910011,0.3293,-3.2394,-3.7293,1.1750,0.7553,-0.6460,
46.946298,0.3293,-3.2394,-3.7293,1.1750,0.7553,-0.6460,
46.947919,-3.4119,2.2864,-0.9283,1.1750,0.7553,-0.6460,
46.975206,-3.4119,2.2864,-0.9283,0.6846,-1.4865,0.2074,
47.011992,-3.4119,2.2864,-0.9283,0.6846,-1.4865,0.2074,
47.014347,0.4898,-2.8559,-2.7567,0.6846,-1.4865,0.2074,
47.040064,0.4898,-2.8559,-2.7567,1.3551,-1.6667,0.1513,
47.077544,0.4898,-2.8559,-2.7567,1.3551,-1.6667,0.1513,
47.079373,0.8681,-0.6809,0.3972,1.3551,-1.6667,0.1513,
47.107201,0.8681,-0.6809,0.3972,0.7298,-1.4705,-0.0490,
47.143680,0.8681,-0.6809,0.3972,0.7298,-1.4705,-0.0490,
47.145865,1.9054,-0.9559,1.3247,0.7298,-1.4705,-0.0490,
47.172197,1.9054,-0.9559,1.3247,0.4951,-1.1894,-0.3493,
