
time,ax,ay,az,wx,wy,wz,
0.095307,0.0000,0.0000,0.0000,0.0000,0.0000,0.0000,
0.095900,0.0000,0.0000,0.0000,0.0000,0.0000,0.0000,
0.096314,0.0000,0.0000,0.0000,0.0000,0.0000,0.0000,
0.096617,0.0000,0.0000,0.0000,0.0000,0.0000,0.0000,
0.096842,0.0000,0.0000,0.0000,0.0000,0.0000,0.0000,
0.114463,0.0000,0.0000,0.0000,0.3255,0.1468,-0.0577,
0.180158,0.0000,0.0000,0.0000,0.1863,0.1645,-0.0341,
0.190474,0.0000,0.0000,0.0000,0.1863,0.1645,-0.0341,
0.190958,0.0000,0.0000,0.0000,0.1863,0.1645,-0.0341,
0.191224,0.0000,0.0000,0.0000,0.1863,0.1645,-0.0341,
0.191474,0.0000,0.0000,0.0000,0.1863,0.1645,-0.0341,
0.191721,0.0000,0.0000,0.0000,0.1863,0.1645,-0.0341,
0.191964,0.0000,0.0000,0.0000,0.1863,0.1645,-0.0341,
0.247406,0.0000,0.0000,0.0000,0.2806,0.1676,-0.0173,
0.254376,0.0000,0.0000,0.0000,0.2806,0.1676,-0.0173,
0.255536,0.0000,0.0000,0.0000,0.2806,0.1676,-0.0173,
0.256537,0.0000,0.0000,0.0000,0.2806,0.1676,-0.0173,
0.257568,-0.1222,-0.0674,0.3425,0.2806,0.1676,-0.0173,
0.313384,-0.1222,-0.0674,0.3425,0.0551,-0.1173,-0.0657,
0.323120,-0.0197,0.1439,-0.0204,0.0551,-0.1173,-0.0657,
0.343040,-0.0197,0.1439,-0.0204,0.0551,-0.1173,-0.0657,
0.343619,-0.0197,0.1439,-0.0204,0.0551,-0.1173,-0.0657,
0.343995,-0.0197,0.1439,-0.0204,0.0551,-0.1173,-0.0657,
0.344387,-0.0197,0.1439,-0.0204,0.0551,-0.1173,-0.0657,
0.344748,-0.0197,0.1439,-0.0204,0.0551,-0.1173,-0.0657,
0.380425,-0.0197,0.1439,-0.0204,0.0762,0.0441,-0.0925,
0.390419,0.2573,0.1234,-0.1152,0.0762,0.0441,-0.0925,
0.413065,0.2573,0.1234,-0.1152,0.0762,0.0441,-0.0925,
0.413556,0.2573,0.1234,-0.1152,0.0762,0.0441,-0.0925,
0.413806,0.2573,0.1234,-0.1152,0.0762,0.0441,-0.0925,
0.445811,0.2573,0.1234,-0.1152,0.2695,0.0155,-0.0951,
0.455125,0.2998,-0.2031,0.6532,0.2695,0.0155,-0.0951,
0.476838,0.2998,-0.2031,0.6532,0.2695,0.0155,-0.0951,
0.478583,0.2998,-0.2031,0.6532,0.2695,0.0155,-0.0951,
0.480281,0.2998,-0.2031,0.6532,0.2695,0.0155,-0.0951,
0.481439,0.2998,-0.2031,0.6532,0.2695,0.0155,-0.0951,
0.513292,0.2998,-0.2031,0.6532,0.4969,0.2087,-0.1892,
0.522668,0.0819,-0.2585,0.3538,0.4969,0.2087,-0.1892,
0.571696,0.0819,-0.2585,0.3538,0.4969,0.2087,-0.1892,
0.572349,0.0819,-0.2585,0.3538,0.4969,0.2087,-0.1892,
0.572821,0.0819,-0.2585,0.3538,0.4969,0.2087,-0.1892,
0.573275,0.0819,-0.2585,0.3538,0.4969,0.2087,-0.1892,
0.573803,0.0819,-0.2585,0.3538,0.4969,0.2087,-0.1892,
0.579645,0.0819,-0.2585,0.3538,0.2627,0.0722,-0.0095,
0.589476,-0.1390,-0.0395,0.1005,0.2627,0.0722,-0.0095,
0.652750,-0.1390,-0.0395,0.1005,0.2134,0.0297,-0.1395,
0.655755,0.5126,-0.1991,0.3524,0.2134,0.0297,-0.1395,
0.667283,0.5126,-0.1991,0.3524,0.2134,0.0297,-0.1395,
0.667887,0.5126,-0.1991,0.3524,0.2134,0.0297,-0.1395,
0.668096,0.5126,-0.1991,0.3524,0.2134,0.0297,-0.1395,
0.668363,0.5126,-0.1991,0.3524,0.2134,0.0297,-0.1395,
0.668556,0.5126,-0.1991,0.3524,0.2134,0.0297,-0.1395,
0.713105,0.5126,-0.1991,0.3524,0.2516,-0.0463,-0.2856,
0.721906,0.2235,0.0147,0.1207,0.2516,-0.0463,-0.2856,
0.731392,0.2235,0.0147,0.1207,0.2516,-0.0463,-0.2856,
0.731670,0.2235,0.0147,0.1207,0.2516,-0.0463,-0.2856,
0.731850,0.2235,0.0147,0.1207,0.2516,-0.0463,-0.2856,
0.779195,0.2235,0.0147,0.1207,0.1798,-0.4252,-0.8584,
0.788977,1.2404,-0.1150,0.7376,0.1798,-0.4252,-0.8584,
0.817405,1.2404,-0.1150,0.7376,0.1798,-0.4252,-0.8584,
0.817777,1.2404,-0.1150,0.7376,0.1798,-0.4252,-0.8584,
0.817963,1.2404,-0.1150,0.7376,0.1798,-0.4252,-0.8584,
0.818151,1.2404,-0.1150,0.7376,0.1798,-0.4252,-0.8584,
0.818428,1.2404,-0.1150,0.7376,0.1798,-0.4252,-0.8584,
0.845507,1.2404,-0.1150,0.7376,0.0448,-0.5754,-1.6336,
0.855041,1.1362,-0.4982,0.0908,0.0448,-0.5754,-1.6336,
0.891595,1.1362,-0.4982,0.0908,0.0448,-0.5754,-1.6336,
0.892013,1.1362,-0.4982,0.0908,0.0448,-0.5754,-1.6336,
0.892230,1.1362,-0.4982,0.0908,0.0448,-0.5754,-1.6336,
0.912243,1.1362,-0.4982,0.0908,-0.6448,-1.1351,-2.0180,
0.922063,2.2919,-1.9670,-0.5656,-0.6448,-1.1351,-2.0180,
0.970852,2.2919,-1.9670,-0.5656,-0.6448,-1.1351,-2.0180,
0.972011,2.2919,-1.9670,-0.5656,-0.6448,-1.1351,-2.0180,
0.972762,2.2919,-1.9670,-0.5656,-0.6448,-1.1351,-2.0180,
0.973534,2.2919,-1.9670,-0.5656,-0.6448,-1.1351,-2.0180,
0.974791,2.2919,-1.9670,-0.5656,-0.6448,-1.1351,-2.0180,
0.978935,2.2919,-1.9670,-0.5656,-0.0503,-1.6566,-0.9695,
0.988803,-1.5867,-1.3133,0.1850,-0.0503,-1.6566,-0.9695,
1.046038,-1.5867,-1.3133,0.1850,0.4005,0.0147,-0.0167,
1.052828,-1.5867,-1.3133,0.1850,0.4005,0.0147,-0.0167,
1.053399,-1.5867,-1.3133,0.1850,0.4005,0.0147,-0.0167,
1.053833,-1.5867,-1.3133,0.1850,0.4005,0.0147,-0.0167,
1.054396,-1.5867,-1.3133,0.1850,0.4005,0.0147,-0.0167,
1.054996,-2.4508,2.0422,1.5254,0.4005,0.0147,-0.0167,
1.112879,-2.4508,2.0422,1.5254,0.2585,0.0690,-0.1531,
1.122974,0.8519,-0.4840,-0.7704,0.2585,0.0690,-0.1531,
1.142192,0.8519,-0.4840,-0.7704,0.2585,0.0690,-0.1531,
1.142992,0.8519,-0.4840,-0.7704,0.2585,0.0690,-0.1531,
1.143424,0.8519,-0.4840,-0.7704,0.2585,0.0690,-0.1531,
1.143793,0.8519,-0.4840,-0.7704,0.2585,0.0690,-0.1531,
1.144144,0.8519,-0.4840,-0.7704,0.2585,0.0690,-0.1531,
1.179082,0.8519,-0.4840,-0.7704,0.1677,-0.1104,-0.3526,
1.188871,0.1237,-0.0833,-0.2885,0.1677,-0.1104,-0.3526,
1.212861,0.1237,-0.0833,-0.2885,0.1677,-0.1104,-0.3526,
1.213633,0.1237,-0.0833,-0.2885,0.1677,-0.1104,-0.3526,
1.214155,0.1237,-0.0833,-0.2885,0.1677,-0.1104,-0.3526,
1.246411,0.1237,-0.0833,-0.2885,-0.0016,-0.2146,-1.1209,
1.255963,0.0057,-1.3086,-0.8623,-0.0016,-0.2146,-1.1209,
1.295465,0.0057,-1.3086,-0.8623,-0.0016,-0.2146,-1.1209,
1.297132,0.0057,-1.3086,-0.8623,-0.0016,-0.2146,-1.1209,
1.299053,0.0057,-1.3086,-0.8623,-0.0016,-0.2146,-1.1209,
1.300202,0.0057,-1.3086,-0.8623,-0.0016,-0.2146,-1.1209,
1.302687,0.0057,-1.3086,-0.8623,-0.0016,-0.2146,-1.1209,
1.313080,0.0057,-1.3086,-0.8623,-0.4617,0.3422,-0.8410,
1.322850,0.2330,-3.1003,0.4120,-0.4617,0.3422,-0.8410,
1.372857,0.2330,-3.1003,0.4120,-0.4617,0.3422,-0.8410,
1.373597,0.2330,-3.1003,0.4120,-0.4617,0.3422,-0.8410,
1.374008,0.2330,-3.1003,0.4120,-0.4617,0.3422,-0.8410,
1.374299,0.2330,-3.1003,0.4120,-0.4617,0.3422,-0.8410,
1.377886,0.2330,-3.1003,0.4120,-0.6659,0.6711,-1.0993,
1.388933,-0.9092,-3.8023,-0.4233,-0.6659,0.6711,-1.0993,
1.445412,-0.9092,-3.8023,-0.4233,-0.8783,2.5003,-1.0534,
1.454921,-2.8134,-2.8864,-1.0947,-0.8783,2.5003,-1.0534,
1.465702,-2.8134,-2.8864,-1.0947,-0.8783,2.5003,-1.0534,
1.466108,-2.8134,-2.8864,-1.0947,-0.8783,2.5003,-1.0534,
1.466376,-2.8134,-2.8864,-1.0947,-0.8783,2.5003,-1.0534,
1.466639,-2.8134,-2.8864,-1.0947,-0.8783,2.5003,-1.0534,
1.466835,-2.8134,-2.8864,-1.0947,-0.8783,2.5003,-1.0534,
1.512353,-2.8134,-2.8864,-1.0947,1.9964,2.0695,-2.7252,
1.521742,2.6693,-0.6864,2.7612,1.9964,2.0695,-2.7252,
1.531856,2.6693,-0.6864,2.7612,1.9964,2.0695,-2.7252,
1.532673,2.6693,-0.6864,2.7612,1.9964,2.0695,-2.7252,
1.533440,2.6693,-0.6864,2.7612,1.9964,2.0695,-2.7252,
1.578969,2.6693,-0.6864,2.7612,-0.8535,1.3313,0.1645,
1.588392,-4.3305,18.4255,-2.4747,-0.8535,1.3313,0.1645,
1.617286,-4.3305,18.4255,-2.4747,-0.8535,1.3313,0.1645,
1.618117,-4.3305,18.4255,-2.4747,-0.8535,1.3313,0.1645,
1.618868,-4.3305,18.4255,-2.4747,-0.8535,1.3313,0.1645,
1.619475,-4.3305,18.4255,-2.4747,-0.8535,1.3313,0.1645,
1.620097,-4.3305,18.4255,-2.4747,-0.8535,1.3313,0.1645,
1.645361,-4.3305,18.4255,-2.4747,-0.4131,0.4249,-0.4052,
1.655382,1.2132,-4.4752,2.7151,-0.4131,0.4249,-0.4052,
1.713174,1.2132,-4.4752,2.7151,-1.2233,-0.0079,0.1662,
1.714899,1.2132,-4.4752,2.7151,-1.2233,-0.0079,0.1662,
1.715985,1.2132,-4.4752,2.7151,-1.2233,-0.0079,0.1662,
1.716846,1.2132,-4.4752,2.7151,-1.2233,-0.0079,0.1662,
1.717966,1.2132,-4.4752,2.7151,-1.2233,-0.0079,0.1662,
1.718968,1.2132,-4.4752,2.7151,-1.2233,-0.0079,0.1662,
1.721242,-1.4602,1.9542,0.6259,-1.2233,-0.0079,0.1662,
1.777881,-1.4602,1.9542,0.6259,-0.4704,0.2872,0.8787,
1.788133,0.3927,-0.5670,-0.8690,-0.4704,0.2872,0.8787,
1.807520,0.3927,-0.5670,-0.8690,-0.4704,0.2872,0.8787,
1.807912,0.3927,-0.5670,-0.8690,-0.4704,0.2872,0.8787,
1.808108,0.3927,-0.5670,-0.8690,-0.4704,0.2872,0.8787,
1.808313,0.3927,-0.5670,-0.8690,-0.4704,0.2872,0.8787,
1.808509,0.3927,-0.5670,-0.8690,-0.4704,0.2872,0.8787,
1.844758,0.3927,-0.5670,-0.8690,-0.3542,1.2301,0.7845,
1.852283,0.3927,-0.5670,-0.8690,-0.3542,1.2301,0.7845,
1.852559,0.3927,-0.5670,-0.8690,-0.3542,1.2301,0.7845,
1.853512,1.3550,-0.3640,-0.9455,-0.3542,1.2301,0.7845,
1.911785,1.3550,-0.3640,-0.9455,-0.3586,0.7743,0.4780,
1.921332,-0.6150,-0.9702,0.3168,-0.3586,0.7743,0.4780,
1.941038,-0.6150,-0.9702,0.3168,-0.3586,0.7743,0.4780,
1.942088,-0.6150,-0.9702,0.3168,-0.3586,0.7743,0.4780,
1.943050,-0.6150,-0.9702,0.3168,-0.3586,0.7743,0.4780,
1.943753,-0.6150,-0.9702,0.3168,-0.3586,0.7743,0.4780,
1.944486,-0.6150,-0.9702,0.3168,-0.3586,0.7743,0.4780,
1.978395,-0.6150,-0.9702,0.3168,-0.4184,0.6471,0.2967,
1.988438,-1.0579,-0.3632,0.4145,-0.4184,0.6471,0.2967,
2.013829,-1.0579,-0.3632,0.4145,-0.4184,0.6471,0.2967,
2.015938,-1.0579,-0.3632,0.4145,-0.4184,0.6471,0.2967,
2.016756,-1.0579,-0.3632,0.4145,-0.4184,0.6471,0.2967,
2.045741,-1.0579,-0.3632,0.4145,0.0388,1.2372,0.3625,
2.055804,0.7004,-0.8626,-0.2963,0.0388,1.2372,0.3625,
2.094018,0.7004,-0.8626,-0.2963,0.0388,1.2372,0.3625,
2.095397,0.7004,-0.8626,-0.2963,0.0388,1.2372,0.3625,
2.096254,0.7004,-0.8626,-0.2963,0.0388,1.2372,0.3625,
2.097373,0.7004,-0.8626,-0.2963,0.0388,1.2372,0.3625,
2.098656,0.7004,-0.8626,-0.2963,0.0388,1.2372,0.3625,
2.112102,0.7004,-0.8626,-0.2963,0.3938,1.2741,0.3123,
2.121910,0.9998,-1.2247,-0.0092,0.3938,1.2741,0.3123,
2.179268,0.9998,-1.2247,-0.0092,0.6194,1.1516,0.2292,
2.189645,-0.2091,-0.5639,0.7125,0.6194,1.1516,0.2292,
2.190391,-0.2091,-0.5639,0.7125,0.6194,1.1516,0.2292,
2.190819,-0.2091,-0.5639,0.7125,0.6194,1.1516,0.2292,
2.191209,-0.2091,-0.5639,0.7125,0.6194,1.1516,0.2292,
2.191583,-0.2091,-0.5639,0.7125,0.6194,1.1516,0.2292,
2.191934,-0.2091,-0.5639,0.7125,0.6194,1.1516,0.2292,
2.246360,-0.2091,-0.5639,0.7125,1.0805,-0.0925,-0.0289,
2.254896,0.1237,-0.8738,1.0202,1.0805,-0.0925,-0.0289,
2.284382,0.1237,-0.8738,1.0202,1.0805,-0.0925,-0.0289,
2.285617,0.1237,-0.8738,1.0202,1.0805,-0.0925,-0.0289,
2.286623,0.1237,-0.8738,1.0202,1.0805,-0.0925,-0.0289,
2.287405,0.1237,-0.8738,1.0202,1.0805,-0.0925,-0.0289,
2.288078,0.1237,-0.8738,1.0202,1.0805,-0.0925,-0.0289,
2.310957,0.1237,-0.8738,1.0202,0.2800,-0.4832,-0.2128,
2.320915,-2.4778,3.9624,-1.5258,0.2800,-0.4832,-0.2128,
2.331440,-2.4778,3.9624,-1.5258,0.2800,-0.4832,-0.2128,
2.331768,-2.4778,3.9624,-1.5258,0.2800,-0.4832,-0.2128,
2.380507,-2.4778,3.9624,-1.5258,1.3494,-0.6280,-0.9283,
2.388541,-0.2471,-3.5466,-0.0312,1.3494,-0.6280,-0.9283,
2.417624,-0.2471,-3.5466,-0.0312,1.3494,-0.6280,-0.9283,
2.418629,-0.2471,-3.5466,-0.0312,1.3494,-0.6280,-0.9283,
2.419245,-0.2471,-3.5466,-0.0312,1.3494,-0.6280,-0.9283,
2.419858,-0.2471,-3.5466,-0.0312,1.3494,-0.6280,-0.9283,
2.420442,-0.2471,-3.5466,-0.0312,1.3494,-0.6280,-0.9283,
2.445468,-0.2471,-3.5466,-0.0312,0.2661,-0.4198,-0.1196,
2.455620,1.1476,0.9704,-2.5458,0.2661,-0.4198,-0.1196,
2.512578,1.1476,0.9704,-2.5458,-0.5004,1.4339,0.0420,
2.514326,1.1476,0.9704,-2.5458,-0.5004,1.4339,0.0420,
2.515829,1.1476,0.9704,-2.5458,-0.5004,1.4339,0.0420,
2.516623,1.1476,0.9704,-2.5458,-0.5004,1.4339,0.0420,
2.517457,1.1476,0.9704,-2.5458,-0.5004,1.4339,0.0420,
2.518890,1.1476,0.9704,-2.5458,-0.5004,1.4339,0.0420,
2.521464,2.6394,1.9044,-2.9544,-0.5004,1.4339,0.0420,
2.578761,2.6394,1.9044,-2.9544,0.1620,1.3605,0.1105,
2.588292,0.0368,-0.7443,-1.6013,0.1620,1.3605,0.1105,
2.608090,0.0368,-0.7443,-1.6013,0.1620,1.3605,0.1105,
2.608915,0.0368,-0.7443,-1.6013,0.1620,1.3605,0.1105,
2.609498,0.0368,-0.7443,-1.6013,0.1620,1.3605,0.1105,
2.609847,0.0368,-0.7443,-1.6013,0.1620,1.3605,0.1105,
2.610180,0.0368,-0.7443,-1.6013,0.1620,1.3605,0.1105,
2.645495,0.0368,-0.7443,-1.6013,0.8055,0.3021,0.0224,
2.656397,0.0368,-0.7443,-1.6013,0.8055,0.3021,0.0224,
2.658147,0.0368,-0.7443,-1.6013,0.8055,0.3021,0.0224,
2.660844,-2.3114,-0.7164,2.2607,0.8055,0.3021,0.0224,
2.711494,-2.3114,-0.7164,2.2607,0.1658,0.0304,-0.2631,
2.720996,-0.7598,0.6071,1.9489,0.1658,0.0304,-0.2631,
2.740547,-0.7598,0.6071,1.9489,0.1658,0.0304,-0.2631,
2.740983,-0.7598,0.6071,1.9489,0.1658,0.0304,-0.2631,
2.741208,-0.7598,0.6071,1.9489,0.1658,0.0304,-0.2631,
2.741427,-0.7598,0.6071,1.9489,0.1658,0.0304,-0.2631,
2.741660,-0.7598,0.6071,1.9489,0.1658,0.0304,-0.2631,
2.777956,-0.7598,0.6071,1.9489,0.7175,-0.0880,0.0156,
2.787507,0.5494,0.3950,2.5033,0.7175,-0.0880,0.0156,
2.811749,0.5494,0.3950,2.5033,0.7175,-0.0880,0.0156,
2.812844,0.5494,0.3950,2.5033,0.7175,-0.0880,0.0156,
2.813581,0.5494,0.3950,2.5033,0.7175,-0.0880,0.0156,
2.845424,0.5494,0.3950,2.5033,-1.9395,-1.9128,0.0721,
2.855629,0.2216,0.4394,1.4752,-1.9395,-1.9128,0.0721,
2.893476,0.2216,0.4394,1.4752,-1.9395,-1.9128,0.0721,
2.894892,0.2216,0.4394,1.4752,-1.9395,-1.9128,0.0721,
2.895238,0.2216,0.4394,1.4752,-1.9395,-1.9128,0.0721,
2.895557,0.2216,0.4394,1.4752,-1.9395,-1.9128,0.0721,
2.895834,0.2216,0.4394,1.4752,-1.9395,-1.9128,0.0721,
2.911027,0.2216,0.4394,1.4752,-3.1650,-0.7660,-0.2028,
2.920842,-0.9597,3.1741,-1.3294,-3.1650,-0.7660,-0.2028,
2.977857,-0.9597,3.1741,-1.3294,-1.1136,1.1448,-0.5447,
2.988083,-1.9978,-0.9147,-5.7386,-1.1136,1.1448,-0.5447,
2.988956,-1.9978,-0.9147,-5.7386,-1.1136,1.1448,-0.5447,
2.989414,-1.9978,-0.9147,-5.7386,-1.1136,1.1448,-0.5447,
2.989865,-1.9978,-0.9147,-5.7386,-1.1136,1.1448,-0.5447,
2.990713,-1.9978,-0.9147,-5.7386,-1.1136,1.1448,-0.5447,
2.991153,-1.9978,-0.9147,-5.7386,-1.1136,1.1448,-0.5447,
3.044288,-1.9978,-0.9147,-5.7386,-0.5554,0.3719,0.2565,
3.053963,0.8107,-0.4509,-0.6228,-0.5554,0.3719,0.2565,
3.083608,0.8107,-0.4509,-0.6228,-0.5554,0.3719,0.2565,
3.084460,0.8107,-0.4509,-0.6228,-0.5554,0.3719,0.2565,
3.085107,0.8107,-0.4509,-0.6228,-0.5554,0.3719,0.2565,
3.085743,0.8107,-0.4509,-0.6228,-0.5554,0.3719,0.2565,
3.086694,0.8107,-0.4509,-0.6228,-0.5554,0.3719,0.2565,
3.110908,0.8107,-0.4509,-0.6228,0.1606,0.9762,0.7265,
3.120796,0.7928,-1.3052,-1.5906,0.1606,0.9762,0.7265,
3.178429,0.7928,-1.3052,-1.5906,-0.1565,1.0833,0.5922,
3.179695,0.7928,-1.3052,-1.5906,-0.1565,1.0833,0.5922,
3.180333,0.7928,-1.3052,-1.5906,-0.1565,1.0833,0.5922,
3.180984,0.7928,-1.3052,-1.5906,-0.1565,1.0833,0.5922,
3.181817,0.7928,-1.3052,-1.5906,-0.1565,1.0833,0.5922,
3.182690,0.7928,-1.3052,-1.5906,-0.1565,1.0833,0.5922,
3.187035,-0.2386,-0.8208,-0.7885,-0.1565,1.0833,0.5922,
3.245452,-0.2386,-0.8208,-0.7885,0.0325,0.5927,0.0512,
3.254633,-0.7610,-0.9773,1.2781,0.0325,0.5927,0.0512,
3.273784,-0.7610,-0.9773,1.2781,0.0325,0.5927,0.0512,
3.275182,-0.7610,-0.9773,1.2781,0.0325,0.5927,0.0512,
3.276471,-0.7610,-0.9773,1.2781,0.0325,0.5927,0.0512,
3.277857,-0.7610,-0.9773,1.2781,0.0325,0.5927,0.0512,
3.278957,-0.7610,-0.9773,1.2781,0.0325,0.5927,0.0512,
3.312487,-0.7610,-0.9773,1.2781,-0.1674,1.4848,0.0917,
3.321433,-0.3003,-0.5604,2.5982,-0.1674,1.4848,0.0917,
3.369727,-0.3003,-0.5604,2.5982,-0.1674,1.4848,0.0917,
3.370938,-0.3003,-0.5604,2.5982,-0.1674,1.4848,0.0917,
3.371534,-0.3003,-0.5604,2.5982,-0.1674,1.4848,0.0917,
3.372122,-0.3003,-0.5604,2.5982,-0.1674,1.4848,0.0917,
3.372725,-0.3003,-0.5604,2.5982,-0.1674,1.4848,0.0917,
3.377852,-0.3003,-0.5604,2.5982,0.5576,0.8480,0.1562,
3.387867,0.6207,0.1707,2.6579,0.5576,0.8480,0.1562,
3.427683,0.6207,0.1707,2.6579,0.5576,0.8480,0.1562,
3.430775,0.6207,0.1707,2.6579,0.5576,0.8480,0.1562,
3.431488,0.6207,0.1707,2.6579,0.5576,0.8480,0.1562,
3.445909,0.6207,0.1707,2.6579,1.1978,-1.3338,-0.5276,
3.453449,0.2367,-2.6633,2.0145,1.1978,-1.3338,-0.5276,
3.454733,0.2367,-2.6633,2.0145,1.1978,-1.3338,-0.5276,
3.514776,0.2367,-2.6633,2.0145,0.5066,-0.0926,-0.0465,
3.522682,-5.1467,6.4367,-4.1940,0.5066,-0.0926,-0.0465,
3.541137,-5.1467,6.4367,-4.1940,0.5066,-0.0926,-0.0465,
3.543371,-5.1467,6.4367,-4.1940,0.5066,-0.0926,-0.0465,
3.544656,-5.1467,6.4367,-4.1940,0.5066,-0.0926,-0.0465,
3.545793,-5.1467,6.4367,-4.1940,0.5066,-0.0926,-0.0465,
3.547092,-5.1467,6.4367,-4.1940,0.5066,-0.0926,-0.0465,
3.578856,-5.1467,6.4367,-4.1940,0.9856,-0.3738,-0.0695,
3.587688,2.9214,-2.7560,-0.5571,0.9856,-0.3738,-0.0695,
3.638142,2.9214,-2.7560,-0.5571,0.9856,-0.3738,-0.0695,
3.639627,2.9214,-2.7560,-0.5571,0.9856,-0.3738,-0.0695,
3.640183,2.9214,-2.7560,-0.5571,0.9856,-0.3738,-0.0695,
3.640700,2.9214,-2.7560,-0.5571,0.9856,-0.3738,-0.0695,
3.641190,2.9214,-2.7560,-0.5571,0.9856,-0.3738,-0.0695,
3.645656,2.9214,-2.7560,-0.5571,0.2581,-0.2278,0.3995,
3.656153,1.7543,1.1721,-2.1305,0.2581,-0.2278,0.3995,
3.692406,1.7543,1.1721,-2.1305,0.2581,-0.2278,0.3995,
3.692912,1.7543,1.1721,-2.1305,0.2581,-0.2278,0.3995,
3.714829,1.7543,1.1721,-2.1305,0.3991,0.3308,0.2237,
3.720898,0.1660,-0.6117,-1.4780,0.3991,0.3308,0.2237,
3.773006,0.1660,-0.6117,-1.4780,0.3991,0.3308,0.2237,
3.774145,0.1660,-0.6117,-1.4780,0.3991,0.3308,0.2237,
3.774822,0.1660,-0.6117,-1.4780,0.3991,0.3308,0.2237,
3.775360,0.1660,-0.6117,-1.4780,0.3991,0.3308,0.2237,
3.775874,0.1660,-0.6117,-1.4780,0.3991,0.3308,0.2237,
3.779073,0.1660,-0.6117,-1.4780,0.4438,0.1076,0.0133,
3.788063,-1.1417,-0.2017,0.3275,0.4438,0.1076,0.0133,
3.846150,-1.1417,-0.2017,0.3275,0.2281,-0.2424,0.0015,
3.853858,-0.0372,0.2417,1.5228,0.2281,-0.2424,0.0015,
3.866049,-0.0372,0.2417,1.5228,0.2281,-0.2424,0.0015,
3.867008,-0.0372,0.2417,1.5228,0.2281,-0.2424,0.0015,
3.867444,-0.0372,0.2417,1.5228,0.2281,-0.2424,0.0015,
3.867866,-0.0372,0.2417,1.5228,0.2281,-0.2424,0.0015,
3.868279,-0.0372,0.2417,1.5228,0.2281,-0.2424,0.0015,
3.913020,-0.0372,0.2417,1.5228,0.6592,-0.6700,0.0648,
3.922755,0.4673,0.2875,1.6626,0.6592,-0.6700,0.0648,
3.934085,0.4673,0.2875,1.6626,0.6592,-0.6700,0.0648,
3.935185,0.4673,0.2875,1.6626,0.6592,-0.6700,0.0648,
3.935772,0.4673,0.2875,1.6626,0.6592,-0.6700,0.0648,
3.979505,0.4673,0.2875,1.6626,1.1664,-0.4949,0.0397,
3.987797,-0.3277,-0.8732,1.6607,1.1664,-0.4949,0.0397,
4.017401,-0.3277,-0.8732,1.6607,1.1664,-0.4949,0.0397,
4.018611,-0.3277,-0.8732,1.6607,1.1664,-0.4949,0.0397,
4.019194,-0.3277,-0.8732,1.6607,1.1664,-0.4949,0.0397,
4.019714,-0.3277,-0.8732,1.6607,1.1664,-0.4949,0.0397,
4.020187,-0.3277,-0.8732,1.6607,1.1664,-0.4949,0.0397,
4.044164,-0.3277,-0.8732,1.6607,-1.1270,-1.0930,0.2450,
4.054119,0.8633,0.2964,1.4737,-1.1270,-1.0930,0.2450,
4.093075,0.8633,0.2964,1.4737,-1.1270,-1.0930,0.2450,
4.095738,0.8633,0.2964,1.4737,-1.1270,-1.0930,0.2450,
4.097019,0.8633,0.2964,1.4737,-1.1270,-1.0930,0.2450,
4.111671,0.8633,0.2964,1.4737,-2.8162,-0.9839,0.0397,
4.122014,0.1320,2.7928,-1.1991,-2.8162,-0.9839,0.0397,
4.169795,0.1320,2.7928,-1.1991,-2.8162,-0.9839,0.0397,
4.171453,0.1320,2.7928,-1.1991,-2.8162,-0.9839,0.0397,
4.172499,0.1320,2.7928,-1.1991,-2.8162,-0.9839,0.0397,
4.173732,0.1320,2.7928,-1.1991,-2.8162,-0.9839,0.0397,
4.175024,0.1320,2.7928,-1.1991,-2.8162,-0.9839,0.0397,
4.177415,0.1320,2.7928,-1.1991,-1.6267,0.0606,-0.7091,
4.187544,-3.1069,0.6869,-3.2037,-1.6267,0.0606,-0.7091,
4.246086,-3.1069,0.6869,-3.2037,-0.6458,0.4200,-0.1775,
4.255291,1.1919,-0.6034,-1.8483,-0.6458,0.4200,-0.1775,
4.264288,1.1919,-0.6034,-1.8483,-0.6458,0.4200,-0.1775,
4.264913,1.1919,-0.6034,-1.8483,-0.6458,0.4200,-0.1775,
4.265210,1.1919,-0.6034,-1.8483,-0.6458,0.4200,-0.1775,
4.265497,1.1919,-0.6034,-1.8483,-0.6458,0.4200,-0.1775,
4.265814,1.1919,-0.6034,-1.8483,-0.6458,0.4200,-0.1775,
4.310335,1.1919,-0.6034,-1.8483,-0.0145,0.3306,0.2295,
4.319956,1.1934,-0.7542,-0.8612,-0.0145,0.3306,0.2295,
4.359046,1.1934,-0.7542,-0.8612,-0.0145,0.3306,0.2295,
4.361244,1.1934,-0.7542,-0.8612,-0.0145,0.3306,0.2295,
4.362884,1.1934,-0.7542,-0.8612,-0.0145,0.3306,0.2295,
4.364631,1.1934,-0.7542,-0.8612,-0.0145,0.3306,0.2295,
4.366075,1.1934,-0.7542,-0.8612,-0.0145,0.3306,0.2295,
4.377223,1.1934,-0.7542,-0.8612,0.3593,0.3364,0.5424,
4.386844,-0.3572,-1.2946,-0.8662,0.3593,0.3364,0.5424,
4.411507,-0.3572,-1.2946,-0.8662,0.3593,0.3364,0.5424,
4.411998,-0.3572,-1.2946,-0.8662,0.3593,0.3364,0.5424,
4.443206,-0.3572,-1.2946,-0.8662,0.2262,0.3967,0.4146,
4.453076,-0.0620,-0.5128,0.2968,0.2262,0.3967,0.4146,
4.491961,-0.0620,-0.5128,0.2968,0.2262,0.3967,0.4146,
4.493817,-0.0620,-0.5128,0.2968,0.2262,0.3967,0.4146,
4.495690,-0.0620,-0.5128,0.2968,0.2262,0.3967,0.4146,
4.496678,-0.0620,-0.5128,0.2968,0.2262,0.3967,0.4146,
4.497896,-0.0620,-0.5128,0.2968,0.2262,0.3967,0.4146,
4.510649,-0.0620,-0.5128,0.2968,-0.0874,0.8057,0.1318,
4.520563,-0.3971,-0.7568,1.0154,-0.0874,0.8057,0.1318,
4.580515,-0.3971,-0.7568,1.0154,-0.3547,1.3092,0.4011,
4.589334,0.5394,-0.0190,1.3003,-0.3547,1.3092,0.4011,
4.590648,0.5394,-0.0190,1.3003,-0.3547,1.3092,0.4011,
4.591336,0.5394,-0.0190,1.3003,-0.3547,1.3092,0.4011,
4.591968,0.5394,-0.0190,1.3003,-0.3547,1.3092,0.4011,
4.592559,0.5394,-0.0190,1.3003,-0.3547,1.3092,0.4011,
4.593190,0.5394,-0.0190,1.3003,-0.3547,1.3092,0.4011,
4.643940,0.5394,-0.0190,1.3003,0.6342,0.7720,0.4326,
4.652245,0.2511,-0.1544,2.2251,0.6342,0.7720,0.4326,
4.653132,0.2511,-0.1544,2.2251,0.6342,0.7720,0.4326,
4.653735,0.2511,-0.1544,2.2251,0.6342,0.7720,0.4326,
4.654389,0.2511,-0.1544,2.2251,0.6342,0.7720,0.4326,
4.712452,0.2511,-0.1544,2.2251,1.1598,-0.8861,-0.5052,
4.721804,1.1806,-3.4654,2.4897,1.1598,-0.8861,-0.5052,
4.744033,1.1806,-3.4654,2.4897,1.1598,-0.8861,-0.5052,
4.745337,1.1806,-3.4654,2.4897,1.1598,-0.8861,-0.5052,
4.745980,1.1806,-3.4654,2.4897,1.1598,-0.8861,-0.5052,
4.746748,1.1806,-3.4654,2.4897,1.1598,-0.8861,-0.5052,
4.747384,1.1806,-3.4654,2.4897,1.1598,-0.8861,-0.5052,
4.778489,1.1806,-3.4654,2.4897,-0.1840,0.6636,-0.1132,
4.788756,-5.2357,7.9337,-3.1595,-0.1840,0.6636,-0.1132,
4.835947,-5.2357,7.9337,-3.1595,-0.1840,0.6636,-0.1132,
4.838005,-5.2357,7.9337,-3.1595,-0.1840,0.6636,-0.1132,
4.838921,-5.2357,7.9337,-3.1595,-0.1840,0.6636,-0.1132,
4.839268,-5.2357,7.9337,-3.1595,-0.1840,0.6636,-0.1132,
4.839559,-5.2357,7.9337,-3.1595,-0.1840,0.6636,-0.1132,
4.845612,-5.2357,7.9337,-3.1595,1.0508,-0.1554,-0.3784,
4.855347,2.0382,-3.3019,0.3414,1.0508,-0.1554,-0.3784,
4.892212,2.0382,-3.3019,0.3414,1.0508,-0.1554,-0.3784,
4.892761,2.0382,-3.3019,0.3414,1.0508,-0.1554,-0.3784,
4.909582,2.0382,-3.3019,0.3414,0.1066,0.3829,0.1558,
4.921014,1.1789,0.3549,-3.7939,0.1066,0.3829,0.1558,
4.973668,1.1789,0.3549,-3.7939,0.1066,0.3829,0.1558,
4.975242,1.1789,0.3549,-3.7939,0.1066,0.3829,0.1558,
4.975867,1.1789,0.3549,-3.7939,0.1066,0.3829,0.1558,
4.976482,1.1789,0.3549,-3.7939,0.1066,0.3829,0.1558,
4.977109,1.1789,0.3549,-3.7939,0.1066,0.3829,0.1558,
4.977872,1.1789,0.3549,-3.7939,0.1660,0.5731,0.3576,
4.986990,1.2828,0.6463,0.0841,0.1660,0.5731,0.3576,
5.045257,1.2828,0.6463,0.0841,0.4209,0.2146,0.0739,
5.053440,1.2828,0.6463,0.0841,0.4209,0.2146,0.0739,
5.054096,1.2828,0.6463,0.0841,0.4209,0.2146,0.0739,
5.054863,1.2828,0.6463,0.0841,0.4209,0.2146,0.0739,
5.055411,1.2828,0.6463,0.0841,0.4209,0.2146,0.0739,
5.055980,-1.4637,-0.5737,-0.7500,0.4209,0.2146,0.0739,
5.112255,-1.4637,-0.5737,-0.7500,0.5417,-0.1462,-0.0511,
5.121512,-0.9091,-0.0666,0.5557,0.5417,-0.1462,-0.0511,
5.133273,-0.9091,-0.0666,0.5557,0.5417,-0.1462,-0.0511,
5.133780,-0.9091,-0.0666,0.5557,0.5417,-0.1462,-0.0511,
5.134085,-0.9091,-0.0666,0.5557,0.5417,-0.1462,-0.0511,
5.134925,-0.9091,-0.0666,0.5557,0.5417,-0.1462,-0.0511,
5.177573,-0.9091,-0.0666,0.5557,0.6313,-0.7203,0.1157,
5.186785,0.4062,0.2438,2.1189,0.6313,-0.7203,0.1157,
5.216070,0.4062,0.2438,2.1189,0.6313,-0.7203,0.1157,
5.216625,0.4062,0.2438,2.1189,0.6313,-0.7203,0.1157,
5.216806,0.4062,0.2438,2.1189,0.6313,-0.7203,0.1157,
5.216995,0.4062,0.2438,2.1189,0.6313,-0.7203,0.1157,
5.217169,0.4062,0.2438,2.1189,0.6313,-0.7203,0.1157,
5.243549,0.4062,0.2438,2.1189,1.1871,-0.7032,0.0584,
5.253420,-0.3109,-0.1274,2.4649,1.1871,-0.7032,0.0584,
5.313816,-0.3109,-0.1274,2.4649,-0.3277,-0.8873,-0.1869,
5.315752,-0.3109,-0.1274,2.4649,-0.3277,-0.8873,-0.1869,
5.316354,-0.3109,-0.1274,2.4649,-0.3277,-0.8873,-0.1869,
5.316928,-0.3109,-0.1274,2.4649,-0.3277,-0.8873,-0.1869,
5.317551,-0.3109,-0.1274,2.4649,-0.3277,-0.8873,-0.1869,
5.318159,-0.3109,-0.1274,2.4649,-0.3277,-0.8873,-0.1869,
5.320566,-0.2196,0.0221,2.1234,-0.3277,-0.8873,-0.1869,
5.376647,-0.2196,0.0221,2.1234,-2.1752,-1.2009,0.4463,
5.386442,0.4537,1.6828,-1.4007,-2.1752,-1.2009,0.4463,
5.405177,0.4537,1.6828,-1.4007,-2.1752,-1.2009,0.4463,
5.405607,0.4537,1.6828,-1.4007,-2.1752,-1.2009,0.4463,
5.405797,0.4537,1.6828,-1.4007,-2.1752,-1.2009,0.4463,
5.405982,0.4537,1.6828,-1.4007,-2.1752,-1.2009,0.4463,
5.406170,0.4537,1.6828,-1.4007,-2.1752,-1.2009,0.4463,
5.443172,0.4537,1.6828,-1.4007,-2.5809,-0.6062,-0.1990,
5.452462,-0.9501,1.8388,-1.4902,-2.5809,-0.6062,-0.1990,
5.500795,-0.9501,1.8388,-1.4902,-2.5809,-0.6062,-0.1990,
5.502527,-0.9501,1.8388,-1.4902,-2.5809,-0.6062,-0.1990,
5.503956,-0.9501,1.8388,-1.4902,-2.5809,-0.6062,-0.1990,
5.505350,-0.9501,1.8388,-1.4902,-2.5809,-0.6062,-0.1990,
5.506949,-0.9501,1.8388,-1.4902,-2.5809,-0.6062,-0.1990,
5.510715,-0.9501,1.8388,-1.4902,-0.4398,-0.5563,-0.2518,
5.519178,-1.6454,-1.2654,-3.8817,-0.4398,-0.5563,-0.2518,
5.531262,-1.6454,-1.2654,-3.8817,-0.4398,-0.5563,-0.2518,
5.575838,-1.6454,-1.2654,-3.8817,-0.1893,0.3600,0.2222,
5.585610,2.7909,0.4581,-0.6654,-0.1893,0.3600,0.2222,
5.614751,2.7909,0.4581,-0.6654,-0.1893,0.3600,0.2222,
5.615369,2.7909,0.4581,-0.6654,-0.1893,0.3600,0.2222,
5.615701,2.7909,0.4581,-0.6654,-0.1893,0.3600,0.2222,
5.615976,2.7909,0.4581,-0.6654,-0.1893,0.3600,0.2222,
5.616241,2.7909,0.4581,-0.6654,-0.1893,0.3600,0.2222,
5.642602,2.7909,0.4581,-0.6654,0.6084,-0.0762,0.2682,
5.652227,0.6063,-2.4078,-0.8831,0.6084,-0.0762,0.2682,
5.691990,0.6063,-2.4078,-0.8831,0.6084,-0.0762,0.2682,
5.693181,0.6063,-2.4078,-0.8831,0.6084,-0.0762,0.2682,
5.693821,0.6063,-2.4078,-0.8831,0.6084,-0.0762,0.2682,
5.694452,0.6063,-2.4078,-0.8831,0.6084,-0.0762,0.2682,
5.709920,0.6063,-2.4078,-0.8831,0.4106,0.1726,0.4593,
5.719462,0.0675,-0.3408,0.0351,0.4106,0.1726,0.4593,
5.775608,0.0675,-0.3408,0.0351,-0.1038,0.5528,0.3456,
5.787119,-0.3508,0.3093,0.8303,-0.1038,0.5528,0.3456,
5.788008,-0.3508,0.3093,0.8303,-0.1038,0.5528,0.3456,
5.788422,-0.3508,0.3093,0.8303,-0.1038,0.5528,0.3456,
5.788807,-0.3508,0.3093,0.8303,-0.1038,0.5528,0.3456,
5.789204,-0.3508,0.3093,0.8303,-0.1038,0.5528,0.3456,
5.789557,-0.3508,0.3093,0.8303,-0.1038,0.5528,0.3456,
5.846210,-0.3508,0.3093,0.8303,-0.2915,1.6377,0.2892,
5.847979,-0.3508,0.3093,0.8303,-0.2915,1.6377,0.2892,
5.848610,-0.3508,0.3093,0.8303,-0.2915,1.6377,0.2892,
5.849230,-0.3508,0.3093,0.8303,-0.2915,1.6377,0.2892,
5.852980,0.4101,-0.1426,1.2578,-0.2915,1.6377,0.2892,
5.909100,0.4101,-0.1426,1.2578,0.5822,1.3907,0.3159,
5.919414,1.6097,-0.3499,1.6950,0.5822,1.3907,0.3159,
5.938719,1.6097,-0.3499,1.6950,0.5822,1.3907,0.3159,
5.940248,1.6097,-0.3499,1.6950,0.5822,1.3907,0.3159,
5.941194,1.6097,-0.3499,1.6950,0.5822,1.3907,0.3159,
5.942153,1.6097,-0.3499,1.6950,0.5822,1.3907,0.3159,
5.943474,1.6097,-0.3499,1.6950,0.5822,1.3907,0.3159,
5.975820,1.6097,-0.3499,1.6950,1.1527,0.1012,-0.5000,
5.985517,1.4366,-3.2051,2.3738,1.1527,0.1012,-0.5000,
6.033921,1.4366,-3.2051,2.3738,1.1527,0.1012,-0.5000,
6.034438,1.4366,-3.2051,2.3738,1.1527,0.1012,-0.5000,
6.034632,1.4366,-3.2051,2.3738,1.1527,0.1012,-0.5000,
6.034821,1.4366,-3.2051,2.3738,1.1527,0.1012,-0.5000,
6.034996,1.4366,-3.2051,2.3738,1.1527,0.1012,-0.5000,
6.042204,1.4366,-3.2051,2.3738,-0.4475,0.8071,-0.1606,
6.052546,-3.7234,4.9472,-1.5280,-0.4475,0.8071,-0.1606,
6.111097,-3.7234,4.9472,-1.5280,0.8292,0.0134,-0.4593,
6.120571,-1.8671,0.4985,1.2127,0.8292,0.0134,-0.4593,
6.129822,-1.8671,0.4985,1.2127,0.8292,0.0134,-0.4593,
6.130441,-1.8671,0.4985,1.2127,0.8292,0.0134,-0.4593,
6.130773,-1.8671,0.4985,1.2127,0.8292,0.0134,-0.4593,
6.131020,-1.8671,0.4985,1.2127,0.8292,0.0134,-0.4593,
6.131261,-1.8671,0.4985,1.2127,0.8292,0.0134,-0.4593,
6.175817,-1.8671,0.4985,1.2127,0.8022,0.2622,-0.3598,
6.185379,0.5739,-2.5944,-3.4876,0.8022,0.2622,-0.3598,
6.227643,0.5739,-2.5944,-3.4876,0.8022,0.2622,-0.3598,
6.228788,0.5739,-2.5944,-3.4876,0.8022,0.2622,-0.3598,
6.229335,0.5739,-2.5944,-3.4876,0.8022,0.2622,-0.3598,
6.229865,0.5739,-2.5944,-3.4876,0.8022,0.2622,-0.3598,
6.230519,0.5739,-2.5944,-3.4876,0.8022,0.2622,-0.3598,
6.244584,0.5739,-2.5944,-3.4876,0.3242,-0.2194,0.5229,
6.254540,1.8991,2.0713,-1.8177,0.3242,-0.2194,0.5229,
6.309663,1.8991,2.0713,-1.8177,0.1381,0.2533,0.1825,
6.320757,-1.4055,-0.3348,0.1063,0.1381,0.2533,0.1825,
6.322162,-1.4055,-0.3348,0.1063,0.1381,0.2533,0.1825,
6.323055,-1.4055,-0.3348,0.1063,0.1381,0.2533,0.1825,
6.323668,-1.4055,-0.3348,0.1063,0.1381,0.2533,0.1825,
6.324293,-1.4055,-0.3348,0.1063,0.1381,0.2533,0.1825,
6.325104,-1.4055,-0.3348,0.1063,0.1381,0.2533,0.1825,
6.379548,-1.4055,-0.3348,0.1063,-0.0380,0.3207,-0.1319,
6.387793,-1.1919,-0.7072,-0.7718,-0.0380,0.3207,-0.1319,
6.416100,-1.1919,-0.7072,-0.7718,-0.0380,0.3207,-0.1319,
6.417288,-1.1919,-0.7072,-0.7718,-0.0380,0.3207,-0.1319,
6.417914,-1.1919,-0.7072,-0.7718,-0.0380,0.3207,-0.1319,
6.418681,-1.1919,-0.7072,-0.7718,-0.0380,0.3207,-0.1319,
6.419316,-1.1919,-0.7072,-0.7718,-0.0380,0.3207,-0.1319,
6.443747,-1.1919,-0.7072,-0.7718,0.8020,-0.4333,0.2156,
6.453838,0.7427,0.1991,-0.1171,0.8020,-0.4333,0.2156,
6.493757,0.7427,0.1991,-0.1171,0.8020,-0.4333,0.2156,
6.497007,0.7427,0.1991,-0.1171,0.8020,-0.4333,0.2156,
6.499189,0.7427,0.1991,-0.1171,0.8020,-0.4333,0.2156,
6.500982,0.7427,0.1991,-0.1171,0.8020,-0.4333,0.2156,
6.512297,0.7427,0.1991,-0.1171,0.7317,-0.6635,0.3984,
6.522009,0.3263,0.2358,2.4641,0.7317,-0.6635,0.3984,
6.579954,0.3263,0.2358,2.4641,0.6393,-0.6521,0.0504,
6.587892,0.3263,0.2358,2.4641,0.6393,-0.6521,0.0504,
6.588707,0.3263,0.2358,2.4641,0.6393,-0.6521,0.0504,
6.589256,0.3263,0.2358,2.4641,0.6393,-0.6521,0.0504,
6.589794,0.3263,0.2358,2.4641,0.6393,-0.6521,0.0504,
6.590405,0.3263,0.2358,2.4641,0.6393,-0.6521,0.0504,
6.590971,-0.0932,0.1035,1.8434,0.6393,-0.6521,0.0504,
6.644451,-0.0932,0.1035,1.8434,0.1429,-1.0958,-0.2910,
6.654750,-0.0932,0.1035,1.8434,0.1429,-1.0958,-0.2910,
6.655182,-0.0932,0.1035,1.8434,0.1429,-1.0958,-0.2910,
6.655415,-0.0932,0.1035,1.8434,0.1429,-1.0958,-0.2910,
6.655650,-0.4681,-0.5581,1.7279,0.1429,-1.0958,-0.2910,
6.708821,-0.4681,-0.5581,1.7279,-1.7213,-0.8514,0.1260,
6.719548,1.8261,0.9035,0.5378,-1.7213,-0.8514,0.1260,
6.720071,1.8261,0.9035,0.5378,-1.7213,-0.8514,0.1260,
6.720271,1.8261,0.9035,0.5378,-1.7213,-0.8514,0.1260,
6.720554,1.8261,0.9035,0.5378,-1.7213,-0.8514,0.1260,
6.779392,1.8261,0.9035,0.5378,-2.6951,-1.0069,0.2734,
6.788306,0.3857,3.4332,-1.1073,-2.6951,-1.0069,0.2734,
6.797514,0.3857,3.4332,-1.1073,-2.6951,-1.0069,0.2734,
6.798824,0.3857,3.4332,-1.1073,-2.6951,-1.0069,0.2734,
6.799484,0.3857,3.4332,-1.1073,-2.6951,-1.0069,0.2734,
6.800134,0.3857,3.4332,-1.1073,-2.6951,-1.0069,0.2734,
6.800767,0.3857,3.4332,-1.1073,-2.6951,-1.0069,0.2734,
6.842825,0.3857,3.4332,-1.1073,-1.5020,-0.6348,-0.1755,
6.852569,-3.9367,-0.2987,-3.0587,-1.5020,-0.6348,-0.1755,
6.891926,-3.9367,-0.2987,-3.0587,-1.5020,-0.6348,-0.1755,
6.893218,-3.9367,-0.2987,-3.0587,-1.5020,-0.6348,-0.1755,
6.893852,-3.9367,-0.2987,-3.0587,-1.5020,-0.6348,-0.1755,
6.894555,-3.9367,-0.2987,-3.0587,-1.5020,-0.6348,-0.1755,
6.894861,-3.9367,-0.2987,-3.0587,-1.5020,-0.6348,-0.1755,
6.911389,-3.9367,-0.2987,-3.0587,-0.8587,0.4514,0.4137,
6.919032,1.5604,0.4570,-2.1431,-0.8587,0.4514,0.4137,
6.979465,1.5604,0.4570,-2.1431,-0.0520,0.3665,0.3347,
6.988301,1.5604,0.4570,-2.1431,-0.0520,0.3665,0.3347,
6.989111,1.5604,0.4570,-2.1431,-0.0520,0.3665,0.3347,
6.989697,1.5604,0.4570,-2.1431,-0.0520,0.3665,0.3347,
6.990434,1.5604,0.4570,-2.1431,-0.0520,0.3665,0.3347,
6.991087,1.5604,0.4570,-2.1431,-0.0520,0.3665,0.3347,
6.991721,0.3844,-1.5249,-1.8708,-0.0520,0.3665,0.3347,
7.044283,0.3844,-1.5249,-1.8708,0.4643,0.6953,0.3263,
7.053113,-0.2772,-2.0369,-0.4752,0.4643,0.6953,0.3263,
7.083054,-0.2772,-2.0369,-0.4752,0.4643,0.6953,0.3263,
7.084881,-0.2772,-2.0369,-0.4752,0.4643,0.6953,0.3263,
7.087243,-0.2772,-2.0369,-0.4752,0.4643,0.6953,0.3263,
7.087958,-0.2772,-2.0369,-0.4752,0.4643,0.6953,0.3263,
7.088608,-0.2772,-2.0369,-0.4752,0.4643,0.6953,0.3263,
7.109344,-0.2772,-2.0369,-0.4752,0.2669,0.3842,0.1820,
7.118808,0.0842,-0.6983,0.1790,0.2669,0.3842,0.1820,
7.175425,0.0842,-0.6983,0.1790,0.1794,0.3602,0.2430,
7.177457,0.0842,-0.6983,0.1790,0.1794,0.3602,0.2430,
7.178769,0.0842,-0.6983,0.1790,0.1794,0.3602,0.2430,
7.179908,0.0842,-0.6983,0.1790,0.1794,0.3602,0.2430,
7.180987,0.0842,-0.6983,0.1790,0.1794,0.3602,0.2430,
7.182322,0.0842,-0.6983,0.1790,0.1794,0.3602,0.2430,
7.184806,-0.6822,-0.1011,1.5955,0.1794,0.3602,0.2430,
7.213519,-0.6822,-0.1011,1.5955,0.1794,0.3602,0.2430,
7.241697,-0.6822,-0.1011,1.5955,0.1878,1.0557,0.6419,
7.250877,0.1676,0.4914,1.6525,0.1878,1.0557,0.6419,
7.291067,0.1676,0.4914,1.6525,0.1878,1.0557,0.6419,
7.294097,0.1676,0.4914,1.6525,0.1878,1.0557,0.6419,
7.296347,0.1676,0.4914,1.6525,0.1878,1.0557,0.6419,
7.297044,0.1676,0.4914,1.6525,0.1878,1.0557,0.6419,
7.297717,0.1676,0.4914,1.6525,0.1878,1.0557,0.6419,
7.309935,0.1676,0.4914,1.6525,0.5244,0.9024,0.2701,
7.318333,1.5799,-0.2834,1.4899,0.5244,0.9024,0.2701,
7.376496,1.5799,-0.2834,1.4899,1.1649,0.1268,-0.4449,
7.386013,0.3876,-2.7562,2.6948,1.1649,0.1268,-0.4449,
7.386820,0.3876,-2.7562,2.6948,1.1649,0.1268,-0.4449,
7.387121,0.3876,-2.7562,2.6948,1.1649,0.1268,-0.4449,
7.387383,0.3876,-2.7562,2.6948,1.1649,0.1268,-0.4449,
7.387651,0.3876,-2.7562,2.6948,1.1649,0.1268,-0.4449,
7.388112,0.3876,-2.7562,2.6948,1.1649,0.1268,-0.4449,
7.445198,0.3876,-2.7562,2.6948,0.1101,0.0203,-0.2021,
7.455052,-2.9289,6.3053,-3.1852,0.1101,0.0203,-0.2021,
7.456223,-2.9289,6.3053,-3.1852,0.1101,0.0203,-0.2021,
7.456867,-2.9289,6.3053,-3.1852,0.1101,0.0203,-0.2021,
7.457502,-2.9289,6.3053,-3.1852,0.1101,0.0203,-0.2021,
7.509078,-2.9289,6.3053,-3.1852,1.3412,0.2892,-0.4453,
7.518944,-0.9333,-2.3509,1.8520,1.3412,0.2892,-0.4453,
7.538787,-0.9333,-2.3509,1.8520,1.3412,0.2892,-0.4453,
7.540039,-0.9333,-2.3509,1.8520,1.3412,0.2892,-0.4453,
7.540679,-0.9333,-2.3509,1.8520,1.3412,0.2892,-0.4453,
7.541310,-0.9333,-2.3509,1.8520,1.3412,0.2892,-0.4453,
7.541917,-0.9333,-2.3509,1.8520,1.3412,0.2892,-0.4453,
7.576008,-0.9333,-2.3509,1.8520,0.4630,-0.4832,-0.0858,
7.586762,0.7801,-1.2244,-1.8684,0.4630,-0.4832,-0.0858,
7.635820,0.7801,-1.2244,-1.8684,0.4630,-0.4832,-0.0858,
7.639142,0.7801,-1.2244,-1.8684,0.4630,-0.4832,-0.0858,
7.640713,0.7801,-1.2244,-1.8684,0.4630,-0.4832,-0.0858,
7.641469,0.7801,-1.2244,-1.8684,0.4630,-0.4832,-0.0858,
7.642087,0.7801,-1.2244,-1.8684,0.4630,-0.4832,-0.0858,
7.642844,0.7801,-1.2244,-1.8684,0.0294,0.4015,0.0182,
7.651975,2.0779,1.8177,-0.4020,0.0294,0.4015,0.0182,
7.709156,2.0779,1.8177,-0.4020,0.5741,0.4238,-0.0457,
7.718629,-1.2681,-1.3612,-1.5276,0.5741,0.4238,-0.0457,
7.729525,-1.2681,-1.3612,-1.5276,0.5741,0.4238,-0.0457,
7.730347,-1.2681,-1.3612,-1.5276,0.5741,0.4238,-0.0457,
7.730721,-1.2681,-1.3612,-1.5276,0.5741,0.4238,-0.0457,
7.731056,-1.2681,-1.3612,-1.5276,0.5741,0.4238,-0.0457,
7.731440,-1.2681,-1.3612,-1.5276,0.5741,0.4238,-0.0457,
7.777460,-1.2681,-1.3612,-1.5276,0.4374,-0.4070,0.0917,
7.786919,-1.3946,0.0936,0.5813,0.4374,-0.4070,0.0917,
7.824190,-1.3946,0.0936,0.5813,0.4374,-0.4070,0.0917,
7.825863,-1.3946,0.0936,0.5813,0.4374,-0.4070,0.0917,
7.826832,-1.3946,0.0936,0.5813,0.4374,-0.4070,0.0917,
7.827729,-1.3946,0.0936,0.5813,0.4374,-0.4070,0.0917,
7.828712,-1.3946,0.0936,0.5813,0.4374,-0.4070,0.0917,
7.842695,-1.3946,0.0936,0.5813,0.6390,-0.5234,0.2523,
7.851979,0.0885,0.0633,0.1914,0.6390,-0.5234,0.2523,
7.909202,0.0885,0.0633,0.1914,0.8157,-0.4671,0.2472,
7.919141,0.6153,-0.0146,0.7320,0.8157,-0.4671,0.2472,
7.920067,0.6153,-0.0146,0.7320,0.8157,-0.4671,0.2472,
7.920730,0.6153,-0.0146,0.7320,0.8157,-0.4671,0.2472,
7.921064,0.6153,-0.0146,0.7320,0.8157,-0.4671,0.2472,
7.921379,0.6153,-0.0146,0.7320,0.8157,-0.4671,0.2472,
7.921822,0.6153,-0.0146,0.7320,0.8157,-0.4671,0.2472,
7.974833,0.6153,-0.0146,0.7320,0.5483,-0.6216,0.2670,
7.984710,0.8701,0.7155,2.0081,0.5483,-0.6216,0.2670,
8.013003,0.8701,0.7155,2.0081,0.5483,-0.6216,0.2670,
8.013458,0.8701,0.7155,2.0081,0.5483,-0.6216,0.2670,
8.013643,0.8701,0.7155,2.0081,0.5483,-0.6216,0.2670,
8.013827,0.8701,0.7155,2.0081,0.5483,-0.6216,0.2670,
8.014011,0.8701,0.7155,2.0081,0.5483,-0.6216,0.2670,
8.042032,0.8701,0.7155,2.0081,0.1801,-0.9708,-0.1568,
8.051859,-0.4516,-0.0668,2.0452,0.1801,-0.9708,-0.1568,
8.093014,-0.4516,-0.0668,2.0452,0.1801,-0.9708,-0.1568,
8.093924,-0.4516,-0.0668,2.0452,0.1801,-0.9708,-0.1568,
8.094296,-0.4516,-0.0668,2.0452,0.1801,-0.9708,-0.1568,
8.094829,-0.4516,-0.0668,2.0452,0.1801,-0.9708,-0.1568,
8.108705,-0.4516,-0.0668,2.0452,-1.5730,-1.0732,-0.1045,
8.118414,-0.6493,0.1378,0.1287,-1.5730,-1.0732,-0.1045,
8.177018,-0.6493,0.1378,0.1287,-3.1850,-2.0249,-0.2698,
8.190561,-1.6729,2.7865,-0.3654,-3.1850,-2.0249,-0.2698,
8.191510,-1.6729,2.7865,-0.3654,-3.1850,-2.0249,-0.2698,
8.191798,-1.6729,2.7865,-0.3654,-3.1850,-2.0249,-0.2698,
8.192053,-1.6729,2.7865,-0.3654,-3.1850,-2.0249,-0.2698,
8.192503,-1.6729,2.7865,-0.3654,-3.1850,-2.0249,-0.2698,
8.192789,-1.6729,2.7865,-0.3654,-3.1850,-2.0249,-0.2698,
8.241260,-1.6729,2.7865,-0.3654,-1.0767,-0.8592,0.1549,
8.250643,-2.2746,0.6460,-5.4668,-1.0767,-0.8592,0.1549,
8.279761,-2.2746,0.6460,-5.4668,-1.0767,-0.8592,0.1549,
8.280289,-2.2746,0.6460,-5.4668,-1.0767,-0.8592,0.1549,
8.280484,-2.2746,0.6460,-5.4668,-1.0767,-0.8592,0.1549,
8.280668,-2.2746,0.6460,-5.4668,-1.0767,-0.8592,0.1549,
8.280856,-2.2746,0.6460,-5.4668,-1.0767,-0.8592,0.1549,
8.307486,-2.2746,0.6460,-5.4668,-1.1420,0.6131,0.5521,
8.317447,1.5989,-0.0095,-1.1196,-1.1420,0.6131,0.5521,
8.375413,1.5989,-0.0095,-1.1196,-0.5239,1.1415,0.5736,
8.378681,1.5989,-0.0095,-1.1196,-0.5239,1.1415,0.5736,
8.380317,1.5989,-0.0095,-1.1196,-0.5239,1.1415,0.5736,
8.381926,1.5989,-0.0095,-1.1196,-0.5239,1.1415,0.5736,
8.382646,1.5989,-0.0095,-1.1196,-0.5239,1.1415,0.5736,
8.382856,1.5989,-0.0095,-1.1196,-0.5239,1.1415,0.5736,
8.383788,1.0695,-1.1918,-2.7784,-0.5239,1.1415,0.5736,
8.411551,1.0695,-1.1918,-2.7784,-0.5239,1.1415,0.5736,
8.441280,1.0695,-1.1918,-2.7784,0.4250,0.6270,0.3461,
8.451178,-0.3902,-2.3224,-0.6691,0.4250,0.6270,0.3461,
8.491338,-0.3902,-2.3224,-0.6691,0.4250,0.6270,0.3461,
8.493860,-0.3902,-2.3224,-0.6691,0.4250,0.6270,0.3461,
8.495224,-0.3902,-2.3224,-0.6691,0.4250,0.6270,0.3461,
8.495914,-0.3902,-2.3224,-0.6691,0.4250,0.6270,0.3461,
8.496576,-0.3902,-2.3224,-0.6691,0.4250,0.6270,0.3461,
8.508766,-0.3902,-2.3224,-0.6691,1.0256,0.1701,-0.0040,
8.518642,-0.0829,-2.8496,1.4704,1.0256,0.1701,-0.0040,
8.575378,-0.0829,-2.8496,1.4704,0.0389,1.6919,-0.0063,
8.586982,0.5919,-0.4137,3.2779,0.0389,1.6919,-0.0063,
8.588377,0.5919,-0.4137,3.2779,0.0389,1.6919,-0.0063,
8.588943,0.5919,-0.4137,3.2779,0.0389,1.6919,-0.0063,
8.589504,0.5919,-0.4137,3.2779,0.0389,1.6919,-0.0063,
8.590064,0.5919,-0.4137,3.2779,0.0389,1.6919,-0.0063,
8.590671,0.5919,-0.4137,3.2779,0.0389,1.6919,-0.0063,
8.623285,0.5919,-0.4137,3.2779,0.0389,1.6919,-0.0063,
8.641125,0.5919,-0.4137,3.2779,-0.0828,0.6759,-0.0135,
8.650810,3.1020,2.2167,4.3764,-0.0828,0.6759,-0.0135,
8.699724,3.1020,2.2167,4.3764,-0.0828,0.6759,-0.0135,
8.702521,3.1020,2.2167,4.3764,-0.0828,0.6759,-0.0135,
8.702839,3.1020,2.2167,4.3764,-0.0828,0.6759,-0.0135,
8.703075,3.1020,2.2167,4.3764,-0.0828,0.6759,-0.0135,
8.703285,3.1020,2.2167,4.3764,-0.0828,0.6759,-0.0135,
8.707363,3.1020,2.2167,4.3764,-0.0787,0.1245,0.0909,
8.717477,-4.6575,4.9260,-2.4691,-0.0787,0.1245,0.0909,
8.775732,-4.6575,4.9260,-2.4691,1.4539,-1.0323,0.0055,
8.783857,-1.7501,-4.0676,-1.6295,1.4539,-1.0323,0.0055,
8.793832,-1.7501,-4.0676,-1.6295,1.4539,-1.0323,0.0055,
8.794595,-1.7501,-4.0676,-1.6295,1.4539,-1.0323,0.0055,
8.794912,-1.7501,-4.0676,-1.6295,1.4539,-1.0323,0.0055,
8.795233,-1.7501,-4.0676,-1.6295,1.4539,-1.0323,0.0055,
8.795562,-1.7501,-4.0676,-1.6295,1.4539,-1.0323,0.0055,
8.844896,-1.7501,-4.0676,-1.6295,0.9363,-0.4276,0.0146,
8.854438,2.9739,1.8969,-2.3055,0.9363,-0.4276,0.0146,
8.891236,2.9739,1.8969,-2.3055,0.9363,-0.4276,0.0146,
8.892330,2.9739,1.8969,-2.3055,0.9363,-0.4276,0.0146,
8.892846,2.9739,1.8969,-2.3055,0.9363,-0.4276,0.0146,
8.893343,2.9739,1.8969,-2.3055,0.9363,-0.4276,0.0146,
8.893842,2.9739,1.8969,-2.3055,0.9363,-0.4276,0.0146,
8.910021,2.9739,1.8969,-2.3055,0.9097,-0.4205,-0.2950,
8.917976,0.0692,-1.0459,0.4655,0.9097,-0.4205,-0.2950,
8.975783,0.0692,-1.0459,0.4655,0.5285,0.2779,-0.4622,
8.986850,-0.3354,-0.6836,0.2336,0.5285,0.2779,-0.4622,
8.988226,-0.3354,-0.6836,0.2336,0.5285,0.2779,-0.4622,
8.988875,-0.3354,-0.6836,0.2336,0.5285,0.2779,-0.4622,
8.989506,-0.3354,-0.6836,0.2336,0.5285,0.2779,-0.4622,
8.990126,-0.3354,-0.6836,0.2336,0.5285,0.2779,-0.4622,
8.990998,-0.3354,-0.6836,0.2336,0.5285,0.2779,-0.4622,
9.044633,-0.3354,-0.6836,0.2336,0.4455,-0.1214,0.1640,
9.053169,0.5218,1.0205,-0.0526,0.4455,-0.1214,0.1640,
9.083153,0.5218,1.0205,-0.0526,0.4455,-0.1214,0.1640,
9.085032,0.5218,1.0205,-0.0526,0.4455,-0.1214,0.1640,
9.086032,0.5218,1.0205,-0.0526,0.4455,-0.1214,0.1640,
9.087222,0.5218,1.0205,-0.0526,0.4455,-0.1214,0.1640,
9.087809,0.5218,1.0205,-0.0526,0.4455,-0.1214,0.1640,
9.109481,0.5218,1.0205,-0.0526,0.6802,-0.4231,0.2267,
9.119831,0.3623,0.0595,0.3960,0.6802,-0.4231,0.2267,
9.176612,0.3623,0.0595,0.3960,0.6714,-0.5350,0.0985,
9.179643,0.3623,0.0595,0.3960,0.6714,-0.5350,0.0985,
9.181757,0.3623,0.0595,0.3960,0.6714,-0.5350,0.0985,
9.183167,0.3623,0.0595,0.3960,0.6714,-0.5350,0.0985,
9.184112,0.3623,0.0595,0.3960,0.6714,-0.5350,0.0985,
9.185072,0.3623,0.0595,0.3960,0.6714,-0.5350,0.0985,
9.185999,-0.3443,-0.1598,0.3313,0.6714,-0.5350,0.0985,
9.244672,-0.3443,-0.1598,0.3313,0.6773,-0.2683,0.0118,
9.252389,-0.0681,-0.1526,0.7945,0.6773,-0.2683,0.0118,
9.271679,-0.0681,-0.1526,0.7945,0.6773,-0.2683,0.0118,
9.272337,-0.0681,-0.1526,0.7945,0.6773,-0.2683,0.0118,
9.272553,-0.0681,-0.1526,0.7945,0.6773,-0.2683,0.0118,
9.272758,-0.0681,-0.1526,0.7945,0.6773,-0.2683,0.0118,
9.272939,-0.0681,-0.1526,0.7945,0.6773,-0.2683,0.0118,
9.309747,-0.0681,-0.1526,0.7945,0.7656,-0.3434,0.0055,
9.319455,0.4998,0.1629,0.6481,0.7656,-0.3434,0.0055,
9.369776,0.4998,0.1629,0.6481,0.7656,-0.3434,0.0055,
9.371158,0.4998,0.1629,0.6481,0.7656,-0.3434,0.0055,
9.371806,0.4998,0.1629,0.6481,0.7656,-0.3434,0.0055,
9.372449,0.4998,0.1629,0.6481,0.7656,-0.3434,0.0055,
9.373075,0.4998,0.1629,0.6481,0.7656,-0.3434,0.0055,
9.373721,0.4998,0.1629,0.6481,0.0318,-1.1454,-0.1017,
9.384952,0.8827,0.4283,2.6634,0.0318,-1.1454,-0.1017,
9.426082,0.8827,0.4283,2.6634,0.0318,-1.1454,-0.1017,
9.427589,0.8827,0.4283,2.6634,0.0318,-1.1454,-0.1017,
9.444737,0.8827,0.4283,2.6634,-2.1888,-0.7979,-0.0045,
9.452105,1.0480,1.0200,0.6328,-2.1888,-0.7979,-0.0045,
9.501832,1.0480,1.0200,0.6328,-2.1888,-0.7979,-0.0045,
9.504865,1.0480,1.0200,0.6328,-2.1888,-0.7979,-0.0045,
9.506842,1.0480,1.0200,0.6328,-2.1888,-0.7979,-0.0045,
9.508795,1.0480,1.0200,0.6328,-2.1888,-0.7979,-0.0045,
9.512613,1.0480,1.0200,0.6328,-2.1888,-0.7979,-0.0045,
9.513420,1.0480,1.0200,0.6328,-2.8156,-0.8720,-0.1800,
9.518846,-1.2150,3.6831,-3.1077,-2.8156,-0.8720,-0.1800,
9.576377,-1.2150,3.6831,-3.1077,-1.5340,-0.5689,-0.3127,
9.586651,-2.8301,-0.2353,-3.1489,-1.5340,-0.5689,-0.3127,
9.596864,-2.8301,-0.2353,-3.1489,-1.5340,-0.5689,-0.3127,
9.597694,-2.8301,-0.2353,-3.1489,-1.5340,-0.5689,-0.3127,
9.598401,-2.8301,-0.2353,-3.1489,-1.5340,-0.5689,-0.3127,
9.599076,-2.8301,-0.2353,-3.1489,-1.5340,-0.5689,-0.3127,
9.599677,-2.8301,-0.2353,-3.1489,-1.5340,-0.5689,-0.3127,
9.644204,-2.8301,-0.2353,-3.1489,-0.7801,0.3073,-0.0221,
9.653305,0.3306,-1.2215,-2.4226,-0.7801,0.3073,-0.0221,
9.690976,0.3306,-1.2215,-2.4226,-0.7801,0.3073,-0.0221,
9.693699,0.3306,-1.2215,-2.4226,-0.7801,0.3073,-0.0221,
9.695849,0.3306,-1.2215,-2.4226,-0.7801,0.3073,-0.0221,
9.697913,0.3306,-1.2215,-2.4226,-0.7801,0.3073,-0.0221,
9.699954,0.3306,-1.2215,-2.4226,-0.7801,0.3073,-0.0221,
9.708609,0.3306,-1.2215,-2.4226,-0.0150,0.5659,0.3375,
9.718744,1.0019,-1.3363,-1.7512,-0.0150,0.5659,0.3375,
9.776142,1.0019,-1.3363,-1.7512,0.3407,0.6877,0.4487,
9.786313,-0.3645,-1.7874,-0.3428,0.3407,0.6877,0.4487,
9.787785,-0.3645,-1.7874,-0.3428,0.3407,0.6877,0.4487,
9.788395,-0.3645,-1.7874,-0.3428,0.3407,0.6877,0.4487,
9.789040,-0.3645,-1.7874,-0.3428,0.3407,0.6877,0.4487,
9.789664,-0.3645,-1.7874,-0.3428,0.3407,0.6877,0.4487,
9.790445,-0.3645,-1.7874,-0.3428,0.3407,0.6877,0.4487,
9.845255,-0.3645,-1.7874,-0.3428,-0.1175,0.5671,0.3019,
9.852196,-0.6934,0.3889,0.8445,-0.1175,0.5671,0.3019,
9.880407,-0.6934,0.3889,0.8445,-0.1175,0.5671,0.3019,
9.882834,-0.6934,0.3889,0.8445,-0.1175,0.5671,0.3019,
9.884725,-0.6934,0.3889,0.8445,-0.1175,0.5671,0.3019,
9.886753,-0.6934,0.3889,0.8445,-0.1175,0.5671,0.3019,
9.887693,-0.6934,0.3889,0.8445,-0.1175,0.5671,0.3019,
9.908862,-0.6934,0.3889,0.8445,0.0924,0.6378,0.3202,
9.917385,0.0660,-1.6687,1.6737,0.0924,0.6378,0.3202,
9.939206,0.0660,-1.6687,1.6737,0.0924,0.6378,0.3202,
9.940402,0.0660,-1.6687,1.6737,0.0924,0.6378,0.3202,
9.976667,0.0660,-1.6687,1.6737,0.2244,1.6338,0.5468,
9.984685,1.4188,0.6753,2.4399,0.2244,1.6338,0.5468,
10.013892,1.4188,0.6753,2.4399,0.2244,1.6338,0.5468,
10.016846,1.4188,0.6753,2.4399,0.2244,1.6338,0.5468,
10.018404,1.4188,0.6753,2.4399,0.2244,1.6338,0.5468,
10.019924,1.4188,0.6753,2.4399,0.2244,1.6338,0.5468,
10.021270,1.4188,0.6753,2.4399,0.2244,1.6338,0.5468,
10.040766,1.4188,0.6753,2.4399,1.1474,0.7024,-0.3909,
10.049561,3.3643,-2.4964,2.5517,1.1474,0.7024,-0.3909,
10.111513,3.3643,-2.4964,2.5517,-0.0883,0.1085,0.2231,
10.113442,3.3643,-2.4964,2.5517,-0.0883,0.1085,0.2231,
10.114192,3.3643,-2.4964,2.5517,-0.0883,0.1085,0.2231,
10.115040,3.3643,-2.4964,2.5517,-0.0883,0.1085,0.2231,
10.115670,3.3643,-2.4964,2.5517,-0.0883,0.1085,0.2231,
10.116295,3.3643,-2.4964,2.5517,-0.0883,0.1085,0.2231,
10.118385,-3.2243,5.2342,-2.3899,-0.0883,0.1085,0.2231,
10.177717,-3.2243,5.2342,-2.3899,1.1037,-0.1331,-0.4956,
10.186787,-3.3278,-0.8187,-0.0374,1.1037,-0.1331,-0.4956,
10.206806,-3.3278,-0.8187,-0.0374,1.1037,-0.1331,-0.4956,
10.207877,-3.3278,-0.8187,-0.0374,1.1037,-0.1331,-0.4956,
10.208509,-3.3278,-0.8187,-0.0374,1.1037,-0.1331,-0.4956,
10.209135,-3.3278,-0.8187,-0.0374,1.1037,-0.1331,-0.4956,
10.209732,-3.3278,-0.8187,-0.0374,1.1037,-0.1331,-0.4956,
10.243293,-3.3278,-0.8187,-0.0374,0.3356,0.7562,-0.4477,
10.250529,0.1280,-2.4336,-3.4420,0.3356,0.7562,-0.4477,
10.303110,0.1280,-2.4336,-3.4420,0.3356,0.7562,-0.4477,
10.304564,0.1280,-2.4336,-3.4420,0.3356,0.7562,-0.4477,
10.305282,0.1280,-2.4336,-3.4420,0.3356,0.7562,-0.4477,
10.305951,0.1280,-2.4336,-3.4420,0.3356,0.7562,-0.4477,
10.306907,0.1280,-2.4336,-3.4420,0.3356,0.7562,-0.4477,
10.308156,0.1280,-2.4336,-3.4420,0.2495,-0.7902,0.4508,
10.318475,1.3547,2.3412,2.0401,0.2495,-0.7902,0.4508,
10.377119,1.3547,2.3412,2.0401,0.6135,0.4617,0.1794,
10.384806,-0.0276,-0.6549,-1.7183,0.6135,0.4617,0.1794,
10.395549,-0.0276,-0.6549,-1.7183,0.6135,0.4617,0.1794,
10.396571,-0.0276,-0.6549,-1.7183,0.6135,0.4617,0.1794,
10.397240,-0.0276,-0.6549,-1.7183,0.6135,0.4617,0.1794,
10.397867,-0.0276,-0.6549,-1.7183,0.6135,0.4617,0.1794,
10.398690,-0.0276,-0.6549,-1.7183,0.6135,0.4617,0.1794,
10.444883,-0.0276,-0.6549,-1.7183,0.5145,-0.1204,0.0076,
10.452603,-1.3264,-0.2495,0.6763,0.5145,-0.1204,0.0076,
10.489798,-1.3264,-0.2495,0.6763,0.5145,-0.1204,0.0076,
10.491447,-1.3264,-0.2495,0.6763,0.5145,-0.1204,0.0076,
10.492428,-1.3264,-0.2495,0.6763,0.5145,-0.1204,0.0076,
10.493367,-1.3264,-0.2495,0.6763,0.5145,-0.1204,0.0076,
10.494767,-1.3264,-0.2495,0.6763,0.5145,-0.1204,0.0076,
10.507148,-1.3264,-0.2495,0.6763,0.4362,-0.8616,-0.0600,
10.517086,-0.3594,-0.0096,1.6133,0.4362,-0.8616,-0.0600,
10.577561,-0.3594,-0.0096,1.6133,0.8869,-0.7821,-0.1301,
10.588084,0.0684,-0.7590,-0.1145,0.8869,-0.7821,-0.1301,
10.589394,0.0684,-0.7590,-0.1145,0.8869,-0.7821,-0.1301,
10.590125,0.0684,-0.7590,-0.1145,0.8869,-0.7821,-0.1301,
10.591140,0.0684,-0.7590,-0.1145,0.8869,-0.7821,-0.1301,
10.591766,0.0684,-0.7590,-0.1145,0.8869,-0.7821,-0.1301,
10.592421,0.0684,-0.7590,-0.1145,0.8869,-0.7821,-0.1301,
10.641185,0.0684,-0.7590,-0.1145,0.7911,-0.9780,-0.0124,
10.651641,1.0916,0.4401,0.9919,0.7911,-0.9780,-0.0124,
10.679561,1.0916,0.4401,0.9919,0.7911,-0.9780,-0.0124,
10.681116,1.0916,0.4401,0.9919,0.7911,-0.9780,-0.0124,
10.682069,1.0916,0.4401,0.9919,0.7911,-0.9780,-0.0124,
10.683282,1.0916,0.4401,0.9919,0.7911,-0.9780,-0.0124,
10.684230,1.0916,0.4401,0.9919,0.7911,-0.9780,-0.0124,
10.710043,1.0916,0.4401,0.9919,0.3835,-1.1739,-0.0371,
10.718834,1.7287,0.8773,2.1294,0.3835,-1.1739,-0.0371,
10.738403,1.7287,0.8773,2.1294,0.3835,-1.1739,-0.0371,
10.739619,1.7287,0.8773,2.1294,0.3835,-1.1739,-0.0371,
10.773903,1.7287,0.8773,2.1294,-1.4583,-0.7413,0.1484,
10.785335,0.5209,2.2387,-0.7708,-1.4583,-0.7413,0.1484,
10.812747,0.5209,2.2387,-0.7708,-1.4583,-0.7413,0.1484,
10.814491,0.5209,2.2387,-0.7708,-1.4583,-0.7413,0.1484,
10.815310,0.5209,2.2387,-0.7708,-1.4583,-0.7413,0.1484,
10.816096,0.5209,2.2387,-0.7708,-1.4583,-0.7413,0.1484,
10.842806,0.5209,2.2387,-0.7708,-2.3981,-0.3777,-0.2392,
10.850106,-1.2859,2.3054,-0.8473,-2.3981,-0.3777,-0.2392,
10.888191,-1.2859,2.3054,-0.8473,-2.3981,-0.3777,-0.2392,
10.888665,-1.2859,2.3054,-0.8473,-2.3981,-0.3777,-0.2392,
10.888840,-1.2859,2.3054,-0.8473,-2.3981,-0.3777,-0.2392,
10.889035,-1.2859,2.3054,-0.8473,-2.3981,-0.3777,-0.2392,
10.889200,-1.2859,2.3054,-0.8473,-2.3981,-0.3777,-0.2392,
10.906050,-1.2859,2.3054,-0.8473,-0.8086,-0.3325,0.0228,
10.916589,-1.4899,-2.0114,-2.3541,-0.8086,-0.3325,0.0228,
10.975492,-1.4899,-2.0114,-2.3541,-0.4992,0.1956,0.3552,
10.976408,-1.4899,-2.0114,-2.3541,-0.4992,0.1956,0.3552,
10.976652,-1.4899,-2.0114,-2.3541,-0.4992,0.1956,0.3552,
10.977157,-1.4899,-2.0114,-2.3541,-0.4992,0.1956,0.3552,
10.977388,-1.4899,-2.0114,-2.3541,-0.4992,0.1956,0.3552,
10.982989,0.7950,-0.6983,-1.6132,-0.4992,0.1956,0.3552,
11.043446,0.7950,-0.6983,-1.6132,0.0977,0.1100,0.6148,
11.051289,0.1280,-0.6918,-0.8475,0.0977,0.1100,0.6148,
11.062112,0.1280,-0.6918,-0.8475,0.0977,0.1100,0.6148,
11.063334,0.1280,-0.6918,-0.8475,0.0977,0.1100,0.6148,
11.063989,0.1280,-0.6918,-0.8475,0.0977,0.1100,0.6148,
11.064628,0.1280,-0.6918,-0.8475,0.0977,0.1100,0.6148,
11.065289,0.1280,-0.6918,-0.8475,0.0977,0.1100,0.6148,
11.109260,0.1280,-0.6918,-0.8475,0.0907,0.4527,0.4669,
11.119156,-0.5324,-1.3903,-0.1177,0.0907,0.4527,0.4669,
11.158622,-0.5324,-1.3903,-0.1177,0.0907,0.4527,0.4669,
11.161379,-0.5324,-1.3903,-0.1177,0.0907,0.4527,0.4669,
11.163547,-0.5324,-1.3903,-0.1177,0.0907,0.4527,0.4669,
11.165276,-0.5324,-1.3903,-0.1177,0.0907,0.4527,0.4669,
11.167221,-0.5324,-1.3903,-0.1177,0.0907,0.4527,0.4669,
11.174943,-0.5324,-1.3903,-0.1177,-0.6424,0.7032,0.1694,
11.184372,0.1469,-0.9687,-0.2142,-0.6424,0.7032,0.1694,
11.244035,0.1469,-0.9687,-0.2142,-0.3044,0.9668,0.2236,
11.254955,0.2013,-0.0471,2.6300,-0.3044,0.9668,0.2236,
11.256187,0.2013,-0.0471,2.6300,-0.3044,0.9668,0.2236,
11.256892,0.2013,-0.0471,2.6300,-0.3044,0.9668,0.2236,
11.257564,0.2013,-0.0471,2.6300,-0.3044,0.9668,0.2236,
11.258334,0.2013,-0.0471,2.6300,-0.3044,0.9668,0.2236,
11.259039,0.2013,-0.0471,2.6300,-0.3044,0.9668,0.2236,
11.310559,0.2013,-0.0471,2.6300,0.1505,1.4636,0.0043,
11.317547,1.1868,-0.3116,2.2642,0.1505,1.4636,0.0043,
11.346095,1.1868,-0.3116,2.2642,0.1505,1.4636,0.0043,
11.347238,1.1868,-0.3116,2.2642,0.1505,1.4636,0.0043,
11.347827,1.1868,-0.3116,2.2642,0.1505,1.4636,0.0043,
11.348426,1.1868,-0.3116,2.2642,0.1505,1.4636,0.0043,
11.374748,1.1868,-0.3116,2.2642,0.7614,0.8861,-0.4409,
11.384773,0.9925,-1.8318,2.3740,0.7614,0.8861,-0.4409,
11.424512,0.9925,-1.8318,2.3740,0.7614,0.8861,-0.4409,
11.427543,0.9925,-1.8318,2.3740,0.7614,0.8861,-0.4409,
11.429686,0.9925,-1.8318,2.3740,0.7614,0.8861,-0.4409,
11.431274,0.9925,-1.8318,2.3740,0.7614,0.8861,-0.4409,
11.431908,0.9925,-1.8318,2.3740,0.7614,0.8861,-0.4409,
11.440263,0.9925,-1.8318,2.3740,0.1446,0.9931,-0.0790,
11.451033,-4.4784,6.1362,-3.0575,0.1446,0.9931,-0.0790,
11.510102,-4.4784,6.1362,-3.0575,1.1678,0.3349,-0.4707,
11.518989,0.5974,-3.6753,0.1266,1.1678,0.3349,-0.4707,
11.520400,0.5974,-3.6753,0.1266,1.1678,0.3349,-0.4707,
11.521075,0.5974,-3.6753,0.1266,1.1678,0.3349,-0.4707,
11.521706,0.5974,-3.6753,0.1266,1.1678,0.3349,-0.4707,
11.522402,0.5974,-3.6753,0.1266,1.1678,0.3349,-0.4707,
11.523047,0.5974,-3.6753,0.1266,1.1678,0.3349,-0.4707,
11.573346,0.5974,-3.6753,0.1266,0.4724,-0.3910,0.4911,
11.582985,1.7010,1.3073,-3.8688,0.4724,-0.3910,0.4911,
11.611468,1.7010,1.3073,-3.8688,0.4724,-0.3910,0.4911,
11.612892,1.7010,1.3073,-3.8688,0.4724,-0.3910,0.4911,
11.613726,1.7010,1.3073,-3.8688,0.4724,-0.3910,0.4911,
11.614847,1.7010,1.3073,-3.8688,0.4724,-0.3910,0.4911,
11.615031,1.7010,1.3073,-3.8688,0.4724,-0.3910,0.4911,
11.639363,1.7010,1.3073,-3.8688,0.2703,-0.3495,0.5660,
11.648501,1.0494,0.3056,0.9805,0.2703,-0.3495,0.5660,
11.707122,1.0494,0.3056,0.9805,0.7605,0.1620,0.1513,
11.710728,1.0494,0.3056,0.9805,0.7605,0.1620,0.1513,
11.712489,1.0494,0.3056,0.9805,0.7605,0.1620,0.1513,
11.713971,1.0494,0.3056,0.9805,0.7605,0.1620,0.1513,
11.715670,1.0494,0.3056,0.9805,0.7605,0.1620,0.1513,
11.717288,1.0494,0.3056,0.9805,0.7605,0.1620,0.1513,
11.718717,-1.9082,-0.5948,-1.0446,0.7605,0.1620,0.1513,
11.771901,-1.9082,-0.5948,-1.0446,0.2691,-0.5741,0.0356,
11.781911,-0.7865,-0.2874,0.4295,0.2691,-0.5741,0.0356,
11.801255,-0.7865,-0.2874,0.4295,0.2691,-0.5741,0.0356,
11.801743,-0.7865,-0.2874,0.4295,0.2691,-0.5741,0.0356,
11.801944,-0.7865,-0.2874,0.4295,0.2691,-0.5741,0.0356,
11.802139,-0.7865,-0.2874,0.4295,0.2691,-0.5741,0.0356,
11.802376,-0.7865,-0.2874,0.4295,0.2691,-0.5741,0.0356,
11.844261,-0.7865,-0.2874,0.4295,0.6999,-0.8236,0.1020,
11.853106,0.4265,0.2156,0.7278,0.6999,-0.8236,0.1020,
11.895850,0.4265,0.2156,0.7278,0.6999,-0.8236,0.1020,
11.896994,0.4265,0.2156,0.7278,0.6999,-0.8236,0.1020,
11.897598,0.4265,0.2156,0.7278,0.6999,-0.8236,0.1020,
11.898299,0.4265,0.2156,0.7278,0.6999,-0.8236,0.1020,
11.898908,0.4265,0.2156,0.7278,0.6999,-0.8236,0.1020,
11.905307,0.4265,0.2156,0.7278,0.7430,-1.2494,0.0202,
11.915575,0.0392,-0.2864,1.7986,0.7430,-1.2494,0.0202,
11.977958,0.0392,-0.2864,1.7986,-0.4316,-1.3027,-0.2844,
11.984280,0.2958,1.0262,2.3626,-0.4316,-1.3027,-0.2844,
11.994032,0.2958,1.0262,2.3626,-0.4316,-1.3027,-0.2844,
11.995196,0.2958,1.0262,2.3626,-0.4316,-1.3027,-0.2844,
11.995838,0.2958,1.0262,2.3626,-0.4316,-1.3027,-0.2844,
11.996579,0.2958,1.0262,2.3626,-0.4316,-1.3027,-0.2844,
11.997293,0.2958,1.0262,2.3626,-0.4316,-1.3027,-0.2844,
12.043312,0.2958,1.0262,2.3626,-3.7092,-0.5149,-0.4284,
12.050921,0.3985,1.5808,-1.1150,-3.7092,-0.5149,-0.4284,
12.089453,0.3985,1.5808,-1.1150,-3.7092,-0.5149,-0.4284,
12.092144,0.3985,1.5808,-1.1150,-3.7092,-0.5149,-0.4284,
12.094791,0.3985,1.5808,-1.1150,-3.7092,-0.5149,-0.4284,
12.097276,0.3985,1.5808,-1.1150,-3.7092,-0.5149,-0.4284,
12.099534,0.3985,1.5808,-1.1150,-3.7092,-0.5149,-0.4284,
12.107396,0.3985,1.5808,-1.1150,-2.1075,-1.3443,-0.1111,
12.116064,-0.1324,2.1392,-2.5644,-2.1075,-1.3443,-0.1111,
12.175537,-0.1324,2.1392,-2.5644,-0.6844,-0.1313,0.8407,
12.184026,-0.1324,2.1392,-2.5644,-0.6844,-0.1313,0.8407,
12.184344,-0.1324,2.1392,-2.5644,-0.6844,-0.1313,0.8407,
12.184517,-0.1324,2.1392,-2.5644,-0.6844,-0.1313,0.8407,
12.184762,-0.1324,2.1392,-2.5644,-0.6844,-0.1313,0.8407,
12.184932,-0.1324,2.1392,-2.5644,-0.6844,-0.1313,0.8407,
12.185117,1.0502,0.4240,-2.4723,-0.6844,-0.1313,0.8407,
12.243804,1.0502,0.4240,-2.4723,-0.1202,0.5373,0.6694,
12.251123,0.5794,-1.9779,-2.2646,-0.1202,0.5373,0.6694,
12.280470,0.5794,-1.9779,-2.2646,-0.1202,0.5373,0.6694,
12.281716,0.5794,-1.9779,-2.2646,-0.1202,0.5373,0.6694,
12.282448,0.5794,-1.9779,-2.2646,-0.1202,0.5373,0.6694,
12.283109,0.5794,-1.9779,-2.2646,-0.1202,0.5373,0.6694,
12.283746,0.5794,-1.9779,-2.2646,-0.1202,0.5373,0.6694,
12.307780,0.5794,-1.9779,-2.2646,0.4530,0.6590,0.5825,
12.316050,0.0296,-1.7871,-0.4224,0.4530,0.6590,0.5825,
12.374821,0.0296,-1.7871,-0.4224,0.4660,0.7235,0.2840,
12.377842,0.0296,-1.7871,-0.4224,0.4660,0.7235,0.2840,
12.379582,0.0296,-1.7871,-0.4224,0.4660,0.7235,0.2840,
12.381511,0.0296,-1.7871,-0.4224,0.4660,0.7235,0.2840,
12.382807,0.0296,-1.7871,-0.4224,0.4660,0.7235,0.2840,
12.383725,0.0296,-1.7871,-0.4224,0.4660,0.7235,0.2840,
12.384637,0.0635,-1.2612,-0.3039,0.4660,0.7235,0.2840,
12.442117,0.0635,-1.2612,-0.3039,0.3903,0.9931,0.3079,
12.451040,-0.4928,-0.4691,1.2059,0.3903,0.9931,0.3079,
12.470940,-0.4928,-0.4691,1.2059,0.3903,0.9931,0.3079,
12.473011,-0.4928,-0.4691,1.2059,0.3903,0.9931,0.3079,
12.475124,-0.4928,-0.4691,1.2059,0.3903,0.9931,0.3079,
12.476131,-0.4928,-0.4691,1.2059,0.3903,0.9931,0.3079,
12.477103,-0.4928,-0.4691,1.2059,0.3903,0.9931,0.3079,
12.506646,-0.4928,-0.4691,1.2059,0.0921,2.2116,0.4239,
12.507613,-0.4928,-0.4691,1.2059,0.0921,2.2116,0.4239,
12.507895,-0.4928,-0.4691,1.2059,0.0921,2.2116,0.4239,
12.515222,1.4352,0.9997,3.5617,0.0921,2.2116,0.4239,
12.576674,1.4352,0.9997,3.5617,0.5912,1.0514,-0.2659,
12.583613,2.1267,-1.3714,1.9031,0.5912,1.0514,-0.2659,
12.603608,2.1267,-1.3714,1.9031,0.5912,1.0514,-0.2659,
12.604662,2.1267,-1.3714,1.9031,0.5912,1.0514,-0.2659,
12.605289,2.1267,-1.3714,1.9031,0.5912,1.0514,-0.2659,
12.605897,2.1267,-1.3714,1.9031,0.5912,1.0514,-0.2659,
12.606671,2.1267,-1.3714,1.9031,0.5912,1.0514,-0.2659,
12.640341,2.1267,-1.3714,1.9031,-0.0508,0.9345,-0.2233,
12.650493,-5.0952,4.9396,-0.9602,-0.0508,0.9345,-0.2233,
12.700681,-5.0952,4.9396,-0.9602,-0.0508,0.9345,-0.2233,
12.704162,-5.0952,4.9396,-0.9602,-0.0508,0.9345,-0.2233,
12.705995,-5.0952,4.9396,-0.9602,-0.0508,0.9345,-0.2233,
12.708441,-5.0952,4.9396,-0.9602,-0.0508,0.9345,-0.2233,
12.710065,-5.0952,4.9396,-0.9602,-0.0508,0.9345,-0.2233,
12.713184,-5.0952,4.9396,-0.9602,1.4083,0.2337,-0.5581,
12.716698,-1.9256,-2.0582,-0.5839,1.4083,0.2337,-0.5581,
12.777167,-1.9256,-2.0582,-0.5839,0.4660,0.0960,-0.0346,
12.783515,2.0675,-1.7297,-2.8273,0.4660,0.0960,-0.0346,
12.793906,2.0675,-1.7297,-2.8273,0.4660,0.0960,-0.0346,
12.795095,2.0675,-1.7297,-2.8273,0.4660,0.0960,-0.0346,
12.796247,2.0675,-1.7297,-2.8273,0.4660,0.0960,-0.0346,
12.796891,2.0675,-1.7297,-2.8273,0.4660,0.0960,-0.0346,
12.797500,2.0675,-1.7297,-2.8273,0.4660,0.0960,-0.0346,
12.842054,2.0675,-1.7297,-2.8273,0.0321,-0.1147,0.5374,
12.850044,2.6191,3.0243,0.4345,0.0321,-0.1147,0.5374,
12.890001,2.6191,3.0243,0.4345,0.0321,-0.1147,0.5374,
12.891387,2.6191,3.0243,0.4345,0.0321,-0.1147,0.5374,
12.892090,2.6191,3.0243,0.4345,0.0321,-0.1147,0.5374,
12.892805,2.6191,3.0243,0.4345,0.0321,-0.1147,0.5374,
12.893479,2.6191,3.0243,0.4345,0.0321,-0.1147,0.5374,
12.907122,2.6191,3.0243,0.4345,0.5780,0.4985,0.1998,
12.916498,-2.0604,-1.3048,-1.8973,0.5780,0.4985,0.1998,
12.945329,-2.0604,-1.3048,-1.8973,0.5780,0.4985,0.1998,
12.946011,-2.0604,-1.3048,-1.8973,0.5780,0.4985,0.1998,
12.946389,-2.0604,-1.3048,-1.8973,0.5780,0.4985,0.1998,
12.972052,-2.0604,-1.3048,-1.8973,0.4596,0.0474,-0.0518,
12.981251,-1.6889,-0.9392,0.0513,0.4596,0.0474,-0.0518,
13.038798,-1.6889,-0.9392,0.0513,0.6552,-0.8171,0.3246,
13.039392,-1.6889,-0.9392,0.0513,0.6552,-0.8171,0.3246,
13.039586,-1.6889,-0.9392,0.0513,0.6552,-0.8171,0.3246,
13.039774,-1.6889,-0.9392,0.0513,0.6552,-0.8171,0.3246,
13.039952,-1.6889,-0.9392,0.0513,0.6552,-0.8171,0.3246,
13.040126,-1.6889,-0.9392,0.0513,0.6552,-0.8171,0.3246,
13.047682,0.3021,0.7567,0.8351,0.6552,-0.8171,0.3246,
13.105701,0.3021,0.7567,0.8351,0.8505,-0.7508,0.2878,
13.114472,0.1575,-0.1984,1.1207,0.8505,-0.7508,0.2878,
13.134440,0.1575,-0.1984,1.1207,0.8505,-0.7508,0.2878,
13.134836,0.1575,-0.1984,1.1207,0.8505,-0.7508,0.2878,
13.135021,0.1575,-0.1984,1.1207,0.8505,-0.7508,0.2878,
13.135207,0.1575,-0.1984,1.1207,0.8505,-0.7508,0.2878,
13.135388,0.1575,-0.1984,1.1207,0.8505,-0.7508,0.2878,
13.176716,0.1575,-0.1984,1.1207,0.9124,-0.8963,0.1403,
13.183128,-0.3439,-0.1204,1.3444,0.9124,-0.8963,0.1403,
13.233305,-0.3439,-0.1204,1.3444,0.9124,-0.8963,0.1403,
13.236367,-0.3439,-0.1204,1.3444,0.9124,-0.8963,0.1403,
13.239174,-0.3439,-0.1204,1.3444,0.9124,-0.8963,0.1403,
13.240751,-0.3439,-0.1204,1.3444,0.9124,-0.8963,0.1403,
13.242121,-0.3439,-0.1204,1.3444,0.9124,-0.8963,0.1403,
13.243276,-0.3439,-0.1204,1.3444,0.5702,-1.2249,-0.0900,
13.250132,-0.1845,-0.2079,1.7087,0.5702,-1.2249,-0.0900,
13.308809,-0.1845,-0.2079,1.7087,-1.2970,-1.3178,-0.1124,
13.310668,-0.1845,-0.2079,1.7087,-1.2970,-1.3178,-0.1124,
13.311345,-0.1845,-0.2079,1.7087,-1.2970,-1.3178,-0.1124,
13.312001,-0.1845,-0.2079,1.7087,-1.2970,-1.3178,-0.1124,
13.312609,-0.1845,-0.2079,1.7087,-1.2970,-1.3178,-0.1124,
13.316385,1.3858,0.6606,1.3013,-1.2970,-1.3178,-0.1124,
13.374720,1.3858,0.6606,1.3013,-2.1776,-1.3272,0.2508,
13.384608,1.4615,4.6014,-0.7888,-2.1776,-1.3272,0.2508,
13.403158,1.4615,4.6014,-0.7888,-2.1776,-1.3272,0.2508,
13.404985,1.4615,4.6014,-0.7888,-2.1776,-1.3272,0.2508,
13.406673,1.4615,4.6014,-0.7888,-2.1776,-1.3272,0.2508,
13.407373,1.4615,4.6014,-0.7888,-2.1776,-1.3272,0.2508,
13.407982,1.4615,4.6014,-0.7888,-2.1776,-1.3272,0.2508,
13.439950,1.4615,4.6014,-0.7888,-1.3654,-1.1760,-0.2000,
13.449886,-2.9323,-0.5549,-2.9966,-1.3654,-1.1760,-0.2000,
13.497702,-2.9323,-0.5549,-2.9966,-1.3654,-1.1760,-0.2000,
13.500841,-2.9323,-0.5549,-2.9966,-1.3654,-1.1760,-0.2000,
13.502975,-2.9323,-0.5549,-2.9966,-1.3654,-1.1760,-0.2000,
13.504518,-2.9323,-0.5549,-2.9966,-1.3654,-1.1760,-0.2000,
13.506047,-2.9323,-0.5549,-2.9966,-1.3654,-1.1760,-0.2000,
13.507024,-2.9323,-0.5549,-2.9966,-0.9200,0.4595,0.1585,
13.514153,0.3970,-0.8736,-2.3598,-0.9200,0.4595,0.1585,
13.571894,0.3970,-0.8736,-2.3598,-0.4706,0.4539,0.6112,
13.581246,1.2457,-0.2330,-1.7006,-0.4706,0.4539,0.6112,
13.593953,1.2457,-0.2330,-1.7006,-0.4706,0.4539,0.6112,
13.598929,1.2457,-0.2330,-1.7006,-0.4706,0.4539,0.6112,
13.599698,1.2457,-0.2330,-1.7006,-0.4706,0.4539,0.6112,
13.600340,1.2457,-0.2330,-1.7006,-0.4706,0.4539,0.6112,
13.600970,1.2457,-0.2330,-1.7006,-0.4706,0.4539,0.6112,
13.640626,1.2457,-0.2330,-1.7006,0.0445,0.7317,0.7376,
13.648893,-0.4390,-1.6994,-0.7498,0.0445,0.7317,0.7376,
13.689432,-0.4390,-1.6994,-0.7498,0.0445,0.7317,0.7376,
13.690670,-0.4390,-1.6994,-0.7498,0.0445,0.7317,0.7376,
13.691294,-0.4390,-1.6994,-0.7498,0.0445,0.7317,0.7376,
13.691908,-0.4390,-1.6994,-0.7498,0.0445,0.7317,0.7376,
13.692512,-0.4390,-1.6994,-0.7498,0.0445,0.7317,0.7376,
13.705140,-0.4390,-1.6994,-0.7498,-0.2310,0.8768,0.5682,
13.714397,0.5283,-1.2549,-1.0036,-0.2310,0.8768,0.5682,
13.774796,0.5283,-1.2549,-1.0036,-0.3416,1.0107,0.3072,
13.785208,0.5283,-1.2549,-1.0036,-0.3416,1.0107,0.3072,
13.786337,0.5283,-1.2549,-1.0036,-0.3416,1.0107,0.3072,
13.786996,0.5283,-1.2549,-1.0036,-0.3416,1.0107,0.3072,
13.787621,0.5283,-1.2549,-1.0036,-0.3416,1.0107,0.3072,
13.788328,0.5283,-1.2549,-1.0036,-0.3416,1.0107,0.3072,
13.788972,0.0778,-0.6375,0.9247,-0.3416,1.0107,0.3072,
13.841345,0.0778,-0.6375,0.9247,-0.0562,1.7753,0.5954,
13.850657,0.2782,-0.4170,1.6628,-0.0562,1.7753,0.5954,
13.878502,0.2782,-0.4170,1.6628,-0.0562,1.7753,0.5954,
13.879759,0.2782,-0.4170,1.6628,-0.0562,1.7753,0.5954,
13.880409,0.2782,-0.4170,1.6628,-0.0562,1.7753,0.5954,
13.881029,0.2782,-0.4170,1.6628,-0.0562,1.7753,0.5954,
13.907783,0.2782,-0.4170,1.6628,0.7382,1.2352,-0.0709,
13.916159,2.3571,-1.0633,3.8136,0.7382,1.2352,-0.0709,
13.953249,2.3571,-1.0633,3.8136,0.7382,1.2352,-0.0709,
13.953877,2.3571,-1.0633,3.8136,0.7382,1.2352,-0.0709,
13.954128,2.3571,-1.0633,3.8136,0.7382,1.2352,-0.0709,
13.954428,2.3571,-1.0633,3.8136,0.7382,1.2352,-0.0709,
13.954707,2.3571,-1.0633,3.8136,0.7382,1.2352,-0.0709,
13.971284,2.3571,-1.0633,3.8136,-0.0823,0.0544,0.1213,
13.980442,-0.5566,1.8449,-0.7535,-0.0823,0.0544,0.1213,
14.042340,-0.5566,1.8449,-0.7535,0.8747,-0.4110,-0.2837,
14.050364,-7.4662,4.9469,-1.1828,0.8747,-0.4110,-0.2837,
14.051732,-7.4662,4.9469,-1.1828,0.8747,-0.4110,-0.2837,
14.052415,-7.4662,4.9469,-1.1828,0.8747,-0.4110,-0.2837,
14.053113,-7.4662,4.9469,-1.1828,0.8747,-0.4110,-0.2837,
14.053766,-7.4662,4.9469,-1.1828,0.8747,-0.4110,-0.2837,
14.054547,-7.4662,4.9469,-1.1828,0.8747,-0.4110,-0.2837,
14.105071,-7.4662,4.9469,-1.1828,1.7388,-0.3777,-0.8283,
14.115761,-0.8016,-5.7930,0.0103,1.7388,-0.3777,-0.8283,
14.143489,-0.8016,-5.7930,0.0103,1.7388,-0.3777,-0.8283,
14.144082,-0.8016,-5.7930,0.0103,1.7388,-0.3777,-0.8283,
14.144284,-0.8016,-5.7930,0.0103,1.7388,-0.3777,-0.8283,
14.144479,-0.8016,-5.7930,0.0103,1.7388,-0.3777,-0.8283,
14.144676,-0.8016,-5.7930,0.0103,1.7388,-0.3777,-0.8283,
14.173895,-0.8016,-5.7930,0.0103,0.3102,0.2442,0.0434,
14.181302,3.3372,3.0539,-2.6043,0.3102,0.2442,0.0434,
14.237543,3.3372,3.0539,-2.6043,0.1584,0.5395,-0.0314,
14.238442,3.3372,3.0539,-2.6043,0.1584,0.5395,-0.0314,
14.238855,3.3372,3.0539,-2.6043,0.1584,0.5395,-0.0314,
14.239158,3.3372,3.0539,-2.6043,0.1584,0.5395,-0.0314,
14.239462,3.3372,3.0539,-2.6043,0.1584,0.5395,-0.0314,
14.239765,3.3372,3.0539,-2.6043,0.1584,0.5395,-0.0314,
14.247549,1.3420,-0.9711,0.9372,0.1584,0.5395,-0.0314,
14.304638,1.3420,-0.9711,0.9372,-0.1106,0.4830,-0.0118,
14.314685,-1.4837,0.4216,0.4491,-0.1106,0.4830,-0.0118,
14.334909,-1.4837,0.4216,0.4491,-0.1106,0.4830,-0.0118,
14.335512,-1.4837,0.4216,0.4491,-0.1106,0.4830,-0.0118,
14.335809,-1.4837,0.4216,0.4491,-0.1106,0.4830,-0.0118,
14.336114,-1.4837,0.4216,0.4491,-0.1106,0.4830,-0.0118,
14.336588,-1.4837,0.4216,0.4491,-0.1106,0.4830,-0.0118,
14.371060,-1.4837,0.4216,0.4491,0.3581,-0.2369,0.1335,
14.380002,-0.7074,-0.1878,-0.2131,0.3581,-0.2369,0.1335,
14.429943,-0.7074,-0.1878,-0.2131,0.3581,-0.2369,0.1335,
14.432717,-0.7074,-0.1878,-0.2131,0.3581,-0.2369,0.1335,
14.434309,-0.7074,-0.1878,-0.2131,0.3581,-0.2369,0.1335,
14.435757,-0.7074,-0.1878,-0.2131,0.3581,-0.2369,0.1335,
14.437807,-0.7074,-0.1878,-0.2131,0.4640,-1.4439,0.6394,
14.447187,0.0722,-0.2465,2.1592,0.4640,-1.4439,0.6394,
14.504092,0.0722,-0.2465,2.1592,-1.6465,-2.3254,0.1936,
14.504684,0.0722,-0.2465,2.1592,-1.6465,-2.3254,0.1936,
14.504868,0.0722,-0.2465,2.1592,-1.6465,-2.3254,0.1936,
14.505035,0.0722,-0.2465,2.1592,-1.6465,-2.3254,0.1936,
14.505208,0.0722,-0.2465,2.1592,-1.6465,-2.3254,0.1936,
14.505383,0.0722,-0.2465,2.1592,-1.6465,-2.3254,0.1936,
14.514062,-0.6355,0.4933,4.0496,-1.6465,-2.3254,0.1936,
14.576230,-0.6355,0.4933,4.0496,-2.2819,-0.2405,-0.6922,
14.582583,-4.2371,3.0461,-3.6782,-2.2819,-0.2405,-0.6922,
14.602807,-4.2371,3.0461,-3.6782,-2.2819,-0.2405,-0.6922,
14.604821,-4.2371,3.0461,-3.6782,-2.2819,-0.2405,-0.6922,
14.606205,-4.2371,3.0461,-3.6782,-2.2819,-0.2405,-0.6922,
14.609037,-4.2371,3.0461,-3.6782,-2.2819,-0.2405,-0.6922,
14.609714,-4.2371,3.0461,-3.6782,-2.2819,-0.2405,-0.6922,
14.637751,-4.2371,3.0461,-3.6782,-1.3204,0.7262,-0.4342,
14.650095,0.4619,0.3839,-4.5239,-1.3204,0.7262,-0.4342,
14.698544,0.4619,0.3839,-4.5239,-1.3204,0.7262,-0.4342,
14.701289,0.4619,0.3839,-4.5239,-1.3204,0.7262,-0.4342,
14.703248,0.4619,0.3839,-4.5239,-1.3204,0.7262,-0.4342,
14.703915,0.4619,0.3839,-4.5239,-1.3204,0.7262,-0.4342,
14.704587,0.4619,0.3839,-4.5239,-1.3204,0.7262,-0.4342,
14.708210,0.4619,0.3839,-4.5239,-0.2086,-0.5499,-0.0202,
14.715755,1.0468,-1.3241,-1.3105,-0.2086,-0.5499,-0.0202,
14.776478,1.0468,-1.3241,-1.3105,0.4937,0.2022,-0.1423,
14.782024,0.5263,-3.4918,-1.8710,0.4937,0.2022,-0.1423,
14.792454,0.5263,-3.4918,-1.8710,0.4937,0.2022,-0.1423,
14.793533,0.5263,-3.4918,-1.8710,0.4937,0.2022,-0.1423,
14.794273,0.5263,-3.4918,-1.8710,0.4937,0.2022,-0.1423,
14.795190,0.5263,-3.4918,-1.8710,0.4937,0.2022,-0.1423,
14.795892,0.5263,-3.4918,-1.8710,0.4937,0.2022,-0.1423,
14.842020,0.5263,-3.4918,-1.8710,1.1096,0.3560,-0.0418,
14.848981,1.5992,-1.9288,0.2097,1.1096,0.3560,-0.0418,
14.889026,1.5992,-1.9288,0.2097,1.1096,0.3560,-0.0418,
14.890320,1.5992,-1.9288,0.2097,1.1096,0.3560,-0.0418,
14.890999,1.5992,-1.9288,0.2097,1.1096,0.3560,-0.0418,
14.891680,1.5992,-1.9288,0.2097,1.1096,0.3560,-0.0418,
14.892363,1.5992,-1.9288,0.2097,1.1096,0.3560,-0.0418,
14.905796,1.5992,-1.9288,0.2097,0.3231,1.2399,-0.0901,
14.916153,0.9362,0.2256,4.3396,0.3231,1.2399,-0.0901,
14.945726,0.9362,0.2256,4.3396,0.3231,1.2399,-0.0901,
14.947043,0.9362,0.2256,4.3396,0.3231,1.2399,-0.0901,
14.972995,0.9362,0.2256,4.3396,-0.4646,-0.0470,0.2227,
14.984340,1.5263,2.9438,4.2513,-0.4646,-0.0470,0.2227,
15.022932,1.5263,2.9438,4.2513,-0.4646,-0.0470,0.2227,
15.026468,1.5263,2.9438,4.2513,-0.4646,-0.0470,0.2227,
15.028542,1.5263,2.9438,4.2513,-0.4646,-0.0470,0.2227,
15.030836,1.5263,2.9438,4.2513,-0.4646,-0.0470,0.2227,
15.032160,1.5263,2.9438,4.2513,-0.4646,-0.0470,0.2227,
15.038877,1.5263,2.9438,4.2513,0.7016,-0.0927,-0.2625,
15.051328,-5.2899,2.3515,-2.6133,0.7016,-0.0927,-0.2625,
15.108651,-5.2899,2.3515,-2.6133,1.2449,-1.0456,0.1334,
15.116508,0.7240,-1.4896,-2.2636,1.2449,-1.0456,0.1334,
15.118025,0.7240,-1.4896,-2.2636,1.2449,-1.0456,0.1334,
15.119004,0.7240,-1.4896,-2.2636,1.2449,-1.0456,0.1334,
15.119693,0.7240,-1.4896,-2.2636,1.2449,-1.0456,0.1334,
15.120366,0.7240,-1.4896,-2.2636,1.2449,-1.0456,0.1334,
15.121062,0.7240,-1.4896,-2.2636,1.2449,-1.0456,0.1334,
15.175651,0.7240,-1.4896,-2.2636,0.7958,0.2370,0.0575,
15.181810,2.1742,1.5361,-1.8815,0.7958,0.2370,0.0575,
15.211037,2.1742,1.5361,-1.8815,0.7958,0.2370,0.0575,
15.212175,2.1742,1.5361,-1.8815,0.7958,0.2370,0.0575,
15.212840,2.1742,1.5361,-1.8815,0.7958,0.2370,0.0575,
15.213647,2.1742,1.5361,-1.8815,0.7958,0.2370,0.0575,
15.214430,2.1742,1.5361,-1.8815,0.7958,0.2370,0.0575,
15.241063,2.1742,1.5361,-1.8815,0.4315,0.1794,0.1316,
15.249531,0.7163,-0.6711,-0.2450,0.4315,0.1794,0.1316,
15.296973,0.7163,-0.6711,-0.2450,0.4315,0.1794,0.1316,
15.297786,0.7163,-0.6711,-0.2450,0.4315,0.1794,0.1316,
15.298136,0.7163,-0.6711,-0.2450,0.4315,0.1794,0.1316,
15.298555,0.7163,-0.6711,-0.2450,0.4315,0.1794,0.1316,
15.303890,0.7163,-0.6711,-0.2450,0.1480,-0.9090,0.2059,
15.313076,-0.8180,-0.1394,1.7341,0.1480,-0.9090,0.2059,
15.371154,-0.8180,-0.1394,1.7341,-0.2511,-1.1593,-0.0121,
15.381432,-0.5589,-0.3059,2.0712,-0.2511,-1.1593,-0.0121,
15.382165,-0.5589,-0.3059,2.0712,-0.2511,-1.1593,-0.0121,
15.382609,-0.5589,-0.3059,2.0712,-0.2511,-1.1593,-0.0121,
15.382919,-0.5589,-0.3059,2.0712,-0.2511,-1.1593,-0.0121,
15.383211,-0.5589,-0.3059,2.0712,-0.2511,-1.1593,-0.0121,
15.383509,-0.5589,-0.3059,2.0712,-0.2511,-1.1593,-0.0121,
15.437442,-0.5589,-0.3059,2.0712,-0.6806,-1.2465,-0.2343,
15.447576,-0.1992,-0.6940,0.4894,-0.6806,-1.2465,-0.2343,
15.456977,-0.1992,-0.6940,0.4894,-0.6806,-1.2465,-0.2343,
15.457444,-0.1992,-0.6940,0.4894,-0.6806,-1.2465,-0.2343,
15.457646,-0.1992,-0.6940,0.4894,-0.6806,-1.2465,-0.2343,
15.504971,-0.1992,-0.6940,0.4894,-1.5340,-2.6702,0.1555,
15.514476,-0.2298,3.1089,2.7436,-1.5340,-2.6702,0.1555,
15.532554,-0.2298,3.1089,2.7436,-1.5340,-2.6702,0.1555,
15.533031,-0.2298,3.1089,2.7436,-1.5340,-2.6702,0.1555,
15.533239,-0.2298,3.1089,2.7436,-1.5340,-2.6702,0.1555,
15.533442,-0.2298,3.1089,2.7436,-1.5340,-2.6702,0.1555,
15.533639,-0.2298,3.1089,2.7436,-1.5340,-2.6702,0.1555,
15.570603,-0.2298,3.1089,2.7436,-1.0857,0.7298,-0.8072,
15.580979,-2.8043,3.0791,-5.4675,-1.0857,0.7298,-0.8072,
15.628160,-2.8043,3.0791,-5.4675,-1.0857,0.7298,-0.8072,
15.628703,-2.8043,3.0791,-5.4675,-1.0857,0.7298,-0.8072,
15.628892,-2.8043,3.0791,-5.4675,-1.0857,0.7298,-0.8072,
15.629087,-2.8043,3.0791,-5.4675,-1.0857,0.7298,-0.8072,
15.629280,-2.8043,3.0791,-5.4675,-1.0857,0.7298,-0.8072,
15.636529,-2.8043,3.0791,-5.4675,-0.2423,-0.7736,-0.1651,
15.646763,0.0872,-1.9827,-1.2434,-0.2423,-0.7736,-0.1651,
15.703684,0.0872,-1.9827,-1.2434,0.3288,0.0525,0.0158,
15.714068,0.5746,-2.8602,-1.4395,0.3288,0.0525,0.0158,
15.722889,0.5746,-2.8602,-1.4395,0.3288,0.0525,0.0158,
15.723312,0.5746,-2.8602,-1.4395,0.3288,0.0525,0.0158,
15.723537,0.5746,-2.8602,-1.4395,0.3288,0.0525,0.0158,
15.723740,0.5746,-2.8602,-1.4395,0.3288,0.0525,0.0158,
15.723958,0.5746,-2.8602,-1.4395,0.3288,0.0525,0.0158,
15.775342,0.5746,-2.8602,-1.4395,0.6167,0.5072,0.2799,
15.781903,2.1095,-1.2495,-1.9874,0.6167,0.5072,0.2799,
15.821859,2.1095,-1.2495,-1.9874,0.6167,0.5072,0.2799,
15.823376,2.1095,-1.2495,-1.9874,0.6167,0.5072,0.2799,
15.824015,2.1095,-1.2495,-1.9874,0.6167,0.5072,0.2799,
15.824849,2.1095,-1.2495,-1.9874,0.6167,0.5072,0.2799,
15.825483,2.1095,-1.2495,-1.9874,0.6167,0.5072,0.2799,
15.838926,2.1095,-1.2495,-1.9874,1.1815,0.5175,0.4371,
15.848325,0.0080,-0.9764,2.1709,1.1815,0.5175,0.4371,
15.905932,0.0080,-0.9764,2.1709,0.2958,1.0934,-0.1778,
15.915458,0.0080,-0.9764,2.1709,0.2958,1.0934,-0.1778,
15.916492,0.0080,-0.9764,2.1709,0.2958,1.0934,-0.1778,
15.917133,0.0080,-0.9764,2.1709,0.2958,1.0934,-0.1778,
15.917757,0.0080,-0.9764,2.1709,0.2958,1.0934,-0.1778,
15.918512,0.0080,-0.9764,2.1709,0.2958,1.0934,-0.1778,
15.919187,1.3491,-0.2967,5.8933,0.2958,1.0934,-0.1778,
15.971114,1.3491,-0.2967,5.8933,-0.8468,1.0340,-0.2552,
15.978790,1.2193,2.3716,0.2943,-0.8468,1.0340,-0.2552,
16.009092,1.2193,2.3716,0.2943,-0.8468,1.0340,-0.2552,
16.009518,1.2193,2.3716,0.2943,-0.8468,1.0340,-0.2552,
16.009706,1.2193,2.3716,0.2943,-0.8468,1.0340,-0.2552,
16.009886,1.2193,2.3716,0.2943,-0.8468,1.0340,-0.2552,
16.010082,1.2193,2.3716,0.2943,-0.8468,1.0340,-0.2552,
16.041154,1.2193,2.3716,0.2943,0.5972,-0.4475,-0.2074,
16.048200,-4.9394,1.9569,-0.6740,0.5972,-0.4475,-0.2074,
16.108116,-4.9394,1.9569,-0.6740,1.0249,-0.2265,0.2170,
16.109866,-4.9394,1.9569,-0.6740,1.0249,-0.2265,0.2170,
16.110850,-4.9394,1.9569,-0.6740,1.0249,-0.2265,0.2170,
16.111521,-4.9394,1.9569,-0.6740,1.0249,-0.2265,0.2170,
16.112173,-4.9394,1.9569,-0.6740,1.0249,-0.2265,0.2170,
16.112817,-4.9394,1.9569,-0.6740,1.0249,-0.2265,0.2170,
16.115055,2.6827,-0.5553,-3.7469,1.0249,-0.2265,0.2170,
16.173272,2.6827,-0.5553,-3.7469,0.7529,0.5045,0.3654,
16.183401,1.1879,0.9635,-1.6756,0.7529,0.5045,0.3654,
16.201945,1.1879,0.9635,-1.6756,0.7529,0.5045,0.3654,
16.205582,1.1879,0.9635,-1.6756,0.7529,0.5045,0.3654,
16.209047,1.1879,0.9635,-1.6756,0.7529,0.5045,0.3654,
16.209707,1.1879,0.9635,-1.6756,0.7529,0.5045,0.3654,
16.210427,1.1879,0.9635,-1.6756,0.7529,0.5045,0.3654,
16.238999,1.1879,0.9635,-1.6756,0.8441,-0.2860,0.4231,
16.247007,-0.5250,-0.5898,-0.3695,0.8441,-0.2860,0.4231,
16.297585,-0.5250,-0.5898,-0.3695,0.8441,-0.2860,0.4231,
16.300895,-0.5250,-0.5898,-0.3695,0.8441,-0.2860,0.4231,
16.304084,-0.5250,-0.5898,-0.3695,0.8441,-0.2860,0.4231,
16.304876,-0.5250,-0.5898,-0.3695,0.8441,-0.2860,0.4231,
16.305505,-0.5250,-0.5898,-0.3695,0.8441,-0.2860,0.4231,
16.306192,-0.5250,-0.5898,-0.3695,0.2015,-0.3309,-0.0463,
16.314879,-1.3991,-0.3261,1.5721,0.2015,-0.3309,-0.0463,
16.376606,-1.3991,-0.3261,1.5721,-0.2140,-1.4368,0.0727,
16.381483,0.3178,-0.0097,3.2859,-0.2140,-1.4368,0.0727,
16.392573,0.3178,-0.0097,3.2859,-0.2140,-1.4368,0.0727,
16.395071,0.3178,-0.0097,3.2859,-0.2140,-1.4368,0.0727,
16.397130,0.3178,-0.0097,3.2859,-0.2140,-1.4368,0.0727,
16.399065,0.3178,-0.0097,3.2859,-0.2140,-1.4368,0.0727,
16.400263,0.3178,-0.0097,3.2859,-0.2140,-1.4368,0.0727,
16.430833,0.3178,-0.0097,3.2859,-0.2140,-1.4368,0.0727,
16.436740,0.3178,-0.0097,3.2859,-2.0692,-1.4733,-0.0119,
16.448134,0.7270,0.8213,2.7003,-2.0692,-1.4733,-0.0119,
16.505961,0.7270,0.8213,2.7003,-2.4915,-0.0967,-0.3811,
16.509352,0.7270,0.8213,2.7003,-2.4915,-0.0967,-0.3811,
16.511293,0.7270,0.8213,2.7003,-2.4915,-0.0967,-0.3811,
16.511955,0.7270,0.8213,2.7003,-2.4915,-0.0967,-0.3811,
16.512598,0.7270,0.8213,2.7003,-2.4915,-0.0967,-0.3811,
16.513222,0.7270,0.8213,2.7003,-2.4915,-0.0967,-0.3811,
16.515332,-2.0009,3.1418,-1.9002,-2.4915,-0.0967,-0.3811,
16.574661,-2.0009,3.1418,-1.9002,-1.2475,-0.1494,-0.2037,
16.584742,-0.1126,0.6158,-3.8762,-1.2475,-0.1494,-0.2037,
16.601428,-0.1126,0.6158,-3.8762,-1.2475,-0.1494,-0.2037,
16.603888,-0.1126,0.6158,-3.8762,-1.2475,-0.1494,-0.2037,
16.605891,-0.1126,0.6158,-3.8762,-1.2475,-0.1494,-0.2037,
16.609027,-0.1126,0.6158,-3.8762,-1.2475,-0.1494,-0.2037,
16.609695,-0.1126,0.6158,-3.8762,-1.2475,-0.1494,-0.2037,
16.638501,-0.1126,0.6158,-3.8762,-0.4169,0.2508,-0.1240,
16.649768,-0.0928,-1.5212,-1.8270,-0.4169,0.2508,-0.1240,
16.697514,-0.0928,-1.5212,-1.8270,-0.4169,0.2508,-0.1240,
16.700765,-0.0928,-1.5212,-1.8270,-0.4169,0.2508,-0.1240,
16.703136,-0.0928,-1.5212,-1.8270,-0.4169,0.2508,-0.1240,
16.705195,-0.0928,-1.5212,-1.8270,-0.4169,0.2508,-0.1240,
16.707015,-0.0928,-1.5212,-1.8270,-0.4169,0.2508,-0.1240,
16.707742,-0.0928,-1.5212,-1.8270,0.5021,0.7370,0.4662,
16.715475,1.6408,-2.4360,-1.3982,0.5021,0.7370,0.4662,
16.774739,1.6408,-2.4360,-1.3982,1.0225,0.5019,0.7694,
16.782957,0.6897,-1.0333,-0.3748,1.0225,0.5019,0.7694,
16.791398,0.6897,-1.0333,-0.3748,1.0225,0.5019,0.7694,
16.792387,0.6897,-1.0333,-0.3748,1.0225,0.5019,0.7694,
16.793044,0.6897,-1.0333,-0.3748,1.0225,0.5019,0.7694,
16.793681,0.6897,-1.0333,-0.3748,1.0225,0.5019,0.7694,
16.794399,0.6897,-1.0333,-0.3748,1.0225,0.5019,0.7694,
16.838567,0.6897,-1.0333,-0.3748,0.6710,0.9390,0.1536,
16.850698,-0.0763,-0.5439,4.3216,0.6710,0.9390,0.1536,
16.885289,-0.0763,-0.5439,4.3216,0.6710,0.9390,0.1536,
16.887386,-0.0763,-0.5439,4.3216,0.6710,0.9390,0.1536,
16.889541,-0.0763,-0.5439,4.3216,0.6710,0.9390,0.1536,
16.891045,-0.0763,-0.5439,4.3216,0.6710,0.9390,0.1536,
16.892380,-0.0763,-0.5439,4.3216,0.6710,0.9390,0.1536,
16.905375,-0.0763,-0.5439,4.3216,0.0322,1.2905,0.0732,
16.908201,-0.0763,-0.5439,4.3216,0.0322,1.2905,0.0732,
16.913184,0.6829,-0.1878,4.0890,0.0322,1.2905,0.0732,
16.973359,0.6829,-0.1878,4.0890,-0.5076,0.2430,0.2537,
16.983825,-0.9296,4.5496,-1.2828,-0.5076,0.2430,0.2537,
17.001509,-0.9296,4.5496,-1.2828,-0.5076,0.2430,0.2537,
17.004150,-0.9296,4.5496,-1.2828,-0.5076,0.2430,0.2537,
17.006027,-0.9296,4.5496,-1.2828,-0.5076,0.2430,0.2537,
17.007287,-0.9296,4.5496,-1.2828,-0.5076,0.2430,0.2537,
17.007950,-0.9296,4.5496,-1.2828,-0.5076,0.2430,0.2537,
17.039958,-0.9296,4.5496,-1.2828,1.0830,-0.5601,-0.1861,
17.049555,-1.6451,-1.6578,-2.8309,1.0830,-0.5601,-0.1861,
17.095065,-1.6451,-1.6578,-2.8309,1.0830,-0.5601,-0.1861,
17.095614,-1.6451,-1.6578,-2.8309,1.0830,-0.5601,-0.1861,
17.095806,-1.6451,-1.6578,-2.8309,1.0830,-0.5601,-0.1861,
17.095999,-1.6451,-1.6578,-2.8309,1.0830,-0.5601,-0.1861,
17.096182,-1.6451,-1.6578,-2.8309,1.0830,-0.5601,-0.1861,
17.102798,-1.6451,-1.6578,-2.8309,0.9290,0.1944,0.1605,
17.112315,1.8718,1.5812,-1.8245,0.9290,0.1944,0.1605,
17.174881,1.8718,1.5812,-1.8245,0.5883,0.5424,-0.2699,
17.181496,0.7384,-0.7048,-1.6704,0.5883,0.5424,-0.2699,
17.191620,0.7384,-0.7048,-1.6704,0.5883,0.5424,-0.2699,
17.192836,0.7384,-0.7048,-1.6704,0.5883,0.5424,-0.2699,
17.193536,0.7384,-0.7048,-1.6704,0.5883,0.5424,-0.2699,
17.194203,0.7384,-0.7048,-1.6704,0.5883,0.5424,-0.2699,
17.194981,0.7384,-0.7048,-1.6704,0.5883,0.5424,-0.2699,
17.238306,0.7384,-0.7048,-1.6704,0.5831,0.0891,0.1777,
17.248117,-0.7126,0.0406,-0.2550,0.5831,0.0891,0.1777,
17.287954,-0.7126,0.0406,-0.2550,0.5831,0.0891,0.1777,
17.290718,-0.7126,0.0406,-0.2550,0.5831,0.0891,0.1777,
17.292474,-0.7126,0.0406,-0.2550,0.5831,0.0891,0.1777,
17.294158,-0.7126,0.0406,-0.2550,0.5831,0.0891,0.1777,
17.297217,-0.7126,0.0406,-0.2550,0.5831,0.0891,0.1777,
17.304530,-0.7126,0.0406,-0.2550,0.4655,-0.0115,0.2166,
17.316424,-0.2001,-0.3785,1.6568,0.4655,-0.0115,0.2166,
17.372236,-0.2001,-0.3785,1.6568,0.4453,-1.2343,0.3134,
17.384181,-0.2001,-0.3785,1.6568,0.4453,-1.2343,0.3134,
17.386657,-0.2001,-0.3785,1.6568,0.4453,-1.2343,0.3134,
17.388585,-0.2001,-0.3785,1.6568,0.4453,-1.2343,0.3134,
17.392082,-0.2001,-0.3785,1.6568,0.4453,-1.2343,0.3134,
17.392837,-0.2001,-0.3785,1.6568,0.4453,-1.2343,0.3134,
17.393444,0.1851,0.1099,2.7730,0.4453,-1.2343,0.3134,
17.439083,0.1851,0.1099,2.7730,0.2211,-0.5766,-0.0091,
17.448868,0.3482,-0.1536,0.7515,0.2211,-0.5766,-0.0091,
17.476645,0.3482,-0.1536,0.7515,0.2211,-0.5766,-0.0091,
17.478182,0.3482,-0.1536,0.7515,0.2211,-0.5766,-0.0091,
17.479672,0.3482,-0.1536,0.7515,0.2211,-0.5766,-0.0091,
17.480925,0.3482,-0.1536,0.7515,0.2211,-0.5766,-0.0091,
17.482185,0.3482,-0.1536,0.7515,0.2211,-0.5766,-0.0091,
17.505242,0.3482,-0.1536,0.7515,-1.4290,-2.0391,-0.0567,
17.514562,-0.3427,0.2394,2.2702,-1.4290,-2.0391,-0.0567,
17.570890,-0.3427,0.2394,2.2702,-2.4726,-1.2383,0.4302,
17.573593,-0.3427,0.2394,2.2702,-2.4726,-1.2383,0.4302,
17.575584,-0.3427,0.2394,2.2702,-2.4726,-1.2383,0.4302,
17.577237,-0.3427,0.2394,2.2702,-2.4726,-1.2383,0.4302,
17.578932,-0.3427,0.2394,2.2702,-2.4726,-1.2383,0.4302,
17.581246,-0.3427,0.2394,2.2702,-2.4726,-1.2383,0.4302,
17.583072,0.4926,3.6844,-1.7278,-2.4726,-1.2383,0.4302,
17.638703,0.4926,3.6844,-1.7278,-0.7648,-0.2534,0.2769,
17.650153,-3.2553,0.1798,-3.6023,-0.7648,-0.2534,0.2769,
17.667612,-3.2553,0.1798,-3.6023,-0.7648,-0.2534,0.2769,
17.669892,-3.2553,0.1798,-3.6023,-0.7648,-0.2534,0.2769,
17.671314,-3.2553,0.1798,-3.6023,-0.7648,-0.2534,0.2769,
17.672475,-3.2553,0.1798,-3.6023,-0.7648,-0.2534,0.2769,
17.674336,-3.2553,0.1798,-3.6023,-0.7648,-0.2534,0.2769,
17.703101,-3.2553,0.1798,-3.6023,-0.7160,0.7722,0.3274,
17.711984,0.2340,0.7143,-2.5266,-0.7160,0.7722,0.3274,
17.762287,0.2340,0.7143,-2.5266,-0.7160,0.7722,0.3274,
17.763337,0.2340,0.7143,-2.5266,-0.7160,0.7722,0.3274,
17.763652,0.2340,0.7143,-2.5266,-0.7160,0.7722,0.3274,
17.763954,0.2340,0.7143,-2.5266,-0.7160,0.7722,0.3274,
17.764250,0.2340,0.7143,-2.5266,-0.7160,0.7722,0.3274,
17.768913,0.2340,0.7143,-2.5266,0.1763,0.7562,0.3039,
17.778988,0.6345,-2.7808,-1.8243,0.1763,0.7562,0.3039,
17.840495,0.6345,-2.7808,-1.8243,0.9412,0.8489,0.1387,
17.847305,-1.0153,-1.9844,-0.6827,0.9412,0.8489,0.1387,
17.856132,-1.0153,-1.9844,-0.6827,0.9412,0.8489,0.1387,
17.857113,-1.0153,-1.9844,-0.6827,0.9412,0.8489,0.1387,
17.857726,-1.0153,-1.9844,-0.6827,0.9412,0.8489,0.1387,
17.858429,-1.0153,-1.9844,-0.6827,0.9412,0.8489,0.1387,
17.859083,-1.0153,-1.9844,-0.6827,0.9412,0.8489,0.1387,
17.903540,-1.0153,-1.9844,-0.6827,1.0136,0.4772,-0.2222,
17.912434,-0.3039,-1.5275,2.2096,1.0136,0.4772,-0.2222,
17.955223,-0.3039,-1.5275,2.2096,1.0136,0.4772,-0.2222,
17.956625,-0.3039,-1.5275,2.2096,1.0136,0.4772,-0.2222,
17.957317,-0.3039,-1.5275,2.2096,1.0136,0.4772,-0.2222,
17.958015,-0.3039,-1.5275,2.2096,1.0136,0.4772,-0.2222,
17.959035,-0.3039,-1.5275,2.2096,1.0136,0.4772,-0.2222,
17.974006,-0.3039,-1.5275,2.2096,1.0437,0.3069,-0.4742,
17.975734,-0.3039,-1.5275,2.2096,1.0437,0.3069,-0.4742,
17.980103,1.5468,0.0932,4.7921,1.0437,0.3069,-0.4742,
18.038595,1.5468,0.0932,4.7921,0.3216,0.3396,-0.1335,
18.047774,-0.5286,4.1506,-1.1584,0.3216,0.3396,-0.1335,
18.067788,-0.5286,4.1506,-1.1584,0.3216,0.3396,-0.1335,
18.070346,-0.5286,4.1506,-1.1584,0.3216,0.3396,-0.1335,
18.071492,-0.5286,4.1506,-1.1584,0.3216,0.3396,-0.1335,
18.072538,-0.5286,4.1506,-1.1584,0.3216,0.3396,-0.1335,
18.073557,-0.5286,4.1506,-1.1584,0.3216,0.3396,-0.1335,
18.103072,-0.5286,4.1506,-1.1584,0.9342,1.4477,-0.6123,
18.114053,-0.1372,-2.0475,-1.0394,0.9342,1.4477,-0.6123,
18.163486,-0.1372,-2.0475,-1.0394,0.9342,1.4477,-0.6123,
18.166810,-0.1372,-2.0475,-1.0394,0.9342,1.4477,-0.6123,
18.168658,-0.1372,-2.0475,-1.0394,0.9342,1.4477,-0.6123,
18.170806,-0.1372,-2.0475,-1.0394,0.9342,1.4477,-0.6123,
18.172575,-0.1372,-2.0475,-1.0394,0.9342,1.4477,-0.6123,
18.176523,-0.1372,-2.0475,-1.0394,0.8732,0.5250,0.1305,
18.180164,-0.0063,-0.1884,-3.2568,0.8732,0.5250,0.1305,
18.235877,-0.0063,-0.1884,-3.2568,-0.4815,-0.7798,0.5050,
18.245367,0.2092,2.7688,2.7931,-0.4815,-0.7798,0.5050,
18.255534,0.2092,2.7688,2.7931,-0.4815,-0.7798,0.5050,
18.257310,0.2092,2.7688,2.7931,-0.4815,-0.7798,0.5050,
18.258282,0.2092,2.7688,2.7931,-0.4815,-0.7798,0.5050,
18.259172,0.2092,2.7688,2.7931,-0.4815,-0.7798,0.5050,
18.260094,0.2092,2.7688,2.7931,-0.4815,-0.7798,0.5050,
18.301889,0.2092,2.7688,2.7931,0.5619,-0.3877,0.3825,
18.311536,-0.6299,-0.5378,-0.0230,0.5619,-0.3877,0.3825,
18.349715,-0.6299,-0.5378,-0.0230,0.5619,-0.3877,0.3825,
18.350161,-0.6299,-0.5378,-0.0230,0.5619,-0.3877,0.3825,
18.350433,-0.6299,-0.5378,-0.0230,0.5619,-0.3877,0.3825,
18.350631,-0.6299,-0.5378,-0.0230,0.5619,-0.3877,0.3825,
18.350811,-0.6299,-0.5378,-0.0230,0.5619,-0.3877,0.3825,
18.368507,-0.6299,-0.5378,-0.0230,1.0877,0.1944,0.0031,
18.377749,-1.4703,-1.6868,0.6465,1.0877,0.1944,0.0031,
18.437965,-1.4703,-1.6868,0.6465,0.2076,-2.2254,0.5022,
18.448243,0.2596,1.2392,4.4510,0.2076,-2.2254,0.5022,
18.450514,0.2596,1.2392,4.4510,0.2076,-2.2254,0.5022,
18.452263,0.2596,1.2392,4.4510,0.2076,-2.2254,0.5022,
18.453875,0.2596,1.2392,4.4510,0.2076,-2.2254,0.5022,
18.456974,0.2596,1.2392,4.4510,0.2076,-2.2254,0.5022,
18.457674,0.2596,1.2392,4.4510,0.2076,-2.2254,0.5022,
18.504732,0.2596,1.2392,4.4510,-2.3447,-1.3979,0.2383,
18.517679,0.4030,0.3747,-1.2943,-2.3447,-1.3979,0.2383,
18.525407,0.4030,0.3747,-1.2943,-2.3447,-1.3979,0.2383,
18.528425,0.4030,0.3747,-1.2943,-2.3447,-1.3979,0.2383,
18.529076,0.4030,0.3747,-1.2943,-2.3447,-1.3979,0.2383,
18.572264,0.4030,0.3747,-1.2943,-3.8220,-1.1129,-0.1523,
18.580362,-0.7400,2.7118,0.7753,-3.8220,-1.1129,-0.1523,
18.600568,-0.7400,2.7118,0.7753,-3.8220,-1.1129,-0.1523,
18.603232,-0.7400,2.7118,0.7753,-3.8220,-1.1129,-0.1523,
18.605038,-0.7400,2.7118,0.7753,-3.8220,-1.1129,-0.1523,
18.606774,-0.7400,2.7118,0.7753,-3.8220,-1.1129,-0.1523,
18.607562,-0.7400,2.7118,0.7753,-3.8220,-1.1129,-0.1523,
18.637917,-0.7400,2.7118,0.7753,-1.9404,1.4017,-0.0719,
18.647976,-1.8040,0.2274,-9.1875,-1.9404,1.4017,-0.0719,
18.696605,-1.8040,0.2274,-9.1875,-1.9404,1.4017,-0.0719,
18.699616,-1.8040,0.2274,-9.1875,-1.9404,1.4017,-0.0719,
18.701415,-1.8040,0.2274,-9.1875,-1.9404,1.4017,-0.0719,
18.704950,-1.8040,0.2274,-9.1875,-1.9404,1.4017,-0.0719,
18.705666,-1.8040,0.2274,-9.1875,-1.9404,1.4017,-0.0719,
18.706577,-1.8040,0.2274,-9.1875,-0.8149,0.6730,-0.0444,
18.713146,1.0216,0.9626,0.6965,-0.8149,0.6730,-0.0444,
18.772044,1.0216,0.9626,0.6965,0.5971,0.0583,0.1442,
18.779982,0.0877,-3.1957,-1.7185,0.5971,0.0583,0.1442,
18.790738,0.0877,-3.1957,-1.7185,0.5971,0.0583,0.1442,
18.791836,0.0877,-3.1957,-1.7185,0.5971,0.0583,0.1442,
18.792484,0.0877,-3.1957,-1.7185,0.5971,0.0583,0.1442,
18.793136,0.0877,-3.1957,-1.7185,0.5971,0.0583,0.1442,
18.793785,0.0877,-3.1957,-1.7185,0.5971,0.0583,0.1442,
18.837837,0.0877,-3.1957,-1.7185,1.2678,-0.9063,0.1478,
18.847424,-0.3359,-2.6103,-0.7134,1.2678,-0.9063,0.1478,
18.884840,-0.3359,-2.6103,-0.7134,1.2678,-0.9063,0.1478,
18.887097,-0.3359,-2.6103,-0.7134,1.2678,-0.9063,0.1478,
18.888894,-0.3359,-2.6103,-0.7134,1.2678,-0.9063,0.1478,
18.890878,-0.3359,-2.6103,-0.7134,1.2678,-0.9063,0.1478,
18.892465,-0.3359,-2.6103,-0.7134,1.2678,-0.9063,0.1478,
18.903659,-0.3359,-2.6103,-0.7134,0.8654,-0.0680,-0.0466,
18.914427,-0.7012,0.1570,1.7374,0.8654,-0.0680,-0.0466,
18.971837,-0.7012,0.1570,1.7374,1.1483,0.5931,-0.1022,
18.983624,-0.7012,0.1570,1.7374,1.1483,0.5931,-0.1022,
18.985743,-0.7012,0.1570,1.7374,1.1483,0.5931,-0.1022,
18.987562,-0.7012,0.1570,1.7374,1.1483,0.5931,-0.1022,
18.989876,-0.7012,0.1570,1.7374,1.1483,0.5931,-0.1022,
18.993086,-0.7012,0.1570,1.7374,1.1483,0.5931,-0.1022,
18.993773,0.6827,-0.3127,3.7621,1.1483,0.5931,-0.1022,
19.039451,0.6827,-0.3127,3.7621,1.4119,0.1454,-0.0385,
19.046395,1.1579,-0.2673,2.0544,1.4119,0.1454,-0.0385,
19.075567,1.1579,-0.2673,2.0544,1.4119,0.1454,-0.0385,
19.076727,1.1579,-0.2673,2.0544,1.4119,0.1454,-0.0385,
19.077408,1.1579,-0.2673,2.0544,1.4119,0.1454,-0.0385,
19.078001,1.1579,-0.2673,2.0544,1.4119,0.1454,-0.0385,
19.078749,1.1579,-0.2673,2.0544,1.4119,0.1454,-0.0385,
19.102151,1.1579,-0.2673,2.0544,0.2366,-0.0491,0.1746,
19.113667,-2.2412,4.0061,-0.1511,0.2366,-0.0491,0.1746,
19.173253,-2.2412,4.0061,-0.1511,1.3305,-0.3465,-0.3287,
19.178982,-2.2412,4.0061,-0.1511,1.3305,-0.3465,-0.3287,
19.180710,-2.2412,4.0061,-0.1511,1.3305,-0.3465,-0.3287,
19.183879,-2.2412,4.0061,-0.1511,1.3305,-0.3465,-0.3287,
19.184714,-2.2412,4.0061,-0.1511,1.3305,-0.3465,-0.3287,
19.185338,-2.2412,4.0061,-0.1511,1.3305,-0.3465,-0.3287,
19.185994,-0.3008,-1.5425,0.7395,1.3305,-0.3465,-0.3287,
19.242680,-0.3008,-1.5425,0.7395,1.4125,-1.0713,0.0016,
19.248297,0.0989,-1.1585,-1.6695,1.4125,-1.0713,0.0016,
19.266818,0.0989,-1.1585,-1.6695,1.4125,-1.0713,0.0016,
19.269587,0.0989,-1.1585,-1.6695,1.4125,-1.0713,0.0016,
19.271698,0.0989,-1.1585,-1.6695,1.4125,-1.0713,0.0016,
19.273919,0.0989,-1.1585,-1.6695,1.4125,-1.0713,0.0016,
19.275833,0.0989,-1.1585,-1.6695,1.4125,-1.0713,0.0016,
19.302115,0.0989,-1.1585,-1.6695,0.2091,-0.0493,0.0988,
19.313592,2.6186,1.7727,-1.3210,0.2091,-0.0493,0.0988,
19.363821,2.6186,1.7727,-1.3210,0.2091,-0.0493,0.0988,
19.365142,2.6186,1.7727,-1.3210,0.2091,-0.0493,0.0988,
19.365825,2.6186,1.7727,-1.3210,0.2091,-0.0493,0.0988,
19.366735,2.6186,1.7727,-1.3210,0.2091,-0.0493,0.0988,
19.367429,2.6186,1.7727,-1.3210,0.2091,-0.0493,0.0988,
19.369438,2.6186,1.7727,-1.3210,-0.0640,0.3111,-0.0571,
19.379373,0.1893,-0.5045,-0.4374,-0.0640,0.3111,-0.0571,
19.436576,0.1893,-0.5045,-0.4374,0.4636,0.0523,0.2493,
19.444587,-0.1362,0.4081,-0.5707,0.4636,0.0523,0.2493,
19.454519,-0.1362,0.4081,-0.5707,0.4636,0.0523,0.2493,
19.454988,-0.1362,0.4081,-0.5707,0.4636,0.0523,0.2493,
19.455293,-0.1362,0.4081,-0.5707,0.4636,0.0523,0.2493,
19.455517,-0.1362,0.4081,-0.5707,0.4636,0.0523,0.2493,
19.455734,-0.1362,0.4081,-0.5707,0.4636,0.0523,0.2493,
19.501346,-0.1362,0.4081,-0.5707,0.6368,0.1814,0.2297,
19.510816,0.2310,-0.3053,0.3582,0.6368,0.1814,0.2297,
19.549693,0.2310,-0.3053,0.3582,0.6368,0.1814,0.2297,
19.550206,0.2310,-0.3053,0.3582,0.6368,0.1814,0.2297,
19.551464,0.2310,-0.3053,0.3582,0.6368,0.1814,0.2297,
19.552689,0.2310,-0.3053,0.3582,0.6368,0.1814,0.2297,
19.553931,0.2310,-0.3053,0.3582,0.6368,0.1814,0.2297,
19.567413,0.2310,-0.3053,0.3582,0.7262,-0.4042,0.1866,
19.576720,-0.1244,-0.0481,2.0783,0.7262,-0.4042,0.1866,
19.612798,-0.1244,-0.0481,2.0783,0.7262,-0.4042,0.1866,
19.613366,-0.1244,-0.0481,2.0783,0.7262,-0.4042,0.1866,
19.613562,-0.1244,-0.0481,2.0783,0.7262,-0.4042,0.1866,
19.634524,-0.1244,-0.0481,2.0783,0.3429,-0.8199,0.0672,
19.643778,0.5601,0.5595,2.2706,0.3429,-0.8199,0.0672,
19.702133,0.5601,0.5595,2.2706,-1.5012,-1.1128,-0.2214,
19.705394,0.5601,0.5595,2.2706,-1.5012,-1.1128,-0.2214,
19.706904,0.5601,0.5595,2.2706,-1.5012,-1.1128,-0.2214,
19.708268,0.5601,0.5595,2.2706,-1.5012,-1.1128,-0.2214,
19.709768,0.5601,0.5595,2.2706,-1.5012,-1.1128,-0.2214,
19.712923,0.5601,0.5595,2.2706,-1.5012,-1.1128,-0.2214,
19.713658,0.2046,-0.6357,2.0476,-1.5012,-1.1128,-0.2214,
19.771768,0.2046,-0.6357,2.0476,-2.9460,-1.8021,0.5308,
19.778927,0.9100,3.6268,-0.2003,-2.9460,-1.8021,0.5308,
19.796946,0.9100,3.6268,-0.2003,-2.9460,-1.8021,0.5308,
19.798610,0.9100,3.6268,-0.2003,-2.9460,-1.8021,0.5308,
19.799518,0.9100,3.6268,-0.2003,-2.9460,-1.8021,0.5308,
19.800371,0.9100,3.6268,-0.2003,-2.9460,-1.8021,0.5308,
19.801251,0.9100,3.6268,-0.2003,-2.9460,-1.8021,0.5308,
19.835081,0.9100,3.6268,-0.2003,-0.9119,0.1763,0.7059,
19.844212,-3.1164,1.5453,-4.4946,-0.9119,0.1763,0.7059,
19.897023,-3.1164,1.5453,-4.4946,-0.9119,0.1763,0.7059,
19.900760,-3.1164,1.5453,-4.4946,-0.9119,0.1763,0.7059,
19.903985,-3.1164,1.5453,-4.4946,-0.9119,0.1763,0.7059,
19.904335,-3.1164,1.5453,-4.4946,-0.9119,0.1763,0.7059,
19.904670,-3.1164,1.5453,-4.4946,-0.9119,0.1763,0.7059,
19.905014,-3.1164,1.5453,-4.4946,-1.0114,0.7083,0.9435,
19.911332,-0.0670,1.7457,-1.9097,-1.0114,0.7083,0.9435,
19.969527,-0.0670,1.7457,-1.9097,-0.1825,1.5863,0.6052,
19.978403,0.6929,-3.3894,-2.9031,-0.1825,1.5863,0.6052,
19.987790,0.6929,-3.3894,-2.9031,-0.1825,1.5863,0.6052,
19.988881,0.6929,-3.3894,-2.9031,-0.1825,1.5863,0.6052,
19.989483,0.6929,-3.3894,-2.9031,-0.1825,1.5863,0.6052,
19.990089,0.6929,-3.3894,-2.9031,-0.1825,1.5863,0.6052,
19.990804,0.6929,-3.3894,-2.9031,-0.1825,1.5863,0.6052,
20.038838,0.6929,-3.3894,-2.9031,0.8426,0.6703,0.0662,
20.047447,-1.1552,-2.9954,-0.6321,0.8426,0.6703,0.0662,
20.083765,-1.1552,-2.9954,-0.6321,0.8426,0.6703,0.0662,
20.087451,-1.1552,-2.9954,-0.6321,0.8426,0.6703,0.0662,
20.089540,-1.1552,-2.9954,-0.6321,0.8426,0.6703,0.0662,
20.091832,-1.1552,-2.9954,-0.6321,0.8426,0.6703,0.0662,
20.093399,-1.1552,-2.9954,-0.6321,0.8426,0.6703,0.0662,
20.102575,-1.1552,-2.9954,-0.6321,0.2198,1.2473,-0.3800,
20.112156,-1.5506,-1.4121,1.6604,0.2198,1.2473,-0.3800,
20.172591,-1.5506,-1.4121,1.6604,0.6874,0.7008,0.1966,
20.181468,-1.5506,-1.4121,1.6604,0.6874,0.7008,0.1966,
20.182512,-1.5506,-1.4121,1.6604,0.6874,0.7008,0.1966,
20.183201,-1.5506,-1.4121,1.6604,0.6874,0.7008,0.1966,
20.183800,-1.5506,-1.4121,1.6604,0.6874,0.7008,0.1966,
20.184395,-1.5506,-1.4121,1.6604,0.6874,0.7008,0.1966,
20.185051,2.6717,1.6712,4.2670,0.6874,0.7008,0.1966,
20.236946,2.6717,1.6712,4.2670,1.1827,-0.1117,-0.3364,
20.245703,2.9019,-1.8353,0.5725,1.1827,-0.1117,-0.3364,
20.274649,2.9019,-1.8353,0.5725,1.1827,-0.1117,-0.3364,
20.275376,2.9019,-1.8353,0.5725,1.1827,-0.1117,-0.3364,
20.275601,2.9019,-1.8353,0.5725,1.1827,-0.1117,-0.3364,
20.275816,2.9019,-1.8353,0.5725,1.1827,-0.1117,-0.3364,
20.276031,2.9019,-1.8353,0.5725,1.1827,-0.1117,-0.3364,
20.300655,2.9019,-1.8353,0.5725,-0.0187,0.7029,-0.1121,
20.309992,-4.6327,5.5109,-2.2250,-0.0187,0.7029,-0.1121,
20.367550,-4.6327,5.5109,-2.2250,0.9594,-0.0167,-0.5366,
20.368196,-4.6327,5.5109,-2.2250,0.9594,-0.0167,-0.5366,
20.368393,-4.6327,5.5109,-2.2250,0.9594,-0.0167,-0.5366,
20.368579,-4.6327,5.5109,-2.2250,0.9594,-0.0167,-0.5366,
20.368770,-4.6327,5.5109,-2.2250,0.9594,-0.0167,-0.5366,
20.368951,-4.6327,5.5109,-2.2250,0.9594,-0.0167,-0.5366,
20.376151,-0.7564,-2.4084,1.8094,0.9594,-0.0167,-0.5366,
20.433836,-0.7564,-2.4084,1.8094,0.5848,0.6820,-0.3799,
20.443936,0.0147,-1.6591,-3.0179,0.5848,0.6820,-0.3799,
20.465330,0.0147,-1.6591,-3.0179,0.5848,0.6820,-0.3799,
20.466731,0.0147,-1.6591,-3.0179,0.5848,0.6820,-0.3799,
20.467487,0.0147,-1.6591,-3.0179,0.5848,0.6820,-0.3799,
20.468242,0.0147,-1.6591,-3.0179,0.5848,0.6820,-0.3799,
20.468986,0.0147,-1.6591,-3.0179,0.5848,0.6820,-0.3799,
20.501134,0.0147,-1.6591,-3.0179,0.4260,0.5917,0.5254,
20.510092,1.8951,1.8803,-1.8321,0.4260,0.5917,0.5254,
20.559618,1.8951,1.8803,-1.8321,0.4260,0.5917,0.5254,
20.560791,1.8951,1.8803,-1.8321,0.4260,0.5917,0.5254,
20.561379,1.8951,1.8803,-1.8321,0.4260,0.5917,0.5254,
20.561960,1.8951,1.8803,-1.8321,0.4260,0.5917,0.5254,
20.562666,1.8951,1.8803,-1.8321,0.4260,0.5917,0.5254,
20.567635,1.8951,1.8803,-1.8321,0.8490,-0.2387,0.4436,
20.576612,-1.5661,-0.7514,0.6683,0.8490,-0.2387,0.4436,
20.634293,-1.5661,-0.7514,0.6683,0.3112,0.1620,0.0194,
20.643424,-1.8169,-0.3991,-0.3264,0.3112,0.1620,0.0194,
20.652769,-1.8169,-0.3991,-0.3264,0.3112,0.1620,0.0194,
20.653131,-1.8169,-0.3991,-0.3264,0.3112,0.1620,0.0194,
20.653305,-1.8169,-0.3991,-0.3264,0.3112,0.1620,0.0194,
20.653535,-1.8169,-0.3991,-0.3264,0.3112,0.1620,0.0194,
20.653702,-1.8169,-0.3991,-0.3264,0.3112,0.1620,0.0194,
20.703199,-1.8169,-0.3991,-0.3264,0.8295,-0.4629,0.5659,
20.711772,0.4361,0.9519,0.3575,0.8295,-0.4629,0.5659,
20.753532,0.4361,0.9519,0.3575,0.8295,-0.4629,0.5659,
20.754990,0.4361,0.9519,0.3575,0.8295,-0.4629,0.5659,
20.755713,0.4361,0.9519,0.3575,0.8295,-0.4629,0.5659,
20.756421,0.4361,0.9519,0.3575,0.8295,-0.4629,0.5659,
20.757106,0.4361,0.9519,0.3575,0.8295,-0.4629,0.5659,
20.771441,0.4361,0.9519,0.3575,0.7579,-1.4106,0.3858,
20.775662,1.2208,-0.3985,2.0041,0.7579,-1.4106,0.3858,
20.839221,1.2208,-0.3985,2.0041,-0.0238,-1.0989,-0.0220,
20.846564,0.1127,0.1304,1.6883,-0.0238,-1.0989,-0.0220,
20.848718,0.1127,0.1304,1.6883,-0.0238,-1.0989,-0.0220,
20.850367,0.1127,0.1304,1.6883,-0.0238,-1.0989,-0.0220,
20.851961,0.1127,0.1304,1.6883,-0.0238,-1.0989,-0.0220,
20.853496,0.1127,0.1304,1.6883,-0.0238,-1.0989,-0.0220,
20.856974,0.1127,0.1304,1.6883,-0.0238,-1.0989,-0.0220,
20.892935,0.1127,0.1304,1.6883,-0.0238,-1.0989,-0.0220,
20.894802,0.1127,0.1304,1.6883,-0.0238,-1.0989,-0.0220,
20.901203,0.1127,0.1304,1.6883,-0.4162,-1.0845,-0.2019,
20.910532,0.9407,0.5791,1.3807,-0.4162,-1.0845,-0.2019,
20.940138,0.9407,0.5791,1.3807,-0.4162,-1.0845,-0.2019,
20.942536,0.9407,0.5791,1.3807,-0.4162,-1.0845,-0.2019,
20.968652,0.9407,0.5791,1.3807,-2.7810,-1.9402,0.4048,
20.978024,0.7198,2.3441,1.5972,-2.7810,-1.9402,0.4048,
21.017812,0.7198,2.3441,1.5972,-2.7810,-1.9402,0.4048,
21.020416,0.7198,2.3441,1.5972,-2.7810,-1.9402,0.4048,
21.021764,0.7198,2.3441,1.5972,-2.7810,-1.9402,0.4048,
21.023704,0.7198,2.3441,1.5972,-2.7810,-1.9402,0.4048,
21.025200,0.7198,2.3441,1.5972,-2.7810,-1.9402,0.4048,
21.036736,0.7198,2.3441,1.5972,-2.0213,-1.3688,0.2915,
21.045635,-2.8966,2.1511,-3.5615,-2.0213,-1.3688,0.2915,
21.053369,-2.8966,2.1511,-3.5615,-2.0213,-1.3688,0.2915,
21.102206,-2.8966,2.1511,-3.5615,-1.6733,0.5544,0.7475,
21.111849,-2.7680,1.4865,-3.8367,-1.6733,0.5544,0.7475,
21.133852,-2.7680,1.4865,-3.8367,-1.6733,0.5544,0.7475,
21.135096,-2.7680,1.4865,-3.8367,-1.6733,0.5544,0.7475,
21.135715,-2.7680,1.4865,-3.8367,-1.6733,0.5544,0.7475,
21.136327,-2.7680,1.4865,-3.8367,-1.6733,0.5544,0.7475,
21.136942,-2.7680,1.4865,-3.8367,-1.6733,0.5544,0.7475,
21.170010,-2.7680,1.4865,-3.8367,-1.0191,1.8417,0.3642,
21.175904,1.9421,-1.5117,-3.2291,-1.0191,1.8417,0.3642,
21.228444,1.9421,-1.5117,-3.2291,-1.0191,1.8417,0.3642,
21.231814,1.9421,-1.5117,-3.2291,-1.0191,1.8417,0.3642,
21.233651,1.9421,-1.5117,-3.2291,-1.0191,1.8417,0.3642,
21.236045,1.9421,-1.5117,-3.2291,-1.0191,1.8417,0.3642,
21.237837,1.9421,-1.5117,-3.2291,-1.0191,1.8417,0.3642,
21.241127,1.9421,-1.5117,-3.2291,0.9024,0.9323,-0.0139,
21.244778,-0.0202,-4.2594,-1.4226,0.9024,0.9323,-0.0139,
21.304764,-0.0202,-4.2594,-1.4226,1.2092,1.0728,-0.5774,
21.312319,-0.5726,-4.8810,2.1041,1.2092,1.0728,-0.5774,
21.322091,-0.5726,-4.8810,2.1041,1.2092,1.0728,-0.5774,
21.323334,-0.5726,-4.8810,2.1041,1.2092,1.0728,-0.5774,
21.324008,-0.5726,-4.8810,2.1041,1.2092,1.0728,-0.5774,
21.324649,-0.5726,-4.8810,2.1041,1.2092,1.0728,-0.5774,
21.325318,-0.5726,-4.8810,2.1041,1.2092,1.0728,-0.5774,
21.370413,-0.5726,-4.8810,2.1041,-0.3596,1.2833,0.1315,
21.378385,1.9378,3.5506,4.3564,-0.3596,1.2833,0.1315,
21.415721,1.9378,3.5506,4.3564,-0.3596,1.2833,0.1315,
21.419227,1.9378,3.5506,4.3564,-0.3596,1.2833,0.1315,
21.421165,1.9378,3.5506,4.3564,-0.3596,1.2833,0.1315,
21.424601,1.9378,3.5506,4.3564,-0.3596,1.2833,0.1315,
21.435302,1.9378,3.5506,4.3564,0.8005,0.0367,-0.2679,
21.445077,0.6049,0.8212,1.9128,0.8005,0.0367,-0.2679,
21.496972,0.6049,0.8212,1.9128,0.8005,0.0367,-0.2679,
21.498459,0.6049,0.8212,1.9128,0.8005,0.0367,-0.2679,
21.499214,0.6049,0.8212,1.9128,0.8005,0.0367,-0.2679,
21.499914,0.6049,0.8212,1.9128,0.8005,0.0367,-0.2679,
21.500582,0.6049,0.8212,1.9128,0.8005,0.0367,-0.2679,
21.501277,0.6049,0.8212,1.9128,0.5038,0.1746,-0.3700,
21.511444,-5.2465,3.0288,-1.7866,0.5038,0.1746,-0.3700,
21.568940,-5.2465,3.0288,-1.7866,1.0563,0.0055,-0.3902,
21.575603,1.6835,-1.5796,-0.6307,1.0563,0.0055,-0.3902,
21.588330,1.6835,-1.5796,-0.6307,1.0563,0.0055,-0.3902,
21.589590,1.6835,-1.5796,-0.6307,1.0563,0.0055,-0.3902,
21.590297,1.6835,-1.5796,-0.6307,1.0563,0.0055,-0.3902,
21.590715,1.6835,-1.5796,-0.6307,1.0563,0.0055,-0.3902,
21.591033,1.6835,-1.5796,-0.6307,1.0563,0.0055,-0.3902,
21.636475,1.6835,-1.5796,-0.6307,0.9534,-0.2689,-0.0694,
21.645554,0.6040,-1.2327,-2.2550,0.9534,-0.2689,-0.0694,
21.683245,0.6040,-1.2327,-2.2550,0.9534,-0.2689,-0.0694,
21.686405,0.6040,-1.2327,-2.2550,0.9534,-0.2689,-0.0694,
21.688333,0.6040,-1.2327,-2.2550,0.9534,-0.2689,-0.0694,
21.690213,0.6040,-1.2327,-2.2550,0.9534,-0.2689,-0.0694,
21.692098,0.6040,-1.2327,-2.2550,0.9534,-0.2689,-0.0694,
21.701878,0.6040,-1.2327,-2.2550,0.1607,0.3920,0.4084,
21.712335,1.4852,1.6795,-1.4254,0.1607,0.3920,0.4084,
21.768933,1.4852,1.6795,-1.4254,0.7603,-0.1154,0.5015,
21.777179,1.4852,1.6795,-1.4254,0.7603,-0.1154,0.5015,
21.778347,1.4852,1.6795,-1.4254,0.7603,-0.1154,0.5015,
21.779060,1.4852,1.6795,-1.4254,0.7603,-0.1154,0.5015,
21.779674,1.4852,1.6795,-1.4254,0.7603,-0.1154,0.5015,
21.780341,1.4852,1.6795,-1.4254,0.7603,-0.1154,0.5015,
21.781035,-0.4542,-0.3194,0.1614,0.7603,-0.1154,0.5015,
21.833100,-0.4542,-0.3194,0.1614,0.3200,0.0641,0.1160,
21.842617,-1.0710,-0.2575,0.7594,0.3200,0.0641,0.1160,
21.871674,-1.0710,-0.2575,0.7594,0.3200,0.0641,0.1160,
21.872280,-1.0710,-0.2575,0.7594,0.3200,0.0641,0.1160,
21.872448,-1.0710,-0.2575,0.7594,0.3200,0.0641,0.1160,
21.872773,-1.0710,-0.2575,0.7594,0.3200,0.0641,0.1160,
21.872945,-1.0710,-0.2575,0.7594,0.3200,0.0641,0.1160,
21.899507,-1.0710,-0.2575,0.7594,0.2864,-0.8367,0.2169,
21.909311,0.3053,0.4667,2.5053,0.2864,-0.8367,0.2169,
21.969969,0.3053,0.4667,2.5053,-0.4180,-0.9840,0.1095,
21.973589,0.3053,0.4667,2.5053,-0.4180,-0.9840,0.1095,
21.976073,0.3053,0.4667,2.5053,-0.4180,-0.9840,0.1095,
21.977711,0.3053,0.4667,2.5053,-0.4180,-0.9840,0.1095,
21.979227,0.3053,0.4667,2.5053,-0.4180,-0.9840,0.1095,
21.979870,0.3053,0.4667,2.5053,-0.4180,-0.9840,0.1095,
21.980515,0.9175,0.2594,2.7641,-0.4180,-0.9840,0.1095,
22.008050,0.9175,0.2594,2.7641,-0.4180,-0.9840,0.1095,
22.034075,0.9175,0.2594,2.7641,-3.2913,-1.3144,0.1703,
22.043022,1.9620,1.0089,2.6656,-3.2913,-1.3144,0.1703,
22.086407,1.9620,1.0089,2.6656,-3.2913,-1.3144,0.1703,
22.087905,1.9620,1.0089,2.6656,-3.2913,-1.3144,0.1703,
22.088611,1.9620,1.0089,2.6656,-3.2913,-1.3144,0.1703,
22.089299,1.9620,1.0089,2.6656,-3.2913,-1.3144,0.1703,
22.089991,1.9620,1.0089,2.6656,-3.2913,-1.3144,0.1703,
22.102989,1.9620,1.0089,2.6656,-1.1403,-0.4054,0.2923,
22.109416,-3.9047,3.9523,-5.7717,-1.1403,-0.4054,0.2923,
22.168681,-3.9047,3.9523,-5.7717,-1.1886,0.5286,0.2639,
22.179502,-2.4559,0.4292,-2.6364,-1.1886,0.5286,0.2639,
22.180921,-2.4559,0.4292,-2.6364,-1.1886,0.5286,0.2639,
22.181596,-2.4559,0.4292,-2.6364,-1.1886,0.5286,0.2639,
22.182393,-2.4559,0.4292,-2.6364,-1.1886,0.5286,0.2639,
22.183055,-2.4559,0.4292,-2.6364,-1.1886,0.5286,0.2639,
22.183699,-2.4559,0.4292,-2.6364,-1.1886,0.5286,0.2639,
22.235241,-2.4559,0.4292,-2.6364,-0.5076,0.7247,0.2304,
22.244042,1.8142,-2.0121,-1.4704,-0.5076,0.7247,0.2304,
22.274975,1.8142,-2.0121,-1.4704,-0.5076,0.7247,0.2304,
22.277978,1.8142,-2.0121,-1.4704,-0.5076,0.7247,0.2304,
22.279427,1.8142,-2.0121,-1.4704,-0.5076,0.7247,0.2304,
22.280101,1.8142,-2.0121,-1.4704,-0.5076,0.7247,0.2304,
22.280744,1.8142,-2.0121,-1.4704,-0.5076,0.7247,0.2304,
22.305253,1.8142,-2.0121,-1.4704,0.4103,1.0900,0.0664,
22.309928,-0.4652,-3.2652,-1.7561,0.4103,1.0900,0.0664,
22.369561,-0.4652,-3.2652,-1.7561,0.8070,0.0242,-0.2052,
22.373174,-0.4652,-3.2652,-1.7561,0.8070,0.0242,-0.2052,
22.375149,-0.4652,-3.2652,-1.7561,0.8070,0.0242,-0.2052,
22.375814,-0.4652,-3.2652,-1.7561,0.8070,0.0242,-0.2052,
22.376444,-0.4652,-3.2652,-1.7561,0.8070,0.0242,-0.2052,
22.377071,-0.4652,-3.2652,-1.7561,0.8070,0.0242,-0.2052,
22.377716,-0.3299,-1.8590,0.6903,0.8070,0.0242,-0.2052,
22.434466,-0.3299,-1.8590,0.6903,0.4355,1.2769,-0.3286,
22.442893,0.3394,0.1729,2.5688,0.4355,1.2769,-0.3286,
22.461645,0.3394,0.1729,2.5688,0.4355,1.2769,-0.3286,
22.462091,0.3394,0.1729,2.5688,0.4355,1.2769,-0.3286,
22.462313,0.3394,0.1729,2.5688,0.4355,1.2769,-0.3286,
22.462584,0.3394,0.1729,2.5688,0.4355,1.2769,-0.3286,
22.462859,0.3394,0.1729,2.5688,0.4355,1.2769,-0.3286,
22.503107,0.3394,0.1729,2.5688,0.8881,0.5941,-0.1820,
22.504859,0.3394,0.1729,2.5688,0.8881,0.5941,-0.1820,
22.505504,0.3394,0.1729,2.5688,0.8881,0.5941,-0.1820,
22.510800,2.5458,0.3329,3.2524,0.8881,0.5941,-0.1820,
22.566830,2.5458,0.3329,3.2524,-0.2700,0.7467,-0.1741,
22.575841,-2.4266,1.9221,-2.5703,-0.2700,0.7467,-0.1741,
22.596377,-2.4266,1.9221,-2.5703,-0.2700,0.7467,-0.1741,
22.597946,-2.4266,1.9221,-2.5703,-0.2700,0.7467,-0.1741,
22.599676,-2.4266,1.9221,-2.5703,-0.2700,0.7467,-0.1741,
22.600299,-2.4266,1.9221,-2.5703,-0.2700,0.7467,-0.1741,
22.600916,-2.4266,1.9221,-2.5703,-0.2700,0.7467,-0.1741,
22.635251,-2.4266,1.9221,-2.5703,0.4002,0.2001,-0.2266,
22.644428,-1.9700,2.7081,2.6678,0.4002,0.2001,-0.2266,
22.693857,-1.9700,2.7081,2.6678,0.4002,0.2001,-0.2266,
22.696239,-1.9700,2.7081,2.6678,0.4002,0.2001,-0.2266,
22.697630,-1.9700,2.7081,2.6678,0.4002,0.2001,-0.2266,
22.699122,-1.9700,2.7081,2.6678,0.4002,0.2001,-0.2266,
22.700511,-1.9700,2.7081,2.6678,0.4002,0.2001,-0.2266,
22.701968,-1.9700,2.7081,2.6678,0.8431,0.3768,-0.0727,
22.712013,0.6574,-1.7046,-3.8840,0.8431,0.3768,-0.0727,
22.768722,0.6574,-1.7046,-3.8840,0.2891,0.0428,0.3495,
22.776702,1.7336,0.5032,-0.4869,0.2891,0.0428,0.3495,
22.787578,1.7336,0.5032,-0.4869,0.2891,0.0428,0.3495,
22.788587,1.7336,0.5032,-0.4869,0.2891,0.0428,0.3495,
22.789227,1.7336,0.5032,-0.4869,0.2891,0.0428,0.3495,
22.789840,1.7336,0.5032,-0.4869,0.2891,0.0428,0.3495,
22.790614,1.7336,0.5032,-0.4869,0.2891,0.0428,0.3495,
22.835653,1.7336,0.5032,-0.4869,0.2519,-0.0047,0.3904,
22.844231,0.6780,0.1176,-0.0801,0.2519,-0.0047,0.3904,
22.884324,0.6780,0.1176,-0.0801,0.2519,-0.0047,0.3904,
22.887228,0.6780,0.1176,-0.0801,0.2519,-0.0047,0.3904,
22.889092,0.6780,0.1176,-0.0801,0.2519,-0.0047,0.3904,
22.891253,0.6780,0.1176,-0.0801,0.2519,-0.0047,0.3904,
22.893088,0.6780,0.1176,-0.0801,0.2519,-0.0047,0.3904,
22.899002,0.6780,0.1176,-0.0801,0.0213,0.1360,0.0440,
22.910461,-1.1834,-0.3617,0.1151,0.0213,0.1360,0.0440,
22.968941,-1.1834,-0.3617,0.1151,-0.1225,0.1359,0.0774,
22.978136,-1.1834,-0.3617,0.1151,-0.1225,0.1359,0.0774,
22.979192,-1.1834,-0.3617,0.1151,-0.1225,0.1359,0.0774,
22.979850,-1.1834,-0.3617,0.1151,-0.1225,0.1359,0.0774,
22.980722,-1.1834,-0.3617,0.1151,-0.1225,0.1359,0.0774,
22.981332,-1.1834,-0.3617,0.1151,-0.1225,0.1359,0.0774,
22.981977,-0.1836,-0.0912,0.6477,-0.1225,0.1359,0.0774,
23.035894,-0.1836,-0.0912,0.6477,-0.5580,-0.9879,0.0878,
23.043288,0.9687,0.2769,2.8989,-0.5580,-0.9879,0.0878,
23.072077,0.9687,0.2769,2.8989,-0.5580,-0.9879,0.0878,
23.074369,0.9687,0.2769,2.8989,-0.5580,-0.9879,0.0878,
23.075568,0.9687,0.2769,2.8989,-0.5580,-0.9879,0.0878,
23.076652,0.9687,0.2769,2.8989,-0.5580,-0.9879,0.0878,
23.077966,0.9687,0.2769,2.8989,-0.5580,-0.9879,0.0878,
23.101436,0.9687,0.2769,2.8989,-1.8957,-0.7698,-0.4349,
23.110821,-0.0784,-0.6320,1.6832,-1.8957,-0.7698,-0.4349,
23.132130,-0.0784,-0.6320,1.6832,-1.8957,-0.7698,-0.4349,
23.133348,-0.0784,-0.6320,1.6832,-1.8957,-0.7698,-0.4349,
23.133949,-0.0784,-0.6320,1.6832,-1.8957,-0.7698,-0.4349,
23.168440,-0.0784,-0.6320,1.6832,-2.8061,-0.4313,-0.6647,
23.176460,0.1657,2.7149,0.1205,-2.8061,-0.4313,-0.6647,
23.227663,0.1657,2.7149,0.1205,-2.8061,-0.4313,-0.6647,
23.231241,0.1657,2.7149,0.1205,-2.8061,-0.4313,-0.6647,
23.234071,0.1657,2.7149,0.1205,-2.8061,-0.4313,-0.6647,
23.236123,0.1657,2.7149,0.1205,-2.8061,-0.4313,-0.6647,
23.237699,0.1657,2.7149,0.1205,-2.8061,-0.4313,-0.6647,
23.240999,0.1657,2.7149,0.1205,-1.2199,0.7522,-0.4908,
23.243855,-2.6824,3.3851,-4.8710,-1.2199,0.7522,-0.4908,
23.303410,-2.6824,3.3851,-4.8710,-0.3251,0.8463,-0.3248,
23.310211,0.8526,-0.8270,-1.9343,-0.3251,0.8463,-0.3248,
23.320794,0.8526,-0.8270,-1.9343,-0.3251,0.8463,-0.3248,
23.321900,0.8526,-0.8270,-1.9343,-0.3251,0.8463,-0.3248,
23.322777,0.8526,-0.8270,-1.9343,-0.3251,0.8463,-0.3248,
23.323395,0.8526,-0.8270,-1.9343,-0.3251,0.8463,-0.3248,
23.324021,0.8526,-0.8270,-1.9343,-0.3251,0.8463,-0.3248,
23.368551,0.8526,-0.8270,-1.9343,0.4336,0.8034,-0.2141,
23.377562,1.5158,-3.3877,-1.8194,0.4336,0.8034,-0.2141,
23.416432,1.5158,-3.3877,-1.8194,0.4336,0.8034,-0.2141,
23.417723,1.5158,-3.3877,-1.8194,0.4336,0.8034,-0.2141,
23.418542,1.5158,-3.3877,-1.8194,0.4336,0.8034,-0.2141,
23.419224,1.5158,-3.3877,-1.8194,0.4336,0.8034,-0.2141,
23.419862,1.5158,-3.3877,-1.8194,0.4336,0.8034,-0.2141,
23.433827,1.5158,-3.3877,-1.8194,0.8139,0.0715,0.1713,
23.443217,0.6679,-1.8690,-1.3396,0.8139,0.0715,0.1713,
23.502679,0.6679,-1.8690,-1.3396,1.4198,-0.7558,0.5008,
23.511076,-0.8977,-0.0421,1.1648,1.4198,-0.7558,0.5008,
23.511600,-0.8977,-0.0421,1.1648,1.4198,-0.7558,0.5008,
23.511827,-0.8977,-0.0421,1.1648,1.4198,-0.7558,0.5008,
23.512036,-0.8977,-0.0421,1.1648,1.4198,-0.7558,0.5008,
23.512252,-0.8977,-0.0421,1.1648,1.4198,-0.7558,0.5008,
23.512463,-0.8977,-0.0421,1.1648,1.4198,-0.7558,0.5008,
23.565062,-0.8977,-0.0421,1.1648,1.5140,-0.4049,0.3209,
23.574285,-1.3760,-0.6387,2.8984,1.5140,-0.4049,0.3209,
23.587016,-1.3760,-0.6387,2.8984,1.5140,-0.4049,0.3209,
23.588188,-1.3760,-0.6387,2.8984,1.5140,-0.4049,0.3209,
23.588857,-1.3760,-0.6387,2.8984,1.5140,-0.4049,0.3209,
23.636505,-1.3760,-0.6387,2.8984,0.3105,0.2313,0.2379,
23.643668,-0.4316,1.6068,2.0325,0.3105,0.2313,0.2379,
23.662926,-0.4316,1.6068,2.0325,0.3105,0.2313,0.2379,
23.664115,-0.4316,1.6068,2.0325,0.3105,0.2313,0.2379,
23.664730,-0.4316,1.6068,2.0325,0.3105,0.2313,0.2379,
23.665297,-0.4316,1.6068,2.0325,0.3105,0.2313,0.2379,
23.665887,-0.4316,1.6068,2.0325,0.3105,0.2313,0.2379,
23.699380,-0.4316,1.6068,2.0325,0.1642,-0.5488,0.0650,
23.708286,-0.8964,1.2799,2.9612,0.1642,-0.5488,0.0650,
23.755800,-0.8964,1.2799,2.9612,0.1642,-0.5488,0.0650,
23.756391,-0.8964,1.2799,2.9612,0.1642,-0.5488,0.0650,
23.756561,-0.8964,1.2799,2.9612,0.1642,-0.5488,0.0650,
23.756723,-0.8964,1.2799,2.9612,0.1642,-0.5488,0.0650,
23.756886,-0.8964,1.2799,2.9612,0.1642,-0.5488,0.0650,
23.764884,-0.8964,1.2799,2.9612,0.6771,-0.8050,-0.1545,
23.774448,-0.7454,1.0967,0.5443,0.6771,-0.8050,-0.1545,
23.832159,-0.7454,1.0967,0.5443,0.9521,0.6962,-0.1112,
23.841677,1.0606,-1.5793,-3.7740,0.9521,0.6962,-0.1112,
23.852268,1.0606,-1.5793,-3.7740,0.9521,0.6962,-0.1112,
23.852841,1.0606,-1.5793,-3.7740,0.9521,0.6962,-0.1112,
23.853183,1.0606,-1.5793,-3.7740,0.9521,0.6962,-0.1112,
23.853514,1.0606,-1.5793,-3.7740,0.9521,0.6962,-0.1112,
23.853876,1.0606,-1.5793,-3.7740,0.9521,0.6962,-0.1112,
23.898302,1.0606,-1.5793,-3.7740,0.9745,-0.7388,0.2808,
23.908275,1.1843,0.5202,1.4570,0.9745,-0.7388,0.2808,
23.950182,1.1843,0.5202,1.4570,0.9745,-0.7388,0.2808,
23.953080,1.1843,0.5202,1.4570,0.9745,-0.7388,0.2808,
23.954838,1.1843,0.5202,1.4570,0.9745,-0.7388,0.2808,
23.956602,1.1843,0.5202,1.4570,0.9745,-0.7388,0.2808,
23.958742,1.1843,0.5202,1.4570,0.9745,-0.7388,0.2808,
23.966929,1.1843,0.5202,1.4570,0.0880,0.3167,0.3400,
23.975271,1.5601,0.9673,-0.2468,0.0880,0.3167,0.3400,
24.033693,1.5601,0.9673,-0.2468,0.1688,0.7450,0.2951,
24.042470,1.5601,0.9673,-0.2468,0.1688,0.7450,0.2951,
24.043395,1.5601,0.9673,-0.2468,0.1688,0.7450,0.2951,
24.043992,1.5601,0.9673,-0.2468,0.1688,0.7450,0.2951,
24.044656,1.5601,0.9673,-0.2468,0.1688,0.7450,0.2951,
24.045270,1.5601,0.9673,-0.2468,0.1688,0.7450,0.2951,
24.045880,0.3347,-0.3679,-1.3969,0.1688,0.7450,0.2951,
24.101508,0.3347,-0.3679,-1.3969,0.5220,0.6402,0.2180,
24.109778,-0.0990,-0.5578,-1.0068,0.5220,0.6402,0.2180,
24.139260,-0.0990,-0.5578,-1.0068,0.5220,0.6402,0.2180,
24.140335,-0.0990,-0.5578,-1.0068,0.5220,0.6402,0.2180,
24.140932,-0.0990,-0.5578,-1.0068,0.5220,0.6402,0.2180,
24.141539,-0.0990,-0.5578,-1.0068,0.5220,0.6402,0.2180,
24.142137,-0.0990,-0.5578,-1.0068,0.5220,0.6402,0.2180,
24.167532,-0.0990,-0.5578,-1.0068,0.8777,-0.6334,0.0707,
24.174781,-1.1326,-0.2395,1.5724,0.8777,-0.6334,0.0707,
24.233540,-1.1326,-0.2395,1.5724,0.5439,-0.8942,-0.1432,
24.237340,-1.1326,-0.2395,1.5724,0.5439,-0.8942,-0.1432,
24.239989,-1.1326,-0.2395,1.5724,0.5439,-0.8942,-0.1432,
24.240700,-1.1326,-0.2395,1.5724,0.5439,-0.8942,-0.1432,
24.241362,-1.1326,-0.2395,1.5724,0.5439,-0.8942,-0.1432,
24.241999,-1.1326,-0.2395,1.5724,0.5439,-0.8942,-0.1432,
24.242825,-0.6039,-0.3203,2.9246,0.5439,-0.8942,-0.1432,
24.300024,-0.6039,-0.3203,2.9246,0.4305,-0.7348,-0.0650,
24.309719,0.7063,0.5645,1.1224,0.4305,-0.7348,-0.0650,
24.331367,0.7063,0.5645,1.1224,0.4305,-0.7348,-0.0650,
24.333829,0.7063,0.5645,1.1224,0.4305,-0.7348,-0.0650,
24.335356,0.7063,0.5645,1.1224,0.4305,-0.7348,-0.0650,
24.335967,0.7063,0.5645,1.1224,0.4305,-0.7348,-0.0650,
24.368527,0.7063,0.5645,1.1224,-2.4709,-1.0898,0.0376,
24.376951,1.2438,1.8796,-0.0159,-2.4709,-1.0898,0.0376,
24.405829,1.2438,1.8796,-0.0159,-2.4709,-1.0898,0.0376,
24.407468,1.2438,1.8796,-0.0159,-2.4709,-1.0898,0.0376,
24.407777,1.2438,1.8796,-0.0159,-2.4709,-1.0898,0.0376,
24.408032,1.2438,1.8796,-0.0159,-2.4709,-1.0898,0.0376,
24.409960,1.2438,1.8796,-0.0159,-2.4709,-1.0898,0.0376,
24.431802,1.2438,1.8796,-0.0159,-3.5028,-1.1874,-0.5751,
24.442877,-1.8790,3.3659,-0.0794,-3.5028,-1.1874,-0.5751,
24.501711,-1.8790,3.3659,-0.0794,-1.1165,1.3199,-0.4819,
24.503238,-1.8790,3.3659,-0.0794,-1.1165,1.3199,-0.4819,
24.503583,-1.8790,3.3659,-0.0794,-1.1165,1.3199,-0.4819,
24.503900,-1.8790,3.3659,-0.0794,-1.1165,1.3199,-0.4819,
24.504224,-1.8790,3.3659,-0.0794,-1.1165,1.3199,-0.4819,
24.504544,-1.8790,3.3659,-0.0794,-1.1165,1.3199,-0.4819,
24.509036,-1.8570,-1.1183,-7.0359,-1.1165,1.3199,-0.4819,
24.564986,-1.8570,-1.1183,-7.0359,-0.7737,0.5877,0.1547,
24.573819,1.3605,0.0484,-0.9051,-0.7737,0.5877,0.1547,
24.593290,1.3605,0.0484,-0.9051,-0.7737,0.5877,0.1547,
24.593697,1.3605,0.0484,-0.9051,-0.7737,0.5877,0.1547,
24.593894,1.3605,0.0484,-0.9051,-0.7737,0.5877,0.1547,
24.594074,1.3605,0.0484,-0.9051,-0.7737,0.5877,0.1547,
24.594314,1.3605,0.0484,-0.9051,-0.7737,0.5877,0.1547,
24.631022,1.3605,0.0484,-0.9051,0.2947,0.5915,0.5053,
24.640441,0.2535,-2.1178,-2.2678,0.2947,0.5915,0.5053,
24.691895,0.2535,-2.1178,-2.2678,0.2947,0.5915,0.5053,
24.692712,0.2535,-2.1178,-2.2678,0.2947,0.5915,0.5053,
24.692954,0.2535,-2.1178,-2.2678,0.2947,0.5915,0.5053,
24.693183,0.2535,-2.1178,-2.2678,0.2947,0.5915,0.5053,
24.693409,0.2535,-2.1178,-2.2678,0.2947,0.5915,0.5053,
24.698005,0.2535,-2.1178,-2.2678,1.0577,0.2669,0.7833,
24.707712,0.0968,-2.3456,0.2686,1.0577,0.2669,0.7833,
24.765504,0.0968,-2.3456,0.2686,0.2524,1.7965,0.1661,
24.774364,-0.2170,-0.7731,3.2834,0.2524,1.7965,0.1661,
24.783992,-0.2170,-0.7731,3.2834,0.2524,1.7965,0.1661,
24.784415,-0.2170,-0.7731,3.2834,0.2524,1.7965,0.1661,
24.784680,-0.2170,-0.7731,3.2834,0.2524,1.7965,0.1661,
24.784944,-0.2170,-0.7731,3.2834,0.2524,1.7965,0.1661,
24.785205,-0.2170,-0.7731,3.2834,0.2524,1.7965,0.1661,
24.834131,-0.2170,-0.7731,3.2834,0.1758,1.0822,0.1328,
24.843064,-0.2170,-0.7731,3.2834,0.1758,1.0822,0.1328,
24.844033,-0.2170,-0.7731,3.2834,0.1758,1.0822,0.1328,
24.844707,0.0992,0.4751,5.1750,0.1758,1.0822,0.1328,
24.897844,0.0992,0.4751,5.1750,0.1060,0.6012,0.1366,
24.909199,-1.0885,1.1467,-2.2525,0.1060,0.6012,0.1366,
24.919160,-1.0885,1.1467,-2.2525,0.1060,0.6012,0.1366,
24.920193,-1.0885,1.1467,-2.2525,0.1060,0.6012,0.1366,
24.920759,-1.0885,1.1467,-2.2525,0.1060,0.6012,0.1366,
24.921293,-1.0885,1.1467,-2.2525,0.1060,0.6012,0.1366,
24.921809,-1.0885,1.1467,-2.2525,0.1060,0.6012,0.1366,
24.967301,-1.0885,1.1467,-2.2525,0.7598,-0.6685,0.0906,
24.974179,-2.2582,1.4390,-0.6238,0.7598,-0.6685,0.0906,
25.017278,-2.2582,1.4390,-0.6238,0.7598,-0.6685,0.0906,
25.018845,-2.2582,1.4390,-0.6238,0.7598,-0.6685,0.0906,
25.019548,-2.2582,1.4390,-0.6238,0.7598,-0.6685,0.0906,
25.020259,-2.2582,1.4390,-0.6238,0.7598,-0.6685,0.0906,
25.020924,-2.2582,1.4390,-0.6238,0.7598,-0.6685,0.0906,
25.032586,-2.2582,1.4390,-0.6238,1.1658,-0.4184,0.1137,
25.041104,1.7609,-0.8835,-2.9555,1.1658,-0.4184,0.1137,
25.102501,1.7609,-0.8835,-2.9555,0.7960,-0.2452,0.3621,
25.110159,0.7341,0.5938,-0.5603,0.7960,-0.2452,0.3621,
25.111659,0.7341,0.5938,-0.5603,0.7960,-0.2452,0.3621,
25.112313,0.7341,0.5938,-0.5603,0.7960,-0.2452,0.3621,
25.112974,0.7341,0.5938,-0.5603,0.7960,-0.2452,0.3621,
25.113587,0.7341,0.5938,-0.5603,0.7960,-0.2452,0.3621,
25.114264,0.7341,0.5938,-0.5603,0.7960,-0.2452,0.3621,
25.169361,0.7341,0.5938,-0.5603,0.6492,-0.3285,0.2988,
25.174286,0.0328,-0.0056,-0.7735,0.6492,-0.3285,0.2988,
25.204490,0.0328,-0.0056,-0.7735,0.6492,-0.3285,0.2988,
25.205861,0.0328,-0.0056,-0.7735,0.6492,-0.3285,0.2988,
25.206583,0.0328,-0.0056,-0.7735,0.6492,-0.3285,0.2988,
25.206986,0.0328,-0.0056,-0.7735,0.6492,-0.3285,0.2988,
25.207365,0.0328,-0.0056,-0.7735,0.6492,-0.3285,0.2988,
25.231498,0.0328,-0.0056,-0.7735,0.5205,-0.5753,0.1500,
25.240927,-0.6771,-0.0474,0.3811,0.5205,-0.5753,0.1500,
25.297811,-0.6771,-0.0474,0.3811,0.5205,-0.5753,0.1500,
25.298410,-0.6771,-0.0474,0.3811,0.5205,-0.5753,0.1500,
25.298661,-0.6771,-0.0474,0.3811,0.5205,-0.5753,0.1500,
25.298873,-0.6771,-0.0474,0.3811,0.5205,-0.5753,0.1500,
25.299074,-0.6771,-0.0474,0.3811,0.5205,-0.5753,0.1500,
25.299283,-0.6771,-0.0474,0.3811,0.4916,-0.7536,0.1481,
25.306913,0.2847,0.1112,0.6475,0.4916,-0.7536,0.1481,
25.363930,0.2847,0.1112,0.6475,0.6657,-1.1501,0.2545,
25.371091,0.2847,0.1112,0.6475,0.6657,-1.1501,0.2545,
25.371344,0.2847,0.1112,0.6475,0.6657,-1.1501,0.2545,
25.371538,0.2847,0.1112,0.6475,0.6657,-1.1501,0.2545,
25.373041,0.5384,0.3139,0.9631,0.6657,-1.1501,0.2545,
25.436280,0.5384,0.3139,0.9631,0.7696,-0.8331,0.1500,
25.442410,0.4189,-0.0929,1.4976,0.7696,-0.8331,0.1500,
25.452991,0.4189,-0.0929,1.4976,0.7696,-0.8331,0.1500,
25.453971,0.4189,-0.0929,1.4976,0.7696,-0.8331,0.1500,
25.454749,0.4189,-0.0929,1.4976,0.7696,-0.8331,0.1500,
25.455379,0.4189,-0.0929,1.4976,0.7696,-0.8331,0.1500,
25.456019,0.4189,-0.0929,1.4976,0.7696,-0.8331,0.1500,
25.502115,0.4189,-0.0929,1.4976,0.5162,-0.5845,0.0500,
25.509480,0.9657,0.1366,1.6153,0.5162,-0.5845,0.0500,
25.546719,0.9657,0.1366,1.6153,0.5162,-0.5845,0.0500,
25.548107,0.9657,0.1366,1.6153,0.5162,-0.5845,0.0500,
25.548861,0.9657,0.1366,1.6153,0.5162,-0.5845,0.0500,
25.549617,0.9657,0.1366,1.6153,0.5162,-0.5845,0.0500,
25.550588,0.9657,0.1366,1.6153,0.5162,-0.5845,0.0500,
25.564623,0.9657,0.1366,1.6153,-0.4506,-0.5382,-0.1594,
25.576171,0.6703,0.8411,2.1354,-0.4506,-0.5382,-0.1594,
25.583424,0.6703,0.8411,2.1354,-0.4506,-0.5382,-0.1594,
25.633772,0.6703,0.8411,2.1354,-3.6907,0.3935,-0.5668,
25.642430,0.7355,2.3111,-0.4395,-3.6907,0.3935,-0.5668,
25.662557,0.7355,2.3111,-0.4395,-3.6907,0.3935,-0.5668,
25.665190,0.7355,2.3111,-0.4395,-3.6907,0.3935,-0.5668,
25.666936,0.7355,2.3111,-0.4395,-3.6907,0.3935,-0.5668,
25.668318,0.7355,2.3111,-0.4395,-3.6907,0.3935,-0.5668,
25.669791,0.7355,2.3111,-0.4395,-3.6907,0.3935,-0.5668,
25.700149,0.7355,2.3111,-0.4395,-2.1328,-0.5169,-0.4996,
25.709588,-2.1012,1.1124,-3.9563,-2.1328,-0.5169,-0.4996,
25.757018,-2.1012,1.1124,-3.9563,-2.1328,-0.5169,-0.4996,
25.758496,-2.1012,1.1124,-3.9563,-2.1328,-0.5169,-0.4996,
25.759158,-2.1012,1.1124,-3.9563,-2.1328,-0.5169,-0.4996,
25.759746,-2.1012,1.1124,-3.9563,-2.1328,-0.5169,-0.4996,
25.760362,-2.1012,1.1124,-3.9563,-2.1328,-0.5169,-0.4996,
25.764474,-2.1012,1.1124,-3.9563,-1.0721,-0.1895,0.0131,
25.774023,-0.6251,-0.1037,-1.5332,-1.0721,-0.1895,0.0131,
25.831940,-0.6251,-0.1037,-1.5332,-0.5201,0.8351,0.3901,
25.841272,1.4596,0.1130,-2.1944,-0.5201,0.8351,0.3901,
25.852629,1.4596,0.1130,-2.1944,-0.5201,0.8351,0.3901,
25.853607,1.4596,0.1130,-2.1944,-0.5201,0.8351,0.3901,
25.854420,1.4596,0.1130,-2.1944,-0.5201,0.8351,0.3901,
25.855109,1.4596,0.1130,-2.1944,-0.5201,0.8351,0.3901,
25.855744,1.4596,0.1130,-2.1944,-0.5201,0.8351,0.3901,
25.897575,1.4596,0.1130,-2.1944,0.4864,0.5164,0.3089,
25.908880,-0.1067,-2.3671,-1.5368,0.4864,0.5164,0.3089,
25.949537,-0.1067,-2.3671,-1.5368,0.4864,0.5164,0.3089,
25.953256,-0.1067,-2.3671,-1.5368,0.4864,0.5164,0.3089,
25.955347,-0.1067,-2.3671,-1.5368,0.4864,0.5164,0.3089,
25.957209,-0.1067,-2.3671,-1.5368,0.4864,0.5164,0.3089,
25.958977,-0.1067,-2.3671,-1.5368,0.4864,0.5164,0.3089,
25.965715,-0.1067,-2.3671,-1.5368,0.8958,0.3612,0.1082,
25.977232,-0.0589,-2.3997,0.1600,0.8958,0.3612,0.1082,
26.034584,-0.0589,-2.3997,0.1600,0.2268,1.1019,-0.1415,
26.041137,-0.6308,-0.2804,1.1900,0.2268,1.1019,-0.1415,
26.042419,-0.6308,-0.2804,1.1900,0.2268,1.1019,-0.1415,
26.043074,-0.6308,-0.2804,1.1900,0.2268,1.1019,-0.1415,
26.043679,-0.6308,-0.2804,1.1900,0.2268,1.1019,-0.1415,
26.044285,-0.6308,-0.2804,1.1900,0.2268,1.1019,-0.1415,
26.044899,-0.6308,-0.2804,1.1900,0.2268,1.1019,-0.1415,
26.097439,-0.6308,-0.2804,1.1900,0.1600,0.9688,-0.0333,
26.106615,0.4753,0.9382,3.1374,0.1600,0.9688,-0.0333,
26.116341,0.4753,0.9382,3.1374,0.1600,0.9688,-0.0333,
26.116767,0.4753,0.9382,3.1374,0.1600,0.9688,-0.0333,
26.117001,0.4753,0.9382,3.1374,0.1600,0.9688,-0.0333,
26.164487,0.4753,0.9382,3.1374,0.6136,0.0505,0.2042,
26.173363,0.3607,-0.1787,0.8191,0.6136,0.0505,0.2042,
26.192927,0.3607,-0.1787,0.8191,0.6136,0.0505,0.2042,
26.194326,0.3607,-0.1787,0.8191,0.6136,0.0505,0.2042,
26.195372,0.3607,-0.1787,0.8191,0.6136,0.0505,0.2042,
26.196249,0.3607,-0.1787,0.8191,0.6136,0.0505,0.2042,
26.197079,0.3607,-0.1787,0.8191,0.6136,0.0505,0.2042,
26.230161,0.3607,-0.1787,0.8191,0.5137,-0.0182,0.1093,
26.239824,-3.6513,3.8186,-2.8323,0.5137,-0.0182,0.1093,
26.288223,-3.6513,3.8186,-2.8323,0.5137,-0.0182,0.1093,
26.288776,-3.6513,3.8186,-2.8323,0.5137,-0.0182,0.1093,
26.288961,-3.6513,3.8186,-2.8323,0.5137,-0.0182,0.1093,
26.289145,-3.6513,3.8186,-2.8323,0.5137,-0.0182,0.1093,
26.289330,-3.6513,3.8186,-2.8323,0.5137,-0.0182,0.1093,
26.296184,-3.6513,3.8186,-2.8323,0.6391,0.5527,-0.3872,
