
time,ax,ay,az,wx,wy,wz,
0.030987,0.0000,0.0000,0.0000,-0.0739,-0.0363,0.0171,
0.039378,0.0000,0.0000,0.0000,-0.0739,-0.0363,0.0171,
0.096529,0.0000,0.0000,0.0000,-0.0742,-0.0238,0.0020,
0.104901,0.0000,0.0000,0.0000,-0.0742,-0.0238,0.0020,
0.162013,0.0000,0.0000,0.0000,-0.0264,-0.0522,-0.0180,
0.170716,0.0000,0.0000,0.0000,-0.0264,-0.0522,-0.0180,
0.227490,0.0000,0.0000,0.0000,-0.0076,-0.0521,-0.0200,
0.236488,0.0000,0.0000,0.0000,-0.0076,-0.0521,-0.0200,
0.293079,0.0000,0.0000,0.0000,-0.0070,-0.0733,-0.0084,
0.301445,0.0000,0.0000,0.0000,-0.0070,-0.0733,-0.0084,
0.359308,0.0000,0.0000,0.0000,-0.0099,-0.0985,0.0023,
0.367891,0.0000,0.0000,0.0000,-0.0099,-0.0985,0.0023,
0.424160,0.0000,0.0000,0.0000,0.0673,-0.0425,-0.0394,
0.432661,0.0000,0.0000,0.0000,0.0673,-0.0425,-0.0394,
0.482221,0.1103,-0.3400,0.1095,0.0673,-0.0425,-0.0394,
0.489775,0.1103,-0.3400,0.1095,0.0816,-0.2558,-0.1423,
0.498352,0.1103,-0.3400,0.1095,0.0816,-0.2558,-0.1423,
0.548305,-0.3626,0.2545,0.1183,0.0816,-0.2558,-0.1423,
0.554998,-0.3626,0.2545,0.1183,0.1052,-0.0767,0.0092,
0.564483,-0.3626,0.2545,0.1183,0.1052,-0.0767,0.0092,
0.613151,-0.4433,-0.0119,0.0736,0.1052,-0.0767,0.0092,
0.621934,-0.4433,-0.0119,0.0736,0.1249,0.0104,0.0577,
0.629009,-0.4433,-0.0119,0.0736,0.1249,0.0104,0.0577,
0.678436,0.0816,-0.3795,0.1358,0.1249,0.0104,0.0577,
0.685606,0.0816,-0.3795,0.1358,0.1671,0.2958,0.0510,
0.694906,0.0816,-0.3795,0.1358,0.1671,0.2958,0.0510,
0.744407,0.2475,-0.2280,0.3944,0.1671,0.2958,0.0510,
0.752420,0.2475,-0.2280,0.3944,0.1816,0.4488,-0.1261,
0.760188,0.2475,-0.2280,0.3944,0.1816,0.4488,-0.1261,
0.817432,0.2475,-0.2280,0.3944,0.7046,2.1318,-0.6787,
0.842782,0.2475,-0.2280,0.3944,0.7046,2.1318,-0.6787,
0.843894,1.5373,2.6629,0.3834,0.7046,2.1318,-0.6787,
0.858777,1.5373,2.6629,0.3834,0.7046,2.1318,-0.6787,
0.882536,1.5373,2.6629,0.3834,0.0498,-0.0220,-0.0312,
0.923934,1.5373,2.6629,0.3834,0.0498,-0.0220,-0.0312,
0.925151,0.4193,-0.0409,0.8363,0.0498,-0.0220,-0.0312,
0.948024,0.4193,-0.0409,0.8363,0.1109,0.2179,-0.0625,
0.990237,0.4193,-0.0409,0.8363,0.1109,0.2179,-0.0625,
0.991971,0.3714,-0.0985,0.9284,0.1109,0.2179,-0.0625,
1.013384,0.3714,-0.0985,0.9284,0.1868,0.2844,-0.2053,
1.055048,0.3714,-0.0985,0.9284,0.1868,0.2844,-0.2053,
1.055972,-0.0998,-0.2002,0.9911,0.1868,0.2844,-0.2053,
1.078628,-0.0998,-0.2002,0.9911,0.1289,0.1674,-0.2651,
1.119960,-0.0998,-0.2002,0.9911,0.1289,0.1674,-0.2651,
1.121404,-0.0752,0.0962,0.9907,0.1289,0.1674,-0.2651,
1.144855,-0.0752,0.0962,0.9907,0.1886,0.0756,-0.2372,
1.186399,-0.0752,0.0962,0.9907,0.1886,0.0756,-0.2372,
1.187157,0.2873,0.0198,0.4781,0.1886,0.0756,-0.2372,
1.210885,0.2873,0.0198,0.4781,0.1991,0.0530,-0.2584,
1.251016,0.2873,0.0198,0.4781,0.1991,0.0530,-0.2584,
1.253518,0.5680,-0.5432,-0.4605,0.1991,0.0530,-0.2584,
1.275474,0.5680,-0.5432,-0.4605,0.1953,0.2016,-0.2016,
1.317719,0.5680,-0.5432,-0.4605,0.1953,0.2016,-0.2016,
1.319573,1.3814,-0.3874,-1.1890,0.1953,0.2016,-0.2016,
1.341379,1.3814,-0.3874,-1.1890,0.2952,0.3079,-0.1683,
1.382271,1.3814,-0.3874,-1.1890,0.2952,0.3079,-0.1683,
1.383532,1.1546,-0.0300,-0.8884,0.2952,0.3079,-0.1683,
1.406380,1.1546,-0.0300,-0.8884,0.2462,0.1700,-0.1336,
1.448182,1.1546,-0.0300,-0.8884,0.2462,0.1700,-0.1336,
1.449450,0.4150,0.0127,-0.4669,0.2462,0.1700,-0.1336,
1.471785,0.4150,0.0127,-0.4669,0.2450,-0.0367,0.0307,
1.513152,0.4150,0.0127,-0.4669,0.2450,-0.0367,0.0307,
1.514408,1.6235,-0.7560,-0.2307,0.2450,-0.0367,0.0307,
1.537486,1.6235,-0.7560,-0.2307,0.3374,0.0817,-0.0557,
1.579245,1.6235,-0.7560,-0.2307,0.3374,0.0817,-0.0557,
1.580560,1.4088,-0.3846,0.0687,0.3374,0.0817,-0.0557,
1.603071,1.4088,-0.3846,0.0687,0.3696,0.0730,-0.0673,
1.644435,1.4088,-0.3846,0.0687,0.3696,0.0730,-0.0673,
1.646280,1.3910,-0.3324,0.1049,0.3696,0.0730,-0.0673,
1.668545,1.3910,-0.3324,0.1049,0.2636,-0.0127,-0.2091,
1.709961,1.3910,-0.3324,0.1049,0.2636,-0.0127,-0.2091,
1.711369,1.5720,0.1137,0.4897,0.2636,-0.0127,-0.2091,
1.733732,1.5720,0.1137,0.4897,0.2805,-0.0938,-0.1921,
1.776507,1.5720,0.1137,0.4897,0.2805,-0.0938,-0.1921,
1.777622,2.2052,0.9586,0.7453,0.2805,-0.0938,-0.1921,
1.799437,2.2052,0.9586,0.7453,0.1756,-0.1306,-0.0367,
1.841141,2.2052,0.9586,0.7453,0.1756,-0.1306,-0.0367,
1.842553,2.4319,1.8809,0.2306,0.1756,-0.1306,-0.0367,
1.864463,2.4319,1.8809,0.2306,0.0719,0.0547,0.2228,
1.906690,2.4319,1.8809,0.2306,0.0719,0.0547,0.2228,
1.907770,0.7994,1.5995,-0.7068,0.0719,0.0547,0.2228,
1.930683,0.7994,1.5995,-0.7068,-0.3939,0.1787,0.5866,
1.971293,0.7994,1.5995,-0.7068,-0.3939,0.1787,0.5866,
1.972415,-1.1796,-0.9505,-0.4754,-0.3939,0.1787,0.5866,
1.995355,-1.1796,-0.9505,-0.4754,-1.0525,0.6516,0.6939,
2.037517,-1.1796,-0.9505,-0.4754,-1.0525,0.6516,0.6939,
2.039086,-0.4800,1.9053,0.3185,-1.0525,0.6516,0.6939,
2.061060,-0.4800,1.9053,0.3185,-0.5507,1.0438,0.3998,
2.102599,-0.4800,1.9053,0.3185,-0.5507,1.0438,0.3998,
2.103352,-0.2088,-0.8075,-0.6951,-0.5507,1.0438,0.3998,
2.126627,-0.2088,-0.8075,-0.6951,-0.7092,1.0327,0.0819,
2.167443,-0.2088,-0.8075,-0.6951,-0.7092,1.0327,0.0819,
2.168266,-0.9565,-1.4947,0.4539,-0.7092,1.0327,0.0819,
2.191714,-0.9565,-1.4947,0.4539,-0.4068,0.7471,-0.0441,
2.233083,-0.9565,-1.4947,0.4539,-0.4068,0.7471,-0.0441,
2.234642,-0.9199,-2.1016,1.0031,-0.4068,0.7471,-0.0441,
2.258194,-0.9199,-2.1016,1.0031,-0.1582,0.2850,-0.0200,
2.298749,-0.9199,-2.1016,1.0031,-0.1582,0.2850,-0.0200,
2.299836,0.2645,-1.2814,1.2702,-0.1582,0.2850,-0.0200,
2.322320,0.2645,-1.2814,1.2702,-0.0466,0.2013,0.1287,
2.363559,0.2645,-1.2814,1.2702,-0.0466,0.2013,0.1287,
2.364410,0.9629,0.9996,1.2516,-0.0466,0.2013,0.1287,
2.387839,0.9629,0.9996,1.2516,-0.2248,0.2692,0.0602,
2.429769,0.9629,0.9996,1.2516,-0.2248,0.2692,0.0602,
2.430658,-0.6621,3.0166,2.6404,-0.2248,0.2692,0.0602,
2.453625,-0.6621,3.0166,2.6404,-0.6588,-0.4568,0.0754,
2.494926,-0.6621,3.0166,2.6404,-0.6588,-0.4568,0.0754,
2.496095,-1.6297,0.5134,-1.2112,-0.6588,-0.4568,0.0754,
2.519018,-1.6297,0.5134,-1.2112,-0.2599,-0.5250,-0.1874,
2.560943,-1.6297,0.5134,-1.2112,-0.2599,-0.5250,-0.1874,
2.562686,-0.5463,-1.7544,-1.4944,-0.2599,-0.5250,-0.1874,
2.585993,-0.5463,-1.7544,-1.4944,0.4032,-0.2217,-0.1344,
2.626812,-0.5463,-1.7544,-1.4944,0.4032,-0.2217,-0.1344,
2.628040,0.1295,-0.4869,-1.6624,0.4032,-0.2217,-0.1344,
2.650513,0.1295,-0.4869,-1.6624,0.5188,-0.3514,-0.1596,
2.692469,0.1295,-0.4869,-1.6624,0.5188,-0.3514,-0.1596,
2.693648,-0.4437,-1.1276,-1.0516,0.5188,-0.3514,-0.1596,
2.715378,-0.4437,-1.1276,-1.0516,0.4169,-0.5834,-0.1109,
2.757579,-0.4437,-1.1276,-1.0516,0.4169,-0.5834,-0.1109,
2.759068,0.6335,-1.0746,-0.4197,0.4169,-0.5834,-0.1109,
2.781532,0.6335,-1.0746,-0.4197,0.5133,-0.5941,-0.0457,
2.822138,0.6335,-1.0746,-0.4197,0.5133,-0.5941,-0.0457,
2.822927,1.6026,-0.8260,-0.3955,0.5133,-0.5941,-0.0457,
2.847110,1.6026,-0.8260,-0.3955,0.3340,-0.3002,-0.2489,
2.888362,1.6026,-0.8260,-0.3955,0.3340,-0.3002,-0.2489,
2.889688,1.3013,-0.1442,0.2866,0.3340,-0.3002,-0.2489,
2.911854,1.3013,-0.1442,0.2866,0.3685,-0.3485,-0.2544,
2.954960,1.3013,-0.1442,0.2866,0.3685,-0.3485,-0.2544,
2.956000,2.5647,0.2075,-0.0095,0.3685,-0.3485,-0.2544,
2.977153,2.5647,0.2075,-0.0095,0.4030,-0.0018,0.2729,
3.019592,2.5647,0.2075,-0.0095,0.4030,-0.0018,0.2729,
3.020968,-0.2018,2.7955,-0.2508,0.4030,-0.0018,0.2729,
3.043623,-0.2018,2.7955,-0.2508,-0.0466,-0.1840,0.6148,
3.084822,-0.2018,2.7955,-0.2508,-0.0466,-0.1840,0.6148,
3.085713,-2.2474,0.2711,-1.4307,-0.0466,-0.1840,0.6148,
3.108828,-2.2474,0.2711,-1.4307,-0.8085,0.2045,0.7720,
3.150614,-2.2474,0.2711,-1.4307,-0.8085,0.2045,0.7720,
3.152549,-1.7837,2.9330,0.7547,-0.8085,0.2045,0.7720,
3.175430,-1.7837,2.9330,0.7547,-0.4762,0.2358,0.4523,
3.215385,-1.7837,2.9330,0.7547,-0.4762,0.2358,0.4523,
3.216277,-0.6506,-0.5832,-0.8007,-0.4762,0.2358,0.4523,
3.239499,-0.6506,-0.5832,-0.8007,-0.7001,0.4743,0.0828,
3.281010,-0.6506,-0.5832,-0.8007,-0.7001,0.4743,0.0828,
3.282531,-1.4425,-2.0440,0.9026,-0.7001,0.4743,0.0828,
3.304727,-1.4425,-2.0440,0.9026,-0.2057,0.1214,-0.2396,
3.346575,-1.4425,-2.0440,0.9026,-0.2057,0.1214,-0.2396,
3.348653,-1.3364,-1.8435,0.7131,-0.2057,0.1214,-0.2396,
3.370471,-1.3364,-1.8435,0.7131,0.0380,-0.3180,-0.1868,
3.411843,-1.3364,-1.8435,0.7131,0.0380,-0.3180,-0.1868,
3.413472,-0.3471,-1.1550,1.5793,0.0380,-0.3180,-0.1868,
3.435919,-0.3471,-1.1550,1.5793,0.1408,-0.2642,0.0031,
3.477267,-0.3471,-1.1550,1.5793,0.1408,-0.2642,0.0031,
3.478641,0.8543,1.2029,1.6430,0.1408,-0.2642,0.0031,
3.501741,0.8543,1.2029,1.6430,0.0333,-0.3609,0.1199,
3.542594,0.8543,1.2029,1.6430,0.0333,-0.3609,0.1199,
3.543747,-0.5355,2.8978,1.5869,0.0333,-0.3609,0.1199,
3.570618,-0.5355,2.8978,1.5869,-0.3141,-0.7978,-0.1405,
3.609577,-0.5355,2.8978,1.5869,-0.3141,-0.7978,-0.1405,
3.610973,-3.7278,0.3209,-1.7247,-0.3141,-0.7978,-0.1405,
3.632855,-3.7278,0.3209,-1.7247,0.0341,-1.4334,-0.4501,
3.674616,-3.7278,0.3209,-1.7247,0.0341,-1.4334,-0.4501,
3.675861,-2.6272,-0.2212,-1.5928,0.0341,-1.4334,-0.4501,
3.697174,-2.6272,-0.2212,-1.5928,0.3109,-1.2853,-0.0286,
3.740159,-2.6272,-0.2212,-1.5928,0.3109,-1.2853,-0.0286,
3.742067,-1.8744,-0.3901,-1.0829,0.3109,-1.2853,-0.0286,
3.763085,-1.8744,-0.3901,-1.0829,0.3225,-2.0776,-0.1648,
3.804589,-1.8744,-0.3901,-1.0829,0.3225,-2.0776,-0.1648,
3.806632,-1.0037,-1.1801,-1.3505,0.3225,-2.0776,-0.1648,
3.828312,-1.0037,-1.1801,-1.3505,0.2353,-2.1504,-0.0020,
3.870672,-1.0037,-1.1801,-1.3505,0.2353,-2.1504,-0.0020,
3.872424,0.6971,-0.3031,-0.1344,0.2353,-2.1504,-0.0020,
3.894458,0.6971,-0.3031,-0.1344,0.2159,-1.7929,-0.0212,
3.936385,0.6971,-0.3031,-0.1344,0.2159,-1.7929,-0.0212,
3.938536,1.2349,-0.6279,0.6930,0.2159,-1.7929,-0.0212,
3.961769,1.2349,-0.6279,0.6930,0.0101,-1.3157,-0.2399,
4.002352,1.2349,-0.6279,0.6930,0.0101,-1.3157,-0.2399,
4.003997,1.4523,-0.1670,1.4563,0.0101,-1.3157,-0.2399,
4.026858,1.4523,-0.1670,1.4563,0.1590,-1.1147,-0.0918,
4.068053,1.4523,-0.1670,1.4563,0.1590,-1.1147,-0.0918,
4.069901,2.0373,0.1674,0.8452,0.1590,-1.1147,-0.0918,
4.092447,2.0373,0.1674,0.8452,0.2097,-0.4844,0.1582,
4.133181,2.0373,0.1674,0.8452,0.2097,-0.4844,0.1582,
4.135081,-0.5848,2.9987,0.4271,0.2097,-0.4844,0.1582,
4.156757,-0.5848,2.9987,0.4271,-0.1309,-0.4314,0.3621,
4.199018,-0.5848,2.9987,0.4271,-0.1309,-0.4314,0.3621,
4.200662,-2.9876,0.3504,-0.7323,-0.1309,-0.4314,0.3621,
4.222402,-2.9876,0.3504,-0.7323,-0.9507,-0.5739,0.5705,
4.263153,-2.9876,0.3504,-0.7323,-0.9507,-0.5739,0.5705,
4.264621,-2.6797,1.7288,0.3111,-0.9507,-0.5739,0.5705,
4.287788,-2.6797,1.7288,0.3111,-0.7665,-0.6141,0.3881,
4.330638,-2.6797,1.7288,0.3111,-0.7665,-0.6141,0.3881,
4.332177,-0.3862,-0.4287,-0.5518,-0.7665,-0.6141,0.3881,
4.353466,-0.3862,-0.4287,-0.5518,-0.8103,-0.3749,0.0367,
4.395427,-0.3862,-0.4287,-0.5518,-0.8103,-0.3749,0.0367,
4.396724,-0.7143,-1.7630,1.1299,-0.8103,-0.3749,0.0367,
4.418721,-0.7143,-1.7630,1.1299,-0.3726,-0.3548,-0.2237,
4.462375,-0.7143,-1.7630,1.1299,-0.3726,-0.3548,-0.2237,
4.463495,-0.8796,-1.4369,1.8956,-0.3726,-0.3548,-0.2237,
4.484776,-0.8796,-1.4369,1.8956,-0.0725,-0.5553,-0.0950,
4.526499,-0.8796,-1.4369,1.8956,-0.0725,-0.5553,-0.0950,
4.527876,-0.0481,-0.9131,2.4562,-0.0725,-0.5553,-0.0950,
4.548901,-0.0481,-0.9131,2.4562,-0.0611,-0.3364,0.0898,
4.590620,-0.0481,-0.9131,2.4562,-0.0611,-0.3364,0.0898,
4.591704,0.4133,1.4501,2.4333,-0.0611,-0.3364,0.0898,
4.614754,0.4133,1.4501,2.4333,-0.2376,-0.4542,0.0480,
4.657778,0.4133,1.4501,2.4333,-0.2376,-0.4542,0.0480,
4.659573,-1.0991,1.4595,2.1223,-0.2376,-0.4542,0.0480,
4.680190,-1.0991,1.4595,2.1223,-0.2020,-0.7553,-0.1901,
4.722021,-1.0991,1.4595,2.1223,-0.2020,-0.7553,-0.1901,
4.723655,-2.7692,0.4840,-1.9422,-0.2020,-0.7553,-0.1901,
4.746750,-2.7692,0.4840,-1.9422,-0.0845,-1.2614,-0.3760,
4.791827,-2.7692,0.4840,-1.9422,-0.0845,-1.2614,-0.3760,
4.793057,-1.6386,-0.7236,-1.3795,-0.0845,-1.2614,-0.3760,
4.812148,-1.6386,-0.7236,-1.3795,0.2509,-0.9925,-0.0302,
4.855021,-1.6386,-0.7236,-1.3795,0.2509,-0.9925,-0.0302,
4.856841,-0.8587,-0.9044,-0.5285,0.2509,-0.9925,-0.0302,
4.878082,-0.8587,-0.9044,-0.5285,0.4672,-1.5618,-0.1706,
4.918304,-0.8587,-0.9044,-0.5285,0.4672,-1.5618,-0.1706,
4.919456,0.0852,-0.9201,-1.0165,0.4672,-1.5618,-0.1706,
4.943344,0.0852,-0.9201,-1.0165,0.2830,-1.5999,-0.1735,
4.982646,0.0852,-0.9201,-1.0165,0.2830,-1.5999,-0.1735,
4.984065,0.9453,-1.1480,0.0949,0.2830,-1.5999,-0.1735,
5.007535,0.9453,-1.1480,0.0949,0.3806,-1.2894,-0.1923,
5.049153,0.9453,-1.1480,0.0949,0.3806,-1.2894,-0.1923,
5.050262,1.1034,-0.5692,0.7416,0.3806,-1.2894,-0.1923,
5.072403,1.1034,-0.5692,0.7416,0.1889,-1.0611,-0.3957,
5.113366,1.1034,-0.5692,0.7416,0.1889,-1.0611,-0.3957,
5.114407,1.8215,0.4243,1.5568,0.1889,-1.0611,-0.3957,
5.137691,1.8215,0.4243,1.5568,0.1100,-0.9160,-0.2424,
5.180310,1.8215,0.4243,1.5568,0.1100,-0.9160,-0.2424,
5.181350,3.2203,1.3412,0.2627,0.1100,-0.9160,-0.2424,
5.203226,3.2203,1.3412,0.2627,0.2697,0.0881,0.1472,
5.244553,3.2203,1.3412,0.2627,0.2697,0.0881,0.1472,
5.245633,0.1565,3.1573,-1.0080,0.2697,0.0881,0.1472,
5.268604,0.1565,3.1573,-1.0080,-0.3201,0.2272,0.4227,
5.310517,0.1565,3.1573,-1.0080,-0.3201,0.2272,0.4227,
5.312194,-2.3695,0.1934,0.1674,-0.3201,0.2272,0.4227,
5.335115,-2.3695,0.1934,0.1674,-0.8427,0.3239,0.5116,
5.376297,-2.3695,0.1934,0.1674,-0.8427,0.3239,0.5116,
5.377526,0.0282,0.6200,-0.1160,-0.8427,0.3239,0.5116,
5.401920,0.0282,0.6200,-0.1160,-0.5533,1.1553,0.3645,
5.442373,0.0282,0.6200,-0.1160,-0.5533,1.1553,0.3645,
5.445248,-0.5518,-1.9869,-0.8537,-0.5533,1.1553,0.3645,
5.465430,-0.5518,-1.9869,-0.8537,-0.6971,1.2637,-0.0197,
5.507474,-0.5518,-1.9869,-0.8537,-0.6971,1.2637,-0.0197,
5.508561,-1.7219,-1.5372,1.0298,-0.6971,1.2637,-0.0197,
5.531688,-1.7219,-1.5372,1.0298,-0.2979,0.7514,0.0519,
5.572855,-1.7219,-1.5372,1.0298,-0.2979,0.7514,0.0519,
5.574032,-0.1086,-1.6861,1.3392,-0.2979,0.7514,0.0519,
5.597503,-0.1086,-1.6861,1.3392,-0.0217,0.4527,0.1472,
5.638230,-0.1086,-1.6861,1.3392,-0.0217,0.4527,0.1472,
5.640091,1.0813,0.7125,1.6168,-0.0217,0.4527,0.1472,
5.662515,1.0813,0.7125,1.6168,-0.2266,0.4455,0.2359,
5.703670,1.0813,0.7125,1.6168,-0.2266,0.4455,0.2359,
5.705748,-0.5341,0.7426,3.1941,-0.2266,0.4455,0.2359,
5.728824,-0.5341,0.7426,3.1941,-0.6187,0.0186,-0.0455,
5.769200,-0.5341,0.7426,3.1941,-0.6187,0.0186,-0.0455,
5.770430,-1.8297,1.5286,-2.1570,-0.6187,0.0186,-0.0455,
5.794035,-1.8297,1.5286,-2.1570,0.1025,-0.5467,-0.3054,
5.835119,-1.8297,1.5286,-2.1570,0.1025,-0.5467,-0.3054,
5.836722,-1.2704,-0.7283,-1.9429,0.1025,-0.5467,-0.3054,
5.859863,-1.2704,-0.7283,-1.9429,0.3283,-0.0185,-0.0176,
5.900454,-1.2704,-0.7283,-1.9429,0.3283,-0.0185,-0.0176,
5.901909,0.2157,-0.7078,-1.4175,0.3283,-0.0185,-0.0176,
5.924936,0.2157,-0.7078,-1.4175,0.5621,-0.3561,-0.3667,
5.965978,0.2157,-0.7078,-1.4175,0.5621,-0.3561,-0.3667,
5.967632,-0.4622,-1.5901,-1.2718,0.5621,-0.3561,-0.3667,
5.990193,-0.4622,-1.5901,-1.2718,0.4965,-0.4507,-0.2385,
6.031453,-0.4622,-1.5901,-1.2718,0.4965,-0.4507,-0.2385,
6.033600,0.6399,-0.8145,-0.5355,0.4965,-0.4507,-0.2385,
6.054628,0.6399,-0.8145,-0.5355,0.5757,-0.4817,-0.1839,
6.097114,0.6399,-0.8145,-0.5355,0.5757,-0.4817,-0.1839,
6.099540,1.3041,-0.7556,-0.0709,0.5757,-0.4817,-0.1839,
6.121211,1.3041,-0.7556,-0.0709,0.3477,-0.4047,-0.4336,
6.162515,1.3041,-0.7556,-0.0709,0.3477,-0.4047,-0.4336,
6.164172,1.9485,0.2882,0.8251,0.3477,-0.4047,-0.4336,
6.186304,1.9485,0.2882,0.8251,0.3106,-0.4925,-0.2230,
6.229363,1.9485,0.2882,0.8251,0.3106,-0.4925,-0.2230,
6.230777,2.8769,0.3264,-0.4445,0.3106,-0.4925,-0.2230,
6.251395,2.8769,0.3264,-0.4445,0.2508,0.1883,0.0724,
6.294795,2.8769,0.3264,-0.4445,0.2508,0.1883,0.0724,
6.296035,-0.7844,3.3212,-1.6045,0.2508,0.1883,0.0724,
6.317523,-0.7844,3.3212,-1.6045,-0.3487,0.0747,0.6095,
6.358563,-0.7844,3.3212,-1.6045,-0.3487,0.0747,0.6095,
6.360929,-1.8776,0.2302,-0.1174,-0.3487,0.0747,0.6095,
6.382436,-1.8776,0.2302,-0.1174,-0.7246,0.4780,0.6625,
6.425041,-1.8776,0.2302,-0.1174,-0.7246,0.4780,0.6625,
6.427368,0.1227,1.3261,-0.1193,-0.7246,0.4780,0.6625,
6.447860,0.1227,1.3261,-0.1193,-0.5893,1.0353,0.3702,
6.491172,0.1227,1.3261,-0.1193,-0.5893,1.0353,0.3702,
6.492850,-0.2335,-1.3084,-0.8872,-0.5893,1.0353,0.3702,
6.512636,-0.2335,-1.3084,-0.8872,-0.5553,1.3416,0.0675,
6.554821,-0.2335,-1.3084,-0.8872,-0.5553,1.3416,0.0675,
6.556148,-1.3125,-1.9978,0.1904,-0.5553,1.3416,0.0675,
6.579115,-1.3125,-1.9978,0.1904,-0.2430,1.1861,-0.0284,
6.621539,-1.3125,-1.9978,0.1904,-0.2430,1.1861,-0.0284,
6.623478,-0.6477,-2.0477,0.2092,-0.2430,1.1861,-0.0284,
6.645318,-0.6477,-2.0477,0.2092,0.0562,0.8699,-0.0264,
6.687135,-0.6477,-2.0477,0.2092,0.0562,0.8699,-0.0264,
6.689841,-0.0090,-0.2087,0.9090,0.0562,0.8699,-0.0264,
6.709652,-0.0090,-0.2087,0.9090,-0.2355,0.5864,0.1373,
6.751976,-0.0090,-0.2087,0.9090,-0.2355,0.5864,0.1373,
6.753123,-0.4805,2.1905,2.1770,-0.2355,0.5864,0.1373,
6.774629,-0.4805,2.1905,2.1770,-0.3952,-0.0568,0.3664,
6.816893,-0.4805,2.1905,2.1770,-0.3952,-0.0568,0.3664,
6.817913,0.3265,2.2456,0.3499,-0.3952,-0.0568,0.3664,
6.840625,0.3265,2.2456,0.3499,0.2355,-0.2931,-0.0588,
6.882604,0.3265,2.2456,0.3499,0.2355,-0.2931,-0.0588,
6.883420,-1.3059,0.6374,-2.5884,0.2355,-0.2931,-0.0588,
6.906243,-1.3059,0.6374,-2.5884,0.0626,-0.1274,-0.2367,
6.948714,-1.3059,0.6374,-2.5884,0.0626,-0.1274,-0.2367,
6.949828,-0.1645,-0.8127,-1.4544,0.0626,-0.1274,-0.2367,
6.972318,-0.1645,-0.8127,-1.4544,0.5260,-0.0693,-0.1521,
7.013176,-0.1645,-0.8127,-1.4544,0.5260,-0.0693,-0.1521,
7.013924,-0.5404,-0.9841,-1.5748,0.5260,-0.0693,-0.1521,
7.036952,-0.5404,-0.9841,-1.5748,0.5765,-0.4174,-0.2059,
7.078927,-0.5404,-0.9841,-1.5748,0.5765,-0.4174,-0.2059,
7.079910,0.1815,-1.1496,-0.8236,0.5765,-0.4174,-0.2059,
7.103992,0.1815,-1.1496,-0.8236,0.5240,-0.5486,-0.0919,
7.146638,0.1815,-1.1496,-0.8236,0.5240,-0.5486,-0.0919,
7.148349,1.6598,-1.1713,-0.5273,0.5240,-0.5486,-0.0919,
7.168615,1.6598,-1.1713,-0.5273,0.4349,-0.2056,-0.3444,
7.210375,1.6598,-1.1713,-0.5273,0.4349,-0.2056,-0.3444,
7.212496,1.3748,-0.7623,0.3142,0.4349,-0.2056,-0.3444,
7.234674,1.3748,-0.7623,0.3142,0.3595,-0.2173,-0.4785,
7.276864,1.3748,-0.7623,0.3142,0.3595,-0.2173,-0.4785,
7.278637,2.3466,0.8179,0.0329,0.3595,-0.2173,-0.4785,
7.299599,2.3466,0.8179,0.0329,0.4226,0.1074,-0.0278,
7.341119,2.3466,0.8179,0.0329,0.4226,0.1074,-0.0278,
7.343045,1.0529,2.7054,-0.4622,0.4226,0.1074,-0.0278,
7.364608,1.0529,2.7054,-0.4622,0.2002,0.1491,0.1987,
7.406855,1.0529,2.7054,-0.4622,0.2002,0.1491,0.1987,
7.408289,-1.1048,0.7029,-1.9261,0.2002,0.1491,0.1987,
7.429973,-1.1048,0.7029,-1.9261,-0.7749,0.2952,0.6503,
7.471680,-1.1048,0.7029,-1.9261,-0.7749,0.2952,0.6503,
7.473139,-1.3496,0.5226,0.1107,-0.7749,0.2952,0.6503,
7.495970,-1.3496,0.5226,0.1107,-0.5880,0.8943,0.6480,
7.537351,-1.3496,0.5226,0.1107,-0.5880,0.8943,0.6480,
7.539689,0.7148,0.6996,-1.0939,-0.5880,0.8943,0.6480,
7.561550,0.7148,0.6996,-1.0939,-0.4968,1.4474,0.2566,
7.602073,0.7148,0.6996,-1.0939,-0.4968,1.4474,0.2566,
7.604283,-0.5778,-1.7427,-0.3506,-0.4968,1.4474,0.2566,
7.626080,-0.5778,-1.7427,-0.3506,-0.2201,1.6887,0.0684,
7.668141,-0.5778,-1.7427,-0.3506,-0.2201,1.6887,0.0684,
7.669953,-1.2302,-1.7261,0.0727,-0.2201,1.6887,0.0684,
7.692303,-1.2302,-1.7261,0.0727,0.0505,1.2752,-0.0637,
7.733510,-1.2302,-1.7261,0.0727,0.0505,1.2752,-0.0637,
7.735178,-0.5180,-1.7986,0.0886,0.0505,1.2752,-0.0637,
7.757432,-0.5180,-1.7986,0.0886,0.2130,0.8341,0.0053,
7.800392,-0.5180,-1.7986,0.0886,0.2130,0.8341,0.0053,
7.802790,0.2879,0.6247,0.6174,0.2130,0.8341,0.0053,
7.823616,0.2879,0.6247,0.6174,-0.0365,0.7263,0.0739,
7.864835,0.2879,0.6247,0.6174,-0.0365,0.7263,0.0739,
7.866826,0.5453,1.1629,2.1451,-0.0365,0.7263,0.0739,
7.888751,0.5453,1.1629,2.1451,-0.5585,0.2805,0.4690,
7.930029,0.5453,1.1629,2.1451,-0.5585,0.2805,0.4690,
7.931964,0.1913,1.8267,-0.7865,-0.5585,0.2805,0.4690,
7.954721,0.1913,1.8267,-0.7865,0.2969,0.0794,-0.3618,
7.995382,0.1913,1.8267,-0.7865,0.2969,0.0794,-0.3618,
7.996891,-1.7163,-0.0200,-1.3148,0.2969,0.0794,-0.3618,
8.019418,-1.7163,-0.0200,-1.3148,0.2320,0.1362,-0.2511,
8.062426,-1.7163,-0.0200,-1.3148,0.2320,0.1362,-0.2511,
8.064160,0.2014,-0.7862,-1.9991,0.2320,0.1362,-0.2511,
8.084798,0.2014,-0.7862,-1.9991,0.4869,0.0179,-0.1623,
8.126626,0.2014,-0.7862,-1.9991,0.4869,0.0179,-0.1623,
8.128556,-0.6979,-1.1301,-1.3018,0.4869,0.0179,-0.1623,
8.150262,-0.6979,-1.1301,-1.3018,0.5116,-0.2318,-0.2144,
8.192184,-0.6979,-1.1301,-1.3018,0.5116,-0.2318,-0.2144,
8.193624,0.2766,-0.9515,-0.9627,0.5116,-0.2318,-0.2144,
8.216332,0.2766,-0.9515,-0.9627,0.5990,-0.4946,-0.1465,
8.257854,0.2766,-0.9515,-0.9627,0.5990,-0.4946,-0.1465,
8.259764,1.3617,-1.0725,-0.5437,0.5990,-0.4946,-0.1465,
8.281637,1.3617,-1.0725,-0.5437,0.5447,-0.2760,-0.3491,
8.323050,1.3617,-1.0725,-0.5437,0.5447,-0.2760,-0.3491,
8.324681,1.3272,-0.3917,0.0912,0.5447,-0.2760,-0.3491,
8.347636,1.3272,-0.3917,0.0912,0.3415,-0.3622,-0.4287,
8.387842,1.3272,-0.3917,0.0912,0.3415,-0.3622,-0.4287,
8.389922,2.4675,0.5341,0.3635,0.3415,-0.3622,-0.4287,
8.411779,2.4675,0.5341,0.3635,0.2350,-0.1449,-0.0835,
8.454914,2.4675,0.5341,0.3635,0.2350,-0.1449,-0.0835,
8.456638,2.3593,1.0240,-0.7249,0.2350,-0.1449,-0.0835,
8.477889,2.3593,1.0240,-0.7249,0.1139,0.4157,0.1629,
8.519589,2.3593,1.0240,-0.7249,0.1139,0.4157,0.1629,
8.521159,-0.1892,2.4782,-2.2859,0.1139,0.4157,0.1629,
8.543135,-0.1892,2.4782,-2.2859,-0.6639,0.5052,0.6023,
8.585272,-0.1892,2.4782,-2.2859,-0.6639,0.5052,0.6023,
8.587245,-0.8469,0.6239,-0.1048,-0.6639,0.5052,0.6023,
8.609285,-0.8469,0.6239,-0.1048,-0.6286,1.0951,0.5777,
8.650274,-0.8469,0.6239,-0.1048,-0.6286,1.0951,0.5777,
8.651995,0.7180,0.4000,-1.0137,-0.6286,1.0951,0.5777,
8.675182,0.7180,0.4000,-1.0137,-0.4728,1.8495,0.2728,
8.715384,0.7180,0.4000,-1.0137,-0.4728,1.8495,0.2728,
8.716061,-0.5837,-1.5333,-1.2101,-0.4728,1.8495,0.2728,
8.739991,-0.5837,-1.5333,-1.2101,-0.2747,2.0922,0.1119,
8.781723,-0.5837,-1.5333,-1.2101,-0.2747,2.0922,0.1119,
8.782754,-1.4899,-1.3300,-0.1596,-0.2747,2.0922,0.1119,
8.805090,-1.4899,-1.3300,-0.1596,0.0086,1.5557,0.0570,
8.846437,-1.4899,-1.3300,-0.1596,0.0086,1.5557,0.0570,
8.847195,-0.7407,-1.6612,-0.3922,0.0086,1.5557,0.0570,
8.869903,-0.7407,-1.6612,-0.3922,0.1345,0.9529,0.0788,
8.912049,-0.7407,-1.6612,-0.3922,0.1345,0.9529,0.0788,
8.913418,0.1106,-0.2378,0.5177,0.1345,0.9529,0.0788,
8.936301,0.1106,-0.2378,0.5177,0.0701,0.7120,0.0793,
8.977930,0.1106,-0.2378,0.5177,0.0701,0.7120,0.0793,
8.979378,0.2876,1.6723,2.0032,0.0701,0.7120,0.0793,
9.001618,0.2876,1.6723,2.0032,-0.2700,0.3624,0.3091,
9.043631,0.2876,1.6723,2.0032,-0.2700,0.3624,0.3091,
9.046079,0.8480,4.2138,-0.2355,-0.2700,0.3624,0.3091,
9.067128,0.8480,4.2138,-0.2355,0.2133,-0.1048,-0.3036,
9.108423,0.8480,4.2138,-0.2355,0.2133,-0.1048,-0.3036,
9.110850,-0.4876,-0.4030,-2.2365,0.2133,-0.1048,-0.3036,
9.132389,-0.4876,-0.4030,-2.2365,-0.0064,0.2585,-0.0725,
9.174688,-0.4876,-0.4030,-2.2365,-0.0064,0.2585,-0.0725,
9.176278,1.1936,-1.3067,-2.4510,-0.0064,0.2585,-0.0725,
9.198331,1.1936,-1.3067,-2.4510,0.6429,0.6029,-0.3532,
9.239237,1.1936,-1.3067,-2.4510,0.6429,0.6029,-0.3532,
9.241049,-0.5351,-1.2617,-1.4625,0.6429,0.6029,-0.3532,
9.263368,-0.5351,-1.2617,-1.4625,0.6834,0.3233,-0.3829,
9.307087,-0.5351,-1.2617,-1.4625,0.6834,0.3233,-0.3829,
9.309127,-0.0968,-0.7603,-0.9044,0.6834,0.3233,-0.3829,
9.330071,-0.0968,-0.7603,-0.9044,0.5629,-0.0454,-0.0727,
9.370952,-0.0968,-0.7603,-0.9044,0.5629,-0.0454,-0.0727,
9.372882,2.0919,-0.9937,-0.5974,0.5629,-0.0454,-0.0727,
9.393998,2.0919,-0.9937,-0.5974,0.5351,0.0602,-0.1668,
9.435620,2.0919,-0.9937,-0.5974,0.5351,0.0602,-0.1668,
9.436766,2.2924,-0.6248,-0.1056,0.5351,0.0602,-0.1668,
9.459841,2.2924,-0.6248,-0.1056,0.3227,0.1150,-0.3670,
9.500809,2.2924,-0.6248,-0.1056,0.3227,0.1150,-0.3670,
9.502639,1.9204,0.4447,0.0251,0.3227,0.1150,-0.3670,
9.524847,1.9204,0.4447,0.0251,0.2248,-0.1167,-0.1532,
9.567919,1.9204,0.4447,0.0251,0.2248,-0.1167,-0.1532,
9.569666,2.8219,0.4854,-0.5220,0.2248,-0.1167,-0.1532,
9.590398,2.8219,0.4854,-0.5220,0.1526,0.2072,0.2608,
9.632686,2.8219,0.4854,-0.5220,0.1526,0.2072,0.2608,
9.634526,0.3856,2.6586,-2.6727,0.1526,0.2072,0.2608,
9.655239,0.3856,2.6586,-2.6727,-0.4459,0.5835,0.8005,
9.697639,0.3856,2.6586,-2.6727,-0.4459,0.5835,0.8005,
9.698872,-1.5128,1.7220,-0.5977,-0.4459,0.5835,0.8005,
9.722367,-1.5128,1.7220,-0.5977,-0.5788,0.8442,0.6697,
9.762567,-1.5128,1.7220,-0.5977,-0.5788,0.8442,0.6697,
9.763123,0.6043,1.0921,-0.8162,-0.5788,0.8442,0.6697,
9.788855,0.6043,1.0921,-0.8162,-0.4705,1.8243,0.3146,
9.828690,0.6043,1.0921,-0.8162,-0.4705,1.8243,0.3146,
9.830504,0.4034,-1.6592,-1.7811,-0.4705,1.8243,0.3146,
9.853285,0.4034,-1.6592,-1.7811,-0.3422,2.6119,-0.0305,
9.893752,0.4034,-1.6592,-1.7811,-0.3422,2.6119,-0.0305,
9.895289,-1.7061,-1.2460,-0.3876,-0.3422,2.6119,-0.0305,
9.917769,-1.7061,-1.2460,-0.3876,-0.0832,1.8237,0.0038,
9.960805,-1.7061,-1.2460,-0.3876,-0.0832,1.8237,0.0038,
9.963696,-1.3514,-1.8830,-0.0506,-0.0832,1.8237,0.0038,
9.983261,-1.3514,-1.8830,-0.0506,0.2346,1.0695,0.2850,
10.025528,-1.3514,-1.8830,-0.0506,0.2346,1.0695,0.2850,
10.027915,1.0759,-2.1189,0.5382,0.2346,1.0695,0.2850,
10.049195,1.0759,-2.1189,0.5382,0.4296,0.9423,0.1547,
10.091275,1.0759,-2.1189,0.5382,0.4296,0.9423,0.1547,
10.092747,0.5622,1.7775,0.9519,0.4296,0.9423,0.1547,
10.115218,0.5622,1.7775,0.9519,-0.1675,0.8267,0.1423,
10.157567,0.5622,1.7775,0.9519,-0.1675,0.8267,0.1423,
10.159427,-0.0773,2.8320,1.7266,-0.1675,0.8267,0.1423,
10.180041,-0.0773,2.8320,1.7266,-0.5154,0.0313,0.1564,
10.222759,-0.0773,2.8320,1.7266,-0.5154,0.0313,0.1564,
10.224548,-1.7179,0.8792,-2.3820,-0.5154,0.0313,0.1564,
10.246687,-1.7179,0.8792,-2.3820,-0.1385,-0.1359,-0.1654,
10.288032,-1.7179,0.8792,-2.3820,-0.1385,-0.1359,-0.1654,
10.289997,-0.2106,-1.2823,-2.5487,-0.1385,-0.1359,-0.1654,
10.311598,-0.2106,-1.2823,-2.5487,0.5458,0.3865,0.0622,
10.351849,-0.2106,-1.2823,-2.5487,0.5458,0.3865,0.0622,
10.353355,-0.3027,-0.2950,-1.1795,0.5458,0.3865,0.0622,
10.376935,-0.3027,-0.2950,-1.1795,0.6608,-0.1752,-0.2347,
10.418770,-0.3027,-0.2950,-1.1795,0.6608,-0.1752,-0.2347,
10.420542,-0.5319,-0.6966,-1.2317,0.6608,-0.1752,-0.2347,
10.442626,-0.5319,-0.6966,-1.2317,0.4452,-0.5260,0.0008,
10.483457,-0.5319,-0.6966,-1.2317,0.4452,-0.5260,0.0008,
10.484303,0.9560,-1.2313,-0.5093,0.4452,-0.5260,0.0008,
10.506680,0.9560,-1.2313,-0.5093,0.6396,-0.5273,-0.1437,
10.548730,0.9560,-1.2313,-0.5093,0.6396,-0.5273,-0.1437,
10.550276,1.4573,-0.9614,-0.4626,0.6396,-0.5273,-0.1437,
10.573343,1.4573,-0.9614,-0.4626,0.4339,-0.4259,-0.4107,
10.613880,1.4573,-0.9614,-0.4626,0.4339,-0.4259,-0.4107,
10.615610,1.6596,-0.1464,0.4039,0.4339,-0.4259,-0.4107,
10.637221,1.6596,-0.1464,0.4039,0.2572,-0.5518,-0.3581,
10.680134,1.6596,-0.1464,0.4039,0.2572,-0.5518,-0.3581,
10.681723,2.2262,0.2921,0.1446,0.2572,-0.5518,-0.3581,
10.704117,2.2262,0.2921,0.1446,0.2877,-0.2268,-0.1184,
10.745251,2.2262,0.2921,0.1446,0.2877,-0.2268,-0.1184,
10.745824,1.5871,2.0902,-0.0321,0.2877,-0.2268,-0.1184,
10.769341,1.5871,2.0902,-0.0321,0.0654,-0.1750,0.1994,
10.810749,1.5871,2.0902,-0.0321,0.0654,-0.1750,0.1994,
10.811370,-0.1358,1.4811,-2.2691,0.0654,-0.1750,0.1994,
10.834728,-0.1358,1.4811,-2.2691,-0.7808,0.3251,0.6779,
10.877187,-0.1358,1.4811,-2.2691,-0.7808,0.3251,0.6779,
10.877694,-1.5369,0.7422,-0.1364,-0.7808,0.3251,0.6779,
10.900781,-1.5369,0.7422,-0.1364,-0.6984,0.7559,0.4730,
10.942556,-1.5369,0.7422,-0.1364,-0.6984,0.7559,0.4730,
10.943616,0.6685,0.9551,-0.7863,-0.6984,0.7559,0.4730,
10.966566,0.6685,0.9551,-0.7863,-0.5562,1.4986,0.2465,
11.007216,0.6685,0.9551,-0.7863,-0.5562,1.4986,0.2465,
11.008717,-0.5042,-1.4744,-0.8322,-0.5562,1.4986,0.2465,
11.031467,-0.5042,-1.4744,-0.8322,-0.2966,1.7530,0.0869,
11.073079,-0.5042,-1.4744,-0.8322,-0.2966,1.7530,0.0869,
11.075987,-1.3626,-1.7008,0.2823,-0.2966,1.7530,0.0869,
11.096601,-1.3626,-1.7008,0.2823,0.0170,1.2181,-0.0249,
11.137925,-1.3626,-1.7008,0.2823,0.0170,1.2181,-0.0249,
11.140002,-0.6219,-2.1265,0.4250,0.0170,1.2181,-0.0249,
11.162636,-0.6219,-2.1265,0.4250,0.2955,0.6327,0.1022,
11.203108,-0.6219,-2.1265,0.4250,0.2955,0.6327,0.1022,
11.204733,0.7178,-1.2879,1.1103,0.2955,0.6327,0.1022,
11.227552,0.7178,-1.2879,1.1103,0.0451,0.5232,0.1197,
11.268590,0.7178,-1.2879,1.1103,0.0451,0.5232,0.1197,
11.269921,0.6396,1.2941,2.1078,0.0451,0.5232,0.1197,
11.292423,0.6396,1.2941,2.1078,-0.1182,0.4184,0.1779,
11.334542,0.6396,1.2941,2.1078,-0.1182,0.4184,0.1779,
11.336482,1.0286,4.0766,0.5264,-0.1182,0.4184,0.1779,
11.358250,1.0286,4.0766,0.5264,-0.0956,0.0170,-0.2451,
11.400269,1.0286,4.0766,0.5264,-0.0956,0.0170,-0.2451,
11.400887,-2.0352,0.8588,-2.3933,-0.0956,0.0170,-0.2451,
11.423951,-2.0352,0.8588,-2.3933,-0.1064,-0.2798,-0.2172,
11.465675,-2.0352,0.8588,-2.3933,-0.1064,-0.2798,-0.2172,
11.467342,0.1454,-1.5604,-2.4826,-0.1064,-0.2798,-0.2172,
11.489293,0.1454,-1.5604,-2.4826,0.4612,0.2445,0.0913,
11.531386,0.1454,-1.5604,-2.4826,0.4612,0.2445,0.0913,
11.532912,-0.6389,-0.2504,-1.1420,0.4612,0.2445,0.0913,
11.555223,-0.6389,-0.2504,-1.1420,0.6358,-0.5568,-0.2140,
11.596399,-0.6389,-0.2504,-1.1420,0.6358,-0.5568,-0.2140,
11.597033,-0.1828,-1.2729,-1.1436,0.6358,-0.5568,-0.2140,
11.620525,-0.1828,-1.2729,-1.1436,0.4194,-0.6804,-0.0396,
11.661972,-0.1828,-1.2729,-1.1436,0.4194,-0.6804,-0.0396,
11.663534,1.2465,-1.4331,-0.1807,0.4194,-0.6804,-0.0396,
11.686735,1.2465,-1.4331,-0.1807,0.5818,-0.5534,-0.2572,
11.727005,1.2465,-1.4331,-0.1807,0.5818,-0.5534,-0.2572,
11.728056,2.0943,-0.9720,-0.2139,0.5818,-0.5534,-0.2572,
11.750986,2.0943,-0.9720,-0.2139,0.2979,-0.2856,-0.4757,
11.793377,2.0943,-0.9720,-0.2139,0.2979,-0.2856,-0.4757,
11.795166,1.2839,-0.4750,1.0145,0.2979,-0.2856,-0.4757,
11.817135,1.2839,-0.4750,1.0145,0.3025,-0.6180,-0.2208,
11.858872,1.2839,-0.4750,1.0145,0.3025,-0.6180,-0.2208,
11.860405,3.2175,-0.0766,-0.2101,0.3025,-0.6180,-0.2208,
11.883295,3.2175,-0.0766,-0.2101,0.2256,-0.2190,0.1886,
11.926299,3.2175,-0.0766,-0.2101,0.2256,-0.2190,0.1886,
11.928353,1.1641,3.2235,-0.9491,0.2256,-0.2190,0.1886,
11.949182,1.1641,3.2235,-0.9491,-0.0412,0.2303,0.6619,
11.989242,1.1641,3.2235,-0.9491,-0.0412,0.2303,0.6619,
11.991198,-1.8460,1.6330,-1.3162,-0.0412,0.2303,0.6619,
12.012401,-1.8460,1.6330,-1.3162,-0.7375,0.5311,0.7210,
12.053561,-1.8460,1.6330,-1.3162,-0.7375,0.5311,0.7210,
12.054420,-1.2250,2.4246,0.3368,-0.7375,0.5311,0.7210,
12.078609,-1.2250,2.4246,0.3368,-0.5176,0.8245,0.4791,
12.120380,-1.2250,2.4246,0.3368,-0.5176,0.8245,0.4791,
12.122272,0.6729,-1.2869,-1.1675,-0.5176,0.8245,0.4791,
12.144134,0.6729,-1.2869,-1.1675,-0.4887,1.8871,0.0669,
12.185535,0.6729,-1.2869,-1.1675,-0.4887,1.8871,0.0669,
12.187177,-1.1690,-1.8640,-0.1374,-0.4887,1.8871,0.0669,
12.211061,-1.1690,-1.8640,-0.1374,-0.0916,1.4439,-0.1429,
12.252392,-1.1690,-1.8640,-0.1374,-0.0916,1.4439,-0.1429,
12.254696,-1.8834,-1.5746,0.3808,-0.0916,1.4439,-0.1429,
12.276043,-1.8834,-1.5746,0.3808,0.1038,0.6782,-0.0263,
12.316457,-1.8834,-1.5746,0.3808,0.1038,0.6782,-0.0263,
12.317979,-0.0075,-1.9756,0.8797,0.1038,0.6782,-0.0263,
12.342190,-0.0075,-1.9756,0.8797,0.1791,0.4800,0.0606,
12.382533,-0.0075,-1.9756,0.8797,0.1791,0.4800,0.0606,
12.384061,0.8308,1.1947,1.0560,0.1791,0.4800,0.0606,
12.406844,0.8308,1.1947,1.0560,-0.2146,0.5238,0.0825,
12.447737,0.8308,1.1947,1.0560,-0.2146,0.5238,0.0825,
12.449500,0.5235,0.7719,2.9257,-0.2146,0.5238,0.0825,
12.471568,0.5235,0.7719,2.9257,-0.4026,0.1616,0.4000,
12.513128,0.5235,0.7719,2.9257,-0.4026,0.1616,0.4000,
12.514927,-0.6337,3.1480,-1.2259,-0.4026,0.1616,0.4000,
12.537578,-0.6337,3.1480,-1.2259,0.0040,0.0374,-0.6636,
12.579243,-0.6337,3.1480,-1.2259,0.0040,0.0374,-0.6636,
12.580875,-1.5454,-0.1806,-2.7102,0.0040,0.0374,-0.6636,
12.602855,-1.5454,-0.1806,-2.7102,0.2390,0.0591,0.0628,
12.644563,-1.5454,-0.1806,-2.7102,0.2390,0.0591,0.0628,
12.647047,-0.3911,-1.2773,-1.2935,0.2390,0.0591,0.0628,
12.667770,-0.3911,-1.2773,-1.2935,0.7049,-0.2095,-0.1058,
12.709198,-0.3911,-1.2773,-1.2935,0.7049,-0.2095,-0.1058,
12.711457,-1.2974,-0.1063,-1.6046,0.7049,-0.2095,-0.1058,
12.733808,-1.2974,-0.1063,-1.6046,0.3856,-0.9355,0.0359,
12.775546,-1.2974,-0.1063,-1.6046,0.3856,-0.9355,0.0359,
12.776967,0.5030,-1.1655,-0.2693,0.3856,-0.9355,0.0359,
12.799454,0.5030,-1.1655,-0.2693,0.4768,-0.9018,-0.0244,
12.841049,0.5030,-1.1655,-0.2693,0.4768,-0.9018,-0.0244,
12.843161,1.7623,-1.0843,-0.2044,0.4768,-0.9018,-0.0244,
12.864949,1.7623,-1.0843,-0.2044,0.4026,-0.4898,-0.2876,
12.905145,1.7623,-1.0843,-0.2044,0.4026,-0.4898,-0.2876,
12.907004,2.1382,-0.6267,0.3662,0.4026,-0.4898,-0.2876,
12.930989,2.1382,-0.6267,0.3662,0.3184,-0.2097,-0.4867,
12.972211,2.1382,-0.6267,0.3662,0.3184,-0.2097,-0.4867,
12.973890,1.4192,0.1754,0.5369,0.3184,-0.2097,-0.4867,
12.997084,1.4192,0.1754,0.5369,0.2447,-0.1294,-0.3592,
13.037842,1.4192,0.1754,0.5369,0.2447,-0.1294,-0.3592,
13.039729,1.3481,0.1170,0.0883,0.2447,-0.1294,-0.3592,
13.061129,1.3481,0.1170,0.0883,0.0811,-0.2222,-0.0707,
13.102575,1.3481,0.1170,0.0883,0.0811,-0.2222,-0.0707,
13.103672,-0.1919,2.3659,-2.8245,0.0811,-0.2222,-0.0707,
13.125982,-0.1919,2.3659,-2.8245,-0.9187,0.1700,0.7341,
13.167608,-0.1919,2.3659,-2.8245,-0.9187,0.1700,0.7341,
13.168817,-0.2137,2.3402,-0.1377,-0.9187,0.1700,0.7341,
13.191501,-0.2137,2.3402,-0.1377,-0.5800,0.9223,0.6037,
13.233578,-0.2137,2.3402,-0.1377,-0.5800,0.9223,0.6037,
13.234195,1.3425,0.3797,-0.8499,-0.5800,0.9223,0.6037,
13.257416,1.3425,0.3797,-0.8499,-0.4574,1.8830,0.2827,
13.300133,1.3425,0.3797,-0.8499,-0.4574,1.8830,0.2827,
13.300658,-0.4372,-1.7514,-1.0520,-0.4574,1.8830,0.2827,
13.322239,-0.4372,-1.7514,-1.0520,-0.2873,2.2155,0.0614,
13.365355,-0.4372,-1.7514,-1.0520,-0.2873,2.2155,0.0614,
13.365958,-1.2222,-1.8324,-0.4449,-0.2873,2.2155,0.0614,
13.388892,-1.2222,-1.8324,-0.4449,-0.0535,1.6532,0.1558,
13.428892,-1.2222,-1.8324,-0.4449,-0.0535,1.6532,0.1558,
13.429460,-0.3721,-1.7306,-0.0972,-0.0535,1.6532,0.1558,
13.453905,-0.3721,-1.7306,-0.0972,0.2344,0.9820,0.2798,
13.495308,-0.3721,-1.7306,-0.0972,0.2344,0.9820,0.2798,
13.496314,0.6049,-0.7244,0.7179,0.2344,0.9820,0.2798,
13.518604,0.6049,-0.7244,0.7179,0.0134,0.8573,0.1020,
13.561673,0.6049,-0.7244,0.7179,0.0134,0.8573,0.1020,
13.563531,0.3392,1.1182,1.5407,0.0134,0.8573,0.1020,
13.584044,0.3392,1.1182,1.5407,-0.1542,0.5084,0.1767,
13.626686,0.3392,1.1182,1.5407,-0.1542,0.5084,0.1767,
13.628359,1.1104,2.8910,0.6021,-0.1542,0.5084,0.1767,
13.650325,1.1104,2.8910,0.6021,0.0275,0.1610,-0.0223,
13.692063,1.1104,2.8910,0.6021,0.0275,0.1610,-0.0223,
13.693650,-0.7245,0.5947,-1.9615,0.0275,0.1610,-0.0223,
13.716459,-0.7245,0.5947,-1.9615,0.0278,0.0780,-0.3132,
13.757937,-0.7245,0.5947,-1.9615,0.0278,0.0780,-0.3132,
13.759710,0.2382,-1.3386,-2.8407,0.0278,0.0780,-0.3132,
13.780879,0.2382,-1.3386,-2.8407,0.6072,0.5386,-0.0377,
13.822723,0.2382,-1.3386,-2.8407,0.6072,0.5386,-0.0377,
13.824556,-0.6977,-0.6195,-1.3318,0.6072,0.5386,-0.0377,
13.848083,-0.6977,-0.6195,-1.3318,0.6576,-0.0614,-0.2126,
13.888068,-0.6977,-0.6195,-1.3318,0.6576,-0.0614,-0.2126,
13.889290,-0.6157,-0.5820,-0.9406,0.6576,-0.0614,-0.2126,
13.912311,-0.6157,-0.5820,-0.9406,0.4769,-0.5284,0.0374,
13.954912,-0.6157,-0.5820,-0.9406,0.4769,-0.5284,0.0374,
13.956570,1.1380,-1.1507,-0.3616,0.4769,-0.5284,0.0374,
13.978863,1.1380,-1.1507,-0.3616,0.6000,-0.5200,-0.1822,
14.019465,1.1380,-1.1507,-0.3616,0.6000,-0.5200,-0.1822,
14.021464,1.8233,-0.9591,-0.0033,0.6000,-0.5200,-0.1822,
14.043043,1.8233,-0.9591,-0.0033,0.4246,-0.3592,-0.3520,
14.085725,1.8233,-0.9591,-0.0033,0.4246,-0.3592,-0.3520,
14.087478,2.5092,-0.2910,0.4620,0.4246,-0.3592,-0.3520,
14.109034,2.5092,-0.2910,0.4620,0.3010,-0.2028,-0.3610,
14.150676,2.5092,-0.2910,0.4620,0.3010,-0.2028,-0.3610,
14.151367,2.4568,0.0918,0.1312,0.3010,-0.2028,-0.3610,
14.173870,2.4568,0.0918,0.1312,0.3383,0.1109,-0.1616,
14.215735,2.4568,0.0918,0.1312,0.3383,0.1109,-0.1616,
14.216795,1.3546,2.9835,-0.4130,0.3383,0.1109,-0.1616,
14.240368,1.3546,2.9835,-0.4130,-0.0058,0.1686,0.4418,
14.281914,1.3546,2.9835,-0.4130,-0.0058,0.1686,0.4418,
14.282690,-1.2455,0.7451,-1.8067,-0.0058,0.1686,0.4418,
14.304685,-1.2455,0.7451,-1.8067,-0.8717,0.3479,0.7188,
14.346056,-1.2455,0.7451,-1.8067,-0.8717,0.3479,0.7188,
14.346959,-0.7702,1.5520,0.1385,-0.8717,0.3479,0.7188,
14.369111,-0.7702,1.5520,0.1385,-0.5657,0.8990,0.5000,
14.411459,-0.7702,1.5520,0.1385,-0.5657,0.8990,0.5000,
14.413003,0.9304,0.1001,-1.3838,-0.5657,0.8990,0.5000,
14.436237,0.9304,0.1001,-1.3838,-0.5438,1.8285,0.1860,
14.477297,0.9304,0.1001,-1.3838,-0.5438,1.8285,0.1860,
14.477851,-0.9878,-1.5638,-0.7664,-0.5438,1.8285,0.1860,
14.501109,-0.9878,-1.5638,-0.7664,-0.3491,1.8347,0.0084,
14.542763,-0.9878,-1.5638,-0.7664,-0.3491,1.8347,0.0084,
14.544092,-1.7121,-1.3349,-0.1347,-0.3491,1.8347,0.0084,
14.566623,-1.7121,-1.3349,-0.1347,-0.1781,1.1399,0.0718,
14.609073,-1.7121,-1.3349,-0.1347,-0.1781,1.1399,0.0718,
14.611091,-0.3752,-1.8400,0.2114,-0.1781,1.1399,0.0718,
14.633422,-0.3752,-1.8400,0.2114,0.1984,0.6921,0.1895,
14.674008,-0.3752,-1.8400,0.2114,0.1984,0.6921,0.1895,
14.675820,1.2857,-0.6613,0.9849,0.1984,0.6921,0.1895,
14.698633,1.2857,-0.6613,0.9849,0.0958,0.7737,0.0819,
14.739060,1.2857,-0.6613,0.9849,0.0958,0.7737,0.0819,
14.741331,0.3361,1.1630,1.9143,0.0958,0.7737,0.0819,
14.763149,0.3361,1.1630,1.9143,-0.1628,0.6909,0.2946,
14.804877,0.3361,1.1630,1.9143,-0.1628,0.6909,0.2946,
14.806554,0.3150,1.7796,0.5577,-0.1628,0.6909,0.2946,
14.829445,0.3150,1.7796,0.5577,0.1646,0.4024,-0.1973,
14.871775,0.3150,1.7796,0.5577,0.1646,0.4024,-0.1973,
14.873547,-0.8397,1.4365,-2.4576,0.1646,0.4024,-0.1973,
14.896465,-0.8397,1.4365,-2.4576,-0.1428,0.1150,-0.3080,
14.935413,-0.8397,1.4365,-2.4576,-0.1428,0.1150,-0.3080,
14.936875,0.2707,-1.4513,-2.4542,-0.1428,0.1150,-0.3080,
14.960868,0.2707,-1.4513,-2.4542,0.6341,0.5936,0.0909,
15.001964,0.2707,-1.4513,-2.4542,0.6341,0.5936,0.0909,
15.004201,-0.0534,-0.3711,-1.9289,0.6341,0.5936,0.0909,
15.024083,-0.0534,-0.3711,-1.9289,0.6625,0.1791,-0.2691,
15.065619,-0.0534,-0.3711,-1.9289,0.6625,0.1791,-0.2691,
15.066393,-0.5582,-1.1725,-0.6999,0.6625,0.1791,-0.2691,
15.090032,-0.5582,-1.1725,-0.6999,0.6011,-0.1382,-0.0551,
15.131966,-0.5582,-1.1725,-0.6999,0.6011,-0.1382,-0.0551,
15.132604,1.3245,-0.9005,-0.4674,0.6011,-0.1382,-0.0551,
15.155789,1.3245,-0.9005,-0.4674,0.6790,-0.0930,-0.1367,
15.197402,1.3245,-0.9005,-0.4674,0.6790,-0.0930,-0.1367,
15.197918,1.7365,-0.8349,-0.1650,0.6790,-0.0930,-0.1367,
15.221390,1.7365,-0.8349,-0.1650,0.5212,0.0941,-0.2917,
15.262845,1.7365,-0.8349,-0.1650,0.5212,0.0941,-0.2917,
15.263436,1.6355,-0.4001,0.4225,0.5212,0.0941,-0.2917,
15.286343,1.6355,-0.4001,0.4225,0.3908,-0.1038,-0.3106,
15.328170,1.6355,-0.4001,0.4225,0.3908,-0.1038,-0.3106,
15.328708,1.8519,0.1720,-0.0721,0.3908,-0.1038,-0.3106,
15.353667,1.8519,0.1720,-0.0721,0.2883,0.0504,-0.0753,
15.393863,1.8519,0.1720,-0.0721,0.2883,0.0504,-0.0753,
15.394543,1.6462,1.5653,-0.0031,0.2883,0.0504,-0.0753,
15.418452,1.6462,1.5653,-0.0031,0.0898,-0.0150,0.1417,
15.459882,1.6462,1.5653,-0.0031,0.0898,-0.0150,0.1417,
15.461608,0.0205,2.0449,-1.9467,0.0898,-0.0150,0.1417,
15.483284,0.0205,2.0449,-1.9467,-0.6464,0.4212,0.6029,
15.525917,0.0205,2.0449,-1.9467,-0.6464,0.4212,0.6029,
15.527704,-1.5321,0.4487,-0.2411,-0.6464,0.4212,0.6029,
15.549376,-1.5321,0.4487,-0.2411,-0.6452,0.8592,0.4583,
15.591871,-1.5321,0.4487,-0.2411,-0.6452,0.8592,0.4583,
15.593576,0.3224,1.5694,-0.6330,-0.6452,0.8592,0.4583,
15.615782,0.3224,1.5694,-0.6330,-0.5846,1.2396,0.2349,
15.656292,0.3224,1.5694,-0.6330,-0.5846,1.2396,0.2349,
15.657786,-1.0573,-1.2725,-0.6135,-0.5846,1.2396,0.2349,
15.680020,-1.0573,-1.2725,-0.6135,-0.4070,1.3990,0.1935,
15.720870,-1.0573,-1.2725,-0.6135,-0.4070,1.3990,0.1935,
15.722223,-1.3128,-1.8240,-0.0237,-0.4070,1.3990,0.1935,
15.744903,-1.3128,-1.8240,-0.0237,-0.1141,0.9898,0.1881,
15.786717,-1.3128,-1.8240,-0.0237,-0.1141,0.9898,0.1881,
15.788045,-0.5037,-1.7060,-0.2575,-0.1141,0.9898,0.1881,
15.810812,-0.5037,-1.7060,-0.2575,0.2437,0.4864,0.1944,
15.852392,-0.5037,-1.7060,-0.2575,0.2437,0.4864,0.1944,
15.852968,0.2287,-1.8361,0.9293,0.2437,0.4864,0.1944,
15.876453,0.2287,-1.8361,0.9293,0.4458,0.3665,0.1323,
15.917778,0.2287,-1.8361,0.9293,0.4458,0.3665,0.1323,
15.918440,0.4670,0.9517,1.0858,0.4458,0.3665,0.1323,
15.941343,0.4670,0.9517,1.0858,0.0866,0.2680,0.1762,
15.982788,0.4670,0.9517,1.0858,0.0866,0.2680,0.1762,
15.983352,0.3644,1.2784,2.1264,0.0866,0.2680,0.1762,
16.006565,0.3644,1.2784,2.1264,-0.1770,-0.1083,0.2201,
16.049202,0.3644,1.2784,2.1264,-0.1770,-0.1083,0.2201,
16.050928,-1.5057,3.2796,-0.1022,-0.1770,-0.1083,0.2201,
16.072601,-1.5057,3.2796,-0.1022,0.0064,-0.4965,-0.6384,
16.114432,-1.5057,3.2796,-0.1022,0.0064,-0.4965,-0.6384,
16.115977,-2.4239,-0.1178,-2.3799,0.0064,-0.4965,-0.6384,
16.138033,-2.4239,-0.1178,-2.3799,0.2117,-0.6758,-0.0667,
16.179433,-2.4239,-0.1178,-2.3799,0.2117,-0.6758,-0.0667,
16.181056,-1.7217,-0.7720,-0.8037,0.2117,-0.6758,-0.0667,
16.203870,-1.7217,-0.7720,-0.8037,0.3684,-1.1765,-0.0964,
16.245317,-1.7217,-0.7720,-0.8037,0.3684,-1.1765,-0.0964,
16.247452,-1.7658,-0.3783,-1.2750,0.3684,-1.1765,-0.0964,
16.270381,-1.7658,-0.3783,-1.2750,0.2546,-1.9522,0.1060,
16.310853,-1.7658,-0.3783,-1.2750,0.2546,-1.9522,0.1060,
16.312918,0.5552,-0.4474,-0.6608,0.2546,-1.9522,0.1060,
16.335352,0.5552,-0.4474,-0.6608,0.2447,-1.7359,0.0770,
16.376295,0.5552,-0.4474,-0.6608,0.2447,-1.7359,0.0770,
16.377993,1.2900,-0.8340,-0.2124,0.2447,-1.7359,0.0770,
16.401138,1.2900,-0.8340,-0.2124,0.1917,-1.2129,-0.2010,
16.442014,1.2900,-0.8340,-0.2124,0.1917,-1.2129,-0.2010,
16.443559,0.7748,-0.5992,1.0861,0.1917,-1.2129,-0.2010,
16.465491,0.7748,-0.5992,1.0861,0.1353,-1.0734,-0.3322,
16.507423,0.7748,-0.5992,1.0861,0.1353,-1.0734,-0.3322,
16.509353,1.5032,-0.2241,1.2802,0.1353,-1.0734,-0.3322,
16.532018,1.5032,-0.2241,1.2802,0.1466,-0.8598,0.0102,
16.572726,1.5032,-0.2241,1.2802,0.1466,-0.8598,0.0102,
16.574631,2.3828,0.2375,0.7039,0.1466,-0.8598,0.0102,
16.597157,2.3828,0.2375,0.7039,0.1481,-0.2595,0.0283,
16.638925,2.3828,0.2375,0.7039,0.1481,-0.2595,0.0283,
16.640669,-0.2097,3.1948,0.4918,0.1481,-0.2595,0.0283,
16.663346,-0.2097,3.1948,0.4918,-0.2932,-0.2619,0.5255,
16.705163,-0.2097,3.1948,0.4918,-0.2932,-0.2619,0.5255,
16.707380,-1.6667,0.1381,-1.2054,-0.2932,-0.2619,0.5255,
16.727689,-1.6667,0.1381,-1.2054,-0.9103,0.1286,0.5713,
16.769009,-1.6667,0.1381,-1.2054,-0.9103,0.1286,0.5713,
16.769688,-1.5315,2.0875,0.5979,-0.9103,0.1286,0.5713,
16.792814,-1.5315,2.0875,0.5979,-0.6513,0.1709,0.2743,
16.833856,-1.5315,2.0875,0.5979,-0.6513,0.1709,0.2743,
16.835157,0.0679,-0.9012,-0.5490,-0.6513,0.1709,0.2743,
16.858358,0.0679,-0.9012,-0.5490,-0.6921,0.4571,-0.0391,
16.899848,0.0679,-0.9012,-0.5490,-0.6921,0.4571,-0.0391,
16.900539,-1.1119,-2.0426,0.8942,-0.6921,0.4571,-0.0391,
16.924067,-1.1119,-2.0426,0.8942,-0.2683,0.2616,-0.1584,
16.965127,-1.1119,-2.0426,0.8942,-0.2683,0.2616,-0.1584,
16.965801,-0.7035,-1.6860,0.8948,-0.2683,0.2616,-0.1584,
16.989524,-0.7035,-1.6860,0.8948,0.0145,-0.0011,-0.0945,
17.031347,-0.7035,-1.6860,0.8948,0.0145,-0.0011,-0.0945,
17.033202,0.2005,-0.8609,1.7124,0.0145,-0.0011,-0.0945,
17.054600,0.2005,-0.8609,1.7124,-0.0505,0.0968,0.0363,
17.096750,0.2005,-0.8609,1.7124,-0.0505,0.0968,0.0363,
17.097364,0.2328,1.7705,1.9844,-0.0505,0.0968,0.0363,
17.119760,0.2328,1.7705,1.9844,-0.2240,0.1390,0.0113,
17.161420,0.2328,1.7705,1.9844,-0.2240,0.1390,0.0113,
17.161987,-0.2767,3.8497,1.7909,-0.2240,0.1390,0.0113,
17.185224,-0.2767,3.8497,1.7909,-0.2384,-0.3911,-0.0594,
17.227289,-0.2767,3.8497,1.7909,-0.2384,-0.3911,-0.0594,
17.227848,-1.6495,-0.2256,-1.2982,-0.2384,-0.3911,-0.0594,
17.251090,-1.6495,-0.2256,-1.2982,-0.1029,-0.4210,-0.3230,
17.292450,-1.6495,-0.2256,-1.2982,-0.1029,-0.4210,-0.3230,
17.292978,-0.8391,-1.2507,-1.9562,-0.1029,-0.4210,-0.3230,
17.317929,-0.8391,-1.2507,-1.9562,0.3651,-0.4397,-0.2434,
17.358047,-0.8391,-1.2507,-1.9562,0.3651,-0.4397,-0.2434,
17.359719,-0.2339,-0.7846,-1.2354,0.3651,-0.4397,-0.2434,
17.381722,-0.2339,-0.7846,-1.2354,0.5736,-0.5838,-0.1906,
17.423856,-0.2339,-0.7846,-1.2354,0.5736,-0.5838,-0.1906,
17.425437,-0.4807,-0.5422,-1.1211,0.5736,-0.5838,-0.1906,
17.450411,-0.4807,-0.5422,-1.1211,0.3981,-0.8309,-0.1814,
17.489957,-0.4807,-0.5422,-1.1211,0.3981,-0.8309,-0.1814,
17.491897,0.4614,-1.0144,-0.4596,0.3981,-0.8309,-0.1814,
17.513512,0.4614,-1.0144,-0.4596,0.4239,-1.0062,-0.2069,
17.555128,0.4614,-1.0144,-0.4596,0.4239,-1.0062,-0.2069,
17.556864,1.7299,-1.0924,0.1592,0.4239,-1.0062,-0.2069,
17.580420,1.7299,-1.0924,0.1592,0.3338,-0.6116,-0.3034,
17.620910,1.7299,-1.0924,0.1592,0.3338,-0.6116,-0.3034,
17.622227,1.9974,-0.2388,0.6907,0.3338,-0.6116,-0.3034,
17.645019,1.9974,-0.2388,0.6907,0.2804,-0.4322,-0.4026,
17.686754,1.9974,-0.2388,0.6907,0.2804,-0.4322,-0.4026,
17.688049,2.3343,0.4997,0.5072,0.2804,-0.4322,-0.4026,
17.710815,2.3343,0.4997,0.5072,0.2721,-0.1231,-0.1184,
17.752637,2.3343,0.4997,0.5072,0.2721,-0.1231,-0.1184,
17.754467,0.5940,2.5740,0.1647,0.2721,-0.1231,-0.1184,
17.775023,0.5940,2.5740,0.1647,0.1064,-0.0275,0.3659,
17.816329,0.5940,2.5740,0.1647,0.1064,-0.0275,0.3659,
17.818563,-0.6541,1.2609,-2.0096,0.1064,-0.0275,0.3659,
17.841514,-0.6541,1.2609,-2.0096,-0.8274,0.1904,0.5858,
17.883172,-0.6541,1.2609,-2.0096,-0.8274,0.1904,0.5858,
17.885316,-1.1792,0.7900,0.3690,-0.8274,0.1904,0.5858,
17.906033,-1.1792,0.7900,0.3690,-0.6185,0.6139,0.4734,
17.947592,-1.1792,0.7900,0.3690,-0.6185,0.6139,0.4734,
17.949126,0.5470,0.0806,-1.0149,-0.6185,0.6139,0.4734,
17.971990,0.5470,0.0806,-1.0149,-0.5948,1.4048,0.1773,
18.012684,0.5470,0.0806,-1.0149,-0.5948,1.4048,0.1773,
18.014562,-0.9634,-1.5592,-0.2531,-0.5948,1.4048,0.1773,
18.036235,-0.9634,-1.5592,-0.2531,-0.2540,1.4195,0.0492,
18.079001,-0.9634,-1.5592,-0.2531,-0.2540,1.4195,0.0492,
18.080625,-1.2653,-1.3833,0.2486,-0.2540,1.4195,0.0492,
18.103181,-1.2653,-1.3833,0.2486,-0.0316,0.9400,0.0367,
18.145171,-1.2653,-1.3833,0.2486,-0.0316,0.9400,0.0367,
18.147280,-0.0359,-1.6434,0.3322,-0.0316,0.9400,0.0367,
18.169257,-0.0359,-1.6434,0.3322,0.0747,0.6495,0.1049,
18.209800,-0.0359,-1.6434,0.3322,0.0747,0.6495,0.1049,
18.211591,0.8413,0.1502,1.4003,0.0747,0.6495,0.1049,
18.234778,0.8413,0.1502,1.4003,-0.0774,0.5768,0.1674,
18.275004,0.8413,0.1502,1.4003,-0.0774,0.5768,0.1674,
18.277019,0.6877,0.5442,2.6015,-0.0774,0.5768,0.1674,
18.298804,0.6877,0.5442,2.6015,-0.4081,0.5127,0.3181,
18.340112,0.6877,0.5442,2.6015,-0.4081,0.5127,0.3181,
18.341433,-0.4561,3.0279,-1.0394,-0.4081,0.5127,0.3181,
18.364401,-0.4561,3.0279,-1.0394,0.1936,0.2300,-0.4614,
18.405378,-0.4561,3.0279,-1.0394,0.1936,0.2300,-0.4614,
18.407371,-0.7983,-0.2158,-2.4231,0.1936,0.2300,-0.4614,
18.430011,-0.7983,-0.2158,-2.4231,-0.0257,0.5095,-0.2181,
18.473149,-0.7983,-0.2158,-2.4231,-0.0257,0.5095,-0.2181,
18.475051,0.7670,-0.7199,-1.9065,-0.0257,0.5095,-0.2181,
18.496369,0.7670,-0.7199,-1.9065,0.4885,0.3390,-0.3407,
18.536776,0.7670,-0.7199,-1.9065,0.4885,0.3390,-0.3407,
18.538573,-0.9901,-1.0798,-1.5471,0.4885,0.3390,-0.3407,
18.561718,-0.9901,-1.0798,-1.5471,0.5171,-0.1135,-0.2732,
18.603388,-0.9901,-1.0798,-1.5471,0.5171,-0.1135,-0.2732,
18.605337,0.1936,-0.9266,-0.7794,0.5171,-0.1135,-0.2732,
18.626417,0.1936,-0.9266,-0.7794,0.5453,-0.4261,-0.1022,
18.669010,0.1936,-0.9266,-0.7794,0.5453,-0.4261,-0.1022,
18.671115,1.7999,-1.0892,-0.5302,0.5453,-0.4261,-0.1022,
18.692158,1.7999,-1.0892,-0.5302,0.4841,-0.1713,-0.2388,
18.732930,1.7999,-1.0892,-0.5302,0.4841,-0.1713,-0.2388,
18.733470,1.8096,-0.3107,0.1840,0.4841,-0.1713,-0.2388,
18.757340,1.8096,-0.3107,0.1840,0.3126,-0.2074,-0.2729,
18.799636,1.8096,-0.3107,0.1840,0.3126,-0.2074,-0.2729,
18.800174,1.9343,0.3200,0.3103,0.3126,-0.2074,-0.2729,
18.821841,1.9343,0.3200,0.3103,0.2315,-0.0223,0.0127,
18.865801,1.9343,0.3200,0.3103,0.2315,-0.0223,0.0127,
18.866478,1.8407,2.3611,-0.5867,0.2315,-0.0223,0.0127,
18.887319,1.8407,2.3611,-0.5867,0.1312,0.4869,0.3294,
18.928472,1.8407,2.3611,-0.5867,0.1312,0.4869,0.3294,
18.929063,-0.4151,1.5873,-2.2291,0.1312,0.4869,0.3294,
18.954025,-0.4151,1.5873,-2.2291,-0.7025,0.6394,0.4169,
18.995623,-0.4151,1.5873,-2.2291,-0.7025,0.6394,0.4169,
18.996165,-0.4896,0.8873,-0.3396,-0.7025,0.6394,0.4169,
19.019963,-0.4896,0.8873,-0.3396,-0.4763,1.1564,0.4307,
19.061129,-0.4896,0.8873,-0.3396,-0.4763,1.1564,0.4307,
19.061723,1.2419,-0.4095,-1.4674,-0.4763,1.1564,0.4307,
19.084810,1.2419,-0.4095,-1.4674,-0.4444,1.9688,0.1506,
19.126302,1.2419,-0.4095,-1.4674,-0.4444,1.9688,0.1506,
19.127861,-0.5124,-1.5929,-0.5825,-0.4444,1.9688,0.1506,
19.149145,-0.5124,-1.5929,-0.5825,-0.1785,2.1250,0.1535,
19.190951,-0.5124,-1.5929,-0.5825,-0.1785,2.1250,0.1535,
19.192397,0.2708,-0.9316,-0.4901,-0.1785,2.1250,0.1535,
19.215777,0.2708,-0.9316,-0.4901,0.1239,2.0415,0.1604,
19.257060,0.2708,-0.9316,-0.4901,0.1239,2.0415,0.1604,
19.259120,0.1430,-1.4326,-0.3148,0.1239,2.0415,0.1604,
19.280755,0.1430,-1.4326,-0.3148,0.2929,1.6603,0.1828,
19.322597,0.1430,-1.4326,-0.3148,0.2929,1.6603,0.1828,
19.324607,0.0171,-0.0873,0.0625,0.2929,1.6603,0.1828,
19.346778,0.0171,-0.0873,0.0625,0.0648,1.3605,0.1509,
19.387603,0.0171,-0.0873,0.0625,0.0648,1.3605,0.1509,
19.388981,-0.2056,1.1055,1.4659,0.0648,1.3605,0.1509,
19.412975,-0.2056,1.1055,1.4659,-0.0954,0.7321,0.3777,
19.454831,-0.2056,1.1055,1.4659,-0.0954,0.7321,0.3777,
19.456736,0.7925,3.7542,0.1222,-0.0954,0.7321,0.3777,
19.478001,0.7925,3.7542,0.1222,0.2501,0.0994,0.0644,
19.518383,0.7925,3.7542,0.1222,0.2501,0.0994,0.0644,
19.519966,-0.6422,0.2067,-1.2956,0.2501,0.0994,0.0644,
19.542735,-0.6422,0.2067,-1.2956,0.0189,0.3309,-0.2775,
19.584878,-0.6422,0.2067,-1.2956,0.0189,0.3309,-0.2775,
19.586586,0.5034,-1.1480,-2.5064,0.0189,0.3309,-0.2775,
19.609166,0.5034,-1.1480,-2.5064,0.3902,0.5044,-0.2645,
19.650554,0.5034,-1.1480,-2.5064,0.3902,0.5044,-0.2645,
19.652063,0.0565,-1.0054,-1.1108,0.3902,0.5044,-0.2645,
19.673551,0.0565,-1.0054,-1.1108,0.6173,0.3957,-0.1625,
19.715386,0.0565,-1.0054,-1.1108,0.6173,0.3957,-0.1625,
19.715933,0.2595,-0.4590,-1.1143,0.6173,0.3957,-0.1625,
19.739959,0.2595,-0.4590,-1.1143,0.5026,0.1503,-0.0898,
19.782006,0.2595,-0.4590,-1.1143,0.5026,0.1503,-0.0898,
19.784070,1.1250,-1.1966,-0.4873,0.5026,0.1503,-0.0898,
19.805862,1.1250,-1.1966,-0.4873,0.6384,0.0521,-0.2166,
19.845558,1.1250,-1.1966,-0.4873,0.6384,0.0521,-0.2166,
19.846292,1.5250,-0.8020,-0.2960,0.6384,0.0521,-0.2166,
19.869247,1.5250,-0.8020,-0.2960,0.5017,0.0667,-0.2993,
19.912875,1.5250,-0.8020,-0.2960,0.5017,0.0667,-0.2993,
19.913536,1.6530,0.4759,0.6365,0.5017,0.0667,-0.2993,
19.934632,1.6530,0.4759,0.6365,0.3056,-0.2201,-0.1356,
19.977564,1.6530,0.4759,0.6365,0.3056,-0.2201,-0.1356,
19.979103,2.9658,0.1810,-0.1379,0.3056,-0.2201,-0.1356,
20.000937,2.9658,0.1810,-0.1379,0.3160,0.3317,0.1943,
20.042238,2.9658,0.1810,-0.1379,0.3160,0.3317,0.1943,
20.044039,0.9099,2.5415,-0.5749,0.3160,0.3317,0.1943,
20.067218,0.9099,2.5415,-0.5749,-0.0901,0.4229,0.5345,
20.109961,0.9099,2.5415,-0.5749,-0.0901,0.4229,0.5345,
20.111731,-1.1091,0.2050,-1.6350,-0.0901,0.4229,0.5345,
20.132398,-1.1091,0.2050,-1.6350,-0.7283,0.8039,0.5947,
20.175371,-1.1091,0.2050,-1.6350,-0.7283,0.8039,0.5947,
20.177064,-0.0348,2.0530,0.0219,-0.7283,0.8039,0.5947,
20.198394,-0.0348,2.0530,0.0219,-0.3961,1.1758,0.4029,
20.240447,-0.0348,2.0530,0.0219,-0.3961,1.1758,0.4029,
20.242561,0.3122,-0.8998,-1.0293,-0.3961,1.1758,0.4029,
20.262813,0.3122,-0.8998,-1.0293,-0.3931,1.8805,0.1067,
20.306396,0.3122,-0.8998,-1.0293,-0.3931,1.8805,0.1067,
20.308032,-0.7384,-1.6762,-0.3769,-0.3931,1.8805,0.1067,
20.329935,-0.7384,-1.6762,-0.3769,-0.1396,1.8066,-0.0177,
20.370816,-0.7384,-1.6762,-0.3769,-0.1396,1.8066,-0.0177,
20.371335,-1.0213,-1.3028,0.0387,-0.1396,1.8066,-0.0177,
20.394385,-1.0213,-1.3028,0.0387,0.1587,1.1238,0.0629,
20.436051,-1.0213,-1.3028,0.0387,0.1587,1.1238,0.0629,
20.436675,-0.1399,-1.6173,0.4482,0.1587,1.1238,0.0629,
20.459257,-0.1399,-1.6173,0.4482,0.1747,0.7659,0.1568,
20.501165,-0.1399,-1.6173,0.4482,0.1747,0.7659,0.1568,
20.501582,-0.1021,1.2623,0.9889,0.1747,0.7659,0.1568,
20.525258,-0.1021,1.2623,0.9889,-0.2065,0.5588,0.1859,
20.565793,-0.1021,1.2623,0.9889,-0.2065,0.5588,0.1859,
20.566515,0.3818,2.6585,2.1419,-0.2065,0.5588,0.1859,
20.591187,0.3818,2.6585,2.1419,-0.4239,-0.0475,0.1863,
20.632705,0.3818,2.6585,2.1419,-0.4239,-0.0475,0.1863,
20.634616,-0.8042,0.3819,-1.2999,-0.4239,-0.0475,0.1863,
20.655469,-0.8042,0.3819,-1.2999,-0.1287,0.0799,-0.3395,
20.697129,-0.8042,0.3819,-1.2999,-0.1287,0.0799,-0.3395,
20.699159,-0.4580,-0.8817,-1.7174,-0.1287,0.0799,-0.3395,
20.721373,-0.4580,-0.8817,-1.7174,0.2865,0.1823,-0.2233,
20.762800,-0.4580,-0.8817,-1.7174,0.2865,0.1823,-0.2233,
20.763409,-0.1694,-0.8405,-1.2125,0.2865,0.1823,-0.2233,
20.786419,-0.1694,-0.8405,-1.2125,0.4794,-0.0512,-0.1180,
20.828145,-0.1694,-0.8405,-1.2125,0.4794,-0.0512,-0.1180,
20.828740,-0.7794,-0.6164,-1.2156,0.4794,-0.0512,-0.1180,
20.852338,-0.7794,-0.6164,-1.2156,0.4097,-0.5508,-0.0545,
20.894941,-0.7794,-0.6164,-1.2156,0.4097,-0.5508,-0.0545,
20.895670,0.4610,-1.1080,-0.8445,0.4097,-0.5508,-0.0545,
20.918310,0.4610,-1.1080,-0.8445,0.4789,-0.6906,-0.0829,
20.959951,0.4610,-1.1080,-0.8445,0.4789,-0.6906,-0.0829,
20.960616,1.6919,-0.9363,-0.2618,0.4789,-0.6906,-0.0829,
20.983782,1.6919,-0.9363,-0.2618,0.3906,-0.3902,-0.3025,
21.025158,1.6919,-0.9363,-0.2618,0.3906,-0.3902,-0.3025,
21.026526,1.7601,-0.1220,0.2757,0.3906,-0.3902,-0.3025,
21.048602,1.7601,-0.1220,0.2757,0.2538,-0.3285,-0.3896,
21.090517,1.7601,-0.1220,0.2757,0.2538,-0.3285,-0.3896,
21.092278,2.1221,0.3280,0.3391,0.2538,-0.3285,-0.3896,
21.114850,2.1221,0.3280,0.3391,0.3311,-0.0959,-0.0400,
21.155920,2.1221,0.3280,0.3391,0.3311,-0.0959,-0.0400,
21.157899,0.9862,2.4136,-0.3101,0.3311,-0.0959,-0.0400,
21.180885,0.9862,2.4136,-0.3101,0.0750,0.0757,0.4468,
21.221859,0.9862,2.4136,-0.3101,0.0750,0.0757,0.4468,
21.223798,-0.6083,0.7349,-1.9024,0.0750,0.0757,0.4468,
21.246298,-0.6083,0.7349,-1.9024,-0.6930,0.4123,0.6710,
21.287452,-0.6083,0.7349,-1.9024,-0.6930,0.4123,0.6710,
21.288654,-0.4405,1.4929,0.1212,-0.6930,0.4123,0.6710,
21.312230,-0.4405,1.4929,0.1212,-0.4792,0.9299,0.4699,
21.352699,-0.4405,1.4929,0.1212,-0.4792,0.9299,0.4699,
21.354540,0.7095,-0.0205,-1.1268,-0.4792,0.9299,0.4699,
21.378502,0.7095,-0.0205,-1.1268,-0.4468,1.7596,0.1665,
21.420230,0.7095,-0.0205,-1.1268,-0.4468,1.7596,0.1665,
21.423054,-0.7669,-1.9308,-0.3728,-0.4468,1.7596,0.1665,
21.441958,-0.7669,-1.9308,-0.3728,-0.1031,1.8358,-0.0354,
21.483562,-0.7669,-1.9308,-0.3728,-0.1031,1.8358,-0.0354,
21.484944,-1.5883,-1.3625,0.0087,-0.1031,1.8358,-0.0354,
21.506771,-1.5883,-1.3625,0.0087,0.0096,1.1594,-0.0202,
21.548524,-1.5883,-1.3625,0.0087,0.0096,1.1594,-0.0202,
21.550722,-0.6636,-1.6030,0.2872,0.0096,1.1594,-0.0202,
21.572560,-0.6636,-1.6030,0.2872,0.0906,0.6321,0.1727,
21.614189,-0.6636,-1.6030,0.2872,0.0906,0.6321,0.1727,
21.615685,0.3813,0.5231,0.9497,0.0906,0.6321,0.1727,
21.637709,0.3813,0.5231,0.9497,-0.1087,0.4801,0.0887,
21.679509,0.3813,0.5231,0.9497,-0.1087,0.4801,0.0887,
21.681398,0.6204,0.9907,1.9434,-0.1087,0.4801,0.0887,
21.703476,0.6204,0.9907,1.9434,-0.6704,0.0754,0.4323,
21.745060,0.6204,0.9907,1.9434,-0.6704,0.0754,0.4323,
21.745535,-0.4774,1.5828,-0.9504,-0.6704,0.0754,0.4323,
21.769033,-0.4774,1.5828,-0.9504,0.0423,0.0191,-0.3760,
21.809585,-0.4774,1.5828,-0.9504,0.0423,0.0191,-0.3760,
21.810157,-1.7786,-0.2538,-0.9719,0.0423,0.0191,-0.3760,
21.835575,-1.7786,-0.2538,-0.9719,0.3137,-0.0334,-0.1078,
21.876558,-1.7786,-0.2538,-0.9719,0.3137,-0.0334,-0.1078,
21.878691,-0.1329,-0.6486,-1.3987,0.3137,-0.0334,-0.1078,
21.899804,-0.1329,-0.6486,-1.3987,0.6141,-0.1874,-0.1594,
21.942477,-0.1329,-0.6486,-1.3987,0.6141,-0.1874,-0.1594,
21.944430,-1.2540,-0.6168,-1.0450,0.6141,-0.1874,-0.1594,
21.965496,-1.2540,-0.6168,-1.0450,0.4704,-0.6942,-0.0696,
22.007457,-1.2540,-0.6168,-1.0450,0.4704,-0.6942,-0.0696,
22.009429,0.3787,-1.0722,-0.6575,0.4704,-0.6942,-0.0696,
22.030606,0.3787,-1.0722,-0.6575,0.5067,-0.8059,-0.1507,
22.072712,0.3787,-1.0722,-0.6575,0.5067,-0.8059,-0.1507,
22.074973,1.0371,-1.0716,-0.1967,0.5067,-0.8059,-0.1507,
22.097302,1.0371,-1.0716,-0.1967,0.3618,-0.6048,-0.4443,
22.139594,1.0371,-1.0716,-0.1967,0.3618,-0.6048,-0.4443,
22.141590,1.5294,-0.2952,0.3107,0.3618,-0.6048,-0.4443,
22.163040,1.5294,-0.2952,0.3107,0.2642,-0.5385,-0.3772,
22.202945,1.5294,-0.2952,0.3107,0.2642,-0.5385,-0.3772,
22.203983,2.1054,0.2537,0.6557,0.2642,-0.5385,-0.3772,
22.227611,2.1054,0.2537,0.6557,0.2144,-0.2414,-0.1778,
22.269321,2.1054,0.2537,0.6557,0.2144,-0.2414,-0.1778,
22.271170,1.3906,2.2634,-0.2432,0.2144,-0.2414,-0.1778,
22.293065,1.3906,2.2634,-0.2432,0.1704,0.1046,0.1994,
22.333707,1.3906,2.2634,-0.2432,0.1704,0.1046,0.1994,
22.335586,-0.4859,1.6465,-1.5972,0.1704,0.1046,0.1994,
22.358449,-0.4859,1.6465,-1.5972,-0.7607,0.1567,0.5884,
22.400292,-0.4859,1.6465,-1.5972,-0.7607,0.1567,0.5884,
22.402449,-0.8433,0.7634,0.2573,-0.7607,0.1567,0.5884,
22.424214,-0.8433,0.7634,0.2573,-0.6014,0.6613,0.4522,
22.464532,-0.8433,0.7634,0.2573,-0.6014,0.6613,0.4522,
22.465176,1.1035,-0.2196,-0.8887,-0.6014,0.6613,0.4522,
22.487998,1.1035,-0.2196,-0.8887,-0.5156,1.6362,0.1846,
22.530493,1.1035,-0.2196,-0.8887,-0.5156,1.6362,0.1846,
22.531063,-1.0725,-1.8418,-0.5635,-0.5156,1.6362,0.1846,
22.553981,-1.0725,-1.8418,-0.5635,-0.2237,1.7533,0.1261,
22.595682,-1.0725,-1.8418,-0.5635,-0.2237,1.7533,0.1261,
22.596256,-1.6013,-1.1208,0.4543,-0.2237,1.7533,0.1261,
22.621110,-1.6013,-1.1208,0.4543,-0.0342,1.0977,0.1516,
22.661699,-1.6013,-1.1208,0.4543,-0.0342,1.0977,0.1516,
22.662357,-0.3000,-1.7046,0.3712,-0.0342,1.0977,0.1516,
22.687608,-0.3000,-1.7046,0.3712,0.1370,0.6597,0.1353,
22.728447,-0.3000,-1.7046,0.3712,0.1370,0.6597,0.1353,
22.729012,0.7512,0.4729,1.1672,0.1370,0.6597,0.1353,
22.751163,0.7512,0.4729,1.1672,-0.0254,0.6019,0.0852,
22.791931,0.7512,0.4729,1.1672,-0.0254,0.6019,0.0852,
22.793742,0.3857,0.6704,2.4046,-0.0254,0.6019,0.0852,
22.816483,0.3857,0.6704,2.4046,-0.6942,0.1738,0.3538,
22.858081,0.3857,0.6704,2.4046,-0.6942,0.1738,0.3538,
22.860100,-0.9361,1.5474,-1.4937,-0.6942,0.1738,0.3538,
22.882455,-0.9361,1.5474,-1.4937,0.1280,0.0339,-0.3065,
22.925291,-0.9361,1.5474,-1.4937,0.1280,0.0339,-0.3065,
22.927086,-1.1575,-0.8540,-1.5985,0.1280,0.0339,-0.3065,
22.948713,-1.1575,-0.8540,-1.5985,0.3768,0.2870,0.0099,
22.992420,-1.1575,-0.8540,-1.5985,0.3768,0.2870,0.0099,
22.993651,-0.1796,-0.2296,-1.7165,0.3768,0.2870,0.0099,
23.013652,-0.1796,-0.2296,-1.7165,0.6145,-0.1481,-0.1846,
23.054784,-0.1796,-0.2296,-1.7165,0.6145,-0.1481,-0.1846,
23.057045,-1.1802,-1.0434,-1.4517,0.6145,-0.1481,-0.1846,
23.079573,-1.1802,-1.0434,-1.4517,0.4618,-0.5366,-0.1165,
23.121763,-1.1802,-1.0434,-1.4517,0.4618,-0.5366,-0.1165,
23.124084,0.2635,-0.9135,-0.7154,0.4618,-0.5366,-0.1165,
23.143420,0.2635,-0.9135,-0.7154,0.5464,-0.7955,-0.1246,
23.185717,0.2635,-0.9135,-0.7154,0.5464,-0.7955,-0.1246,
23.186478,1.9648,-0.7373,-0.0566,0.5464,-0.7955,-0.1246,
23.209618,1.9648,-0.7373,-0.0566,0.3517,-0.3994,-0.3687,
23.250965,1.9648,-0.7373,-0.0566,0.3517,-0.3994,-0.3687,
23.251636,2.0119,-0.3037,0.7675,0.3517,-0.3994,-0.3687,
23.275166,2.0119,-0.3037,0.7675,0.2175,-0.2686,-0.3803,
23.316083,2.0119,-0.3037,0.7675,0.2175,-0.2686,-0.3803,
23.316564,2.2715,-0.1920,0.4846,0.2175,-0.2686,-0.3803,
23.340463,2.2715,-0.1920,0.4846,0.3483,0.1271,-0.1290,
23.381988,2.2715,-0.1920,0.4846,0.3483,0.1271,-0.1290,
23.382550,0.2403,3.5005,-0.5541,0.3483,0.1271,-0.1290,
23.405029,0.2403,3.5005,-0.5541,-0.0260,0.0611,0.2503,
23.446361,0.2403,3.5005,-0.5541,-0.0260,0.0611,0.2503,
23.447051,-1.1528,0.6814,-1.7142,-0.0260,0.0611,0.2503,
23.470460,-1.1528,0.6814,-1.7142,-0.8050,0.1947,0.5313,
23.513918,-1.1528,0.6814,-1.7142,-0.8050,0.1947,0.5313,
23.515137,-0.2069,1.4082,0.2968,-0.8050,0.1947,0.5313,
23.536859,-0.2069,1.4082,0.2968,-0.4962,0.8204,0.3960,
23.579630,-0.2069,1.4082,0.2968,-0.4962,0.8204,0.3960,
23.580713,0.5848,-0.7319,-1.1966,-0.4962,0.8204,0.3960,
23.601560,0.5848,-0.7319,-1.1966,-0.4650,1.5484,0.0399,
23.643014,0.5848,-0.7319,-1.1966,-0.4650,1.5484,0.0399,
23.643607,-1.1892,-1.9769,-0.1963,-0.4650,1.5484,0.0399,
23.667944,-1.1892,-1.9769,-0.1963,-0.1474,1.6061,0.0848,
23.709292,-1.1892,-1.9769,-0.1963,-0.1474,1.6061,0.0848,
23.711019,-0.4928,-0.9681,-0.1387,-0.1474,1.6061,0.0848,
23.732634,-0.4928,-0.9681,-0.1387,0.0684,1.2631,0.1173,
23.774660,-0.4928,-0.9681,-0.1387,0.0684,1.2631,0.1173,
23.776108,0.2351,-1.3745,0.3413,0.0684,1.2631,0.1173,
23.797820,0.2351,-1.3745,0.3413,0.1715,0.9331,0.1675,
23.841072,0.2351,-1.3745,0.3413,0.1715,0.9331,0.1675,
23.842904,-0.0875,1.1013,1.0756,0.1715,0.9331,0.1675,
23.864277,-0.0875,1.1013,1.0756,-0.2398,0.6669,0.1742,
23.904896,-0.0875,1.1013,1.0756,-0.2398,0.6669,0.1742,
23.906618,0.0313,1.2961,2.3640,-0.2398,0.6669,0.1742,
23.928957,0.0313,1.2961,2.3640,-0.8905,-0.1681,0.4517,
23.971591,0.0313,1.2961,2.3640,-0.8905,-0.1681,0.4517,
23.973032,0.0919,0.4318,-2.2296,-0.8905,-0.1681,0.4517,
23.995596,0.0919,0.4318,-2.2296,-0.2211,0.2199,-0.2781,
24.036036,0.0919,0.4318,-2.2296,-0.2211,0.2199,-0.2781,
24.037258,-1.0067,-0.4330,-1.7458,-0.2211,0.2199,-0.2781,
24.061329,-1.0067,-0.4330,-1.7458,0.4368,0.3128,-0.0864,
24.101501,-1.0067,-0.4330,-1.7458,0.4368,0.3128,-0.0864,
24.102442,0.0945,-0.4928,-1.8900,0.4368,0.3128,-0.0864,
24.125072,0.0945,-0.4928,-1.8900,0.6086,0.1573,-0.2653,
24.169268,0.0945,-0.4928,-1.8900,0.6086,0.1573,-0.2653,
24.170049,-0.4425,-1.2046,-0.9324,0.6086,0.1573,-0.2653,
24.191500,-0.4425,-1.2046,-0.9324,0.5793,-0.1520,-0.1116,
24.233462,-0.4425,-1.2046,-0.9324,0.5793,-0.1520,-0.1116,
24.235267,1.2528,-1.3137,-0.8605,0.5793,-0.1520,-0.1116,
24.256496,1.2528,-1.3137,-0.8605,0.7037,-0.0405,-0.2318,
24.298268,1.2528,-1.3137,-0.8605,0.7037,-0.0405,-0.2318,
24.298871,1.1790,-0.8497,-0.2648,0.7037,-0.0405,-0.2318,
24.322500,1.1790,-0.8497,-0.2648,0.5843,0.0173,-0.3713,
24.363855,1.1790,-0.8497,-0.2648,0.5843,0.0173,-0.3713,
24.365246,1.0822,0.3338,0.2441,0.5843,0.0173,-0.3713,
24.387304,1.0822,0.3338,0.2441,0.3221,-0.4239,-0.3290,
24.429340,1.0822,0.3338,0.2441,0.3221,-0.4239,-0.3290,
24.431004,2.5447,0.5460,0.1247,0.3221,-0.4239,-0.3290,
24.455731,2.5447,0.5460,0.1247,0.2521,-0.2437,0.0680,
24.495091,2.5447,0.5460,0.1247,0.2521,-0.2437,0.0680,
24.495768,1.3415,2.3721,-0.4166,0.2521,-0.2437,0.0680,
24.519801,1.3415,2.3721,-0.4166,0.0622,0.2065,0.3601,
24.560021,1.3415,2.3721,-0.4166,0.0622,0.2065,0.3601,
24.560522,-1.2203,0.6245,-1.8852,0.0622,0.2065,0.3601,
24.584555,-1.2203,0.6245,-1.8852,-0.7491,0.5092,0.6063,
24.626576,-1.2203,0.6245,-1.8852,-0.7491,0.5092,0.6063,
24.627095,-1.1541,1.9905,0.2575,-0.7491,0.5092,0.6063,
24.649505,-1.1541,1.9905,0.2575,-0.5058,0.7541,0.4901,
24.691357,-1.1541,1.9905,0.2575,-0.5058,0.7541,0.4901,
24.693031,0.9313,-0.5870,-1.1219,-0.5058,0.7541,0.4901,
24.716017,0.9313,-0.5870,-1.1219,-0.4137,1.7243,0.1862,
24.757324,0.9313,-0.5870,-1.1219,-0.4137,1.7243,0.1862,
24.759282,-0.9626,-1.7567,-0.1963,-0.4137,1.7243,0.1862,
24.781017,-0.9626,-1.7567,-0.1963,-0.1307,1.7820,0.0535,
24.822565,-0.9626,-1.7567,-0.1963,-0.1307,1.7820,0.0535,
24.824478,-1.3475,-1.4805,-0.0418,-0.1307,1.7820,0.0535,
24.845351,-1.3475,-1.4805,-0.0418,0.0858,1.1426,0.1491,
24.888948,-1.3475,-1.4805,-0.0418,0.0858,1.1426,0.1491,
24.890797,0.0211,-1.9138,0.1723,0.0858,1.1426,0.1491,
24.912523,0.0211,-1.9138,0.1723,0.2674,0.8804,0.0910,
24.953655,0.0211,-1.9138,0.1723,0.2674,0.8804,0.0910,
24.955510,0.5858,1.4821,0.9931,0.2674,0.8804,0.0910,
24.977886,0.5858,1.4821,0.9931,-0.0806,0.7162,0.1232,
25.018403,0.5858,1.4821,0.9931,-0.0806,0.7162,0.1232,
25.019154,0.7257,1.5270,2.6335,-0.0806,0.7162,0.1232,
25.043979,0.7257,1.5270,2.6335,-0.4847,0.0486,0.3596,
25.085146,0.7257,1.5270,2.6335,-0.4847,0.0486,0.3596,
25.085709,-1.2357,0.6890,-1.3216,-0.4847,0.0486,0.3596,
25.108300,-1.2357,0.6890,-1.3216,0.1011,-0.0386,-0.5063,
25.149893,-1.2357,0.6890,-1.3216,0.1011,-0.0386,-0.5063,
25.150520,-1.9214,-0.8608,-2.0461,0.1011,-0.0386,-0.5063,
25.173081,-1.9214,-0.8608,-2.0461,0.3010,0.0049,-0.1329,
25.215479,-1.9214,-0.8608,-2.0461,0.3010,0.0049,-0.1329,
25.216469,-0.5096,-0.6816,-1.4307,0.3010,0.0049,-0.1329,
25.238041,-0.5096,-0.6816,-1.4307,0.5571,-0.3228,-0.1600,
25.281773,-0.5096,-0.6816,-1.4307,0.5571,-0.3228,-0.1600,
25.282407,-0.9112,-0.6549,-1.2674,0.5571,-0.3228,-0.1600,
25.303777,-0.9112,-0.6549,-1.2674,0.4189,-0.7847,-0.0939,
25.346132,-0.9112,-0.6549,-1.2674,0.4189,-0.7847,-0.0939,
25.346831,0.8685,-1.0372,-0.6611,0.4189,-0.7847,-0.0939,
25.369502,0.8685,-1.0372,-0.6611,0.5275,-0.7614,-0.2019,
25.412509,0.8685,-1.0372,-0.6611,0.5275,-0.7614,-0.2019,
25.413000,1.5681,-1.0361,-0.1113,0.5275,-0.7614,-0.2019,
25.434549,1.5681,-1.0361,-0.1113,0.4246,-0.4128,-0.3951,
25.477776,1.5681,-1.0361,-0.1113,0.4246,-0.4128,-0.3951,
25.478413,1.6330,0.1782,0.7216,0.4246,-0.4128,-0.3951,
25.501800,1.6330,0.1782,0.7216,0.3143,-0.4580,-0.3679,
25.541630,1.6330,0.1782,0.7216,0.3143,-0.4580,-0.3679,
25.543142,2.5006,0.3897,0.4533,0.3143,-0.4580,-0.3679,
25.566472,2.5006,0.3897,0.4533,0.2660,-0.0761,0.0157,
25.607696,2.5006,0.3897,0.4533,0.2660,-0.0761,0.0157,
25.608214,0.5265,2.4973,-0.3082,0.2660,-0.0761,0.0157,
25.632868,0.5265,2.4973,-0.3082,-0.0875,0.0771,0.4678,
25.673734,0.5265,2.4973,-0.3082,-0.0875,0.0771,0.4678,
25.675042,-1.5457,0.8370,-1.6113,-0.0875,0.0771,0.4678,
25.697261,-1.5457,0.8370,-1.6113,-0.7286,0.4268,0.6622,
25.739352,-1.5457,0.8370,-1.6113,-0.7286,0.4268,0.6622,
25.740945,-1.1437,2.4083,0.1928,-0.7286,0.4268,0.6622,
25.762503,-1.1437,2.4083,0.1928,-0.5521,0.5049,0.4209,
25.804950,-1.1437,2.4083,0.1928,-0.5521,0.5049,0.4209,
25.807056,0.2562,-0.6289,-0.7091,-0.5521,0.5049,0.4209,
25.828938,0.2562,-0.6289,-0.7091,-0.5069,1.3066,0.1292,
25.870872,0.2562,-0.6289,-0.7091,-0.5069,1.3066,0.1292,
25.872716,-1.1143,-2.4665,0.0060,-0.5069,1.3066,0.1292,
25.893312,-1.1143,-2.4665,0.0060,-0.1231,1.3175,-0.0878,
25.934886,-1.1143,-2.4665,0.0060,-0.1231,1.3175,-0.0878,
25.935550,-1.4682,-1.8264,0.4668,-0.1231,1.3175,-0.0878,
25.960122,-1.4682,-1.8264,0.4668,0.0709,0.6015,-0.0078,
26.000868,-1.4682,-1.8264,0.4668,0.0709,0.6015,-0.0078,
26.001554,0.1121,-1.4936,0.7903,0.0709,0.6015,-0.0078,
26.024859,0.1121,-1.4936,0.7903,0.1266,0.4513,0.0544,
26.066019,0.1121,-1.4936,0.7903,0.1266,0.4513,0.0544,
26.067894,0.5444,1.5652,1.5540,0.1266,0.4513,0.0544,
26.089767,0.5444,1.5652,1.5540,-0.1403,0.3018,0.1148,
26.132411,0.5444,1.5652,1.5540,-0.1403,0.3018,0.1148,
26.133310,0.3481,4.2493,2.1452,-0.1403,0.3018,0.1148,
26.155724,0.3481,4.2493,2.1452,-0.4142,-0.5044,0.1926,
26.197563,0.3481,4.2493,2.1452,-0.4142,-0.5044,0.1926,
26.198349,-2.4010,-0.5708,-1.9735,-0.4142,-0.5044,0.1926,
26.220042,-2.4010,-0.5708,-1.9735,-0.2498,-0.3827,-0.4325,
26.262953,-2.4010,-0.5708,-1.9735,-0.2498,-0.3827,-0.4325,
26.264465,-1.5085,-1.8762,-1.4317,-0.2498,-0.3827,-0.4325,
26.286663,-1.5085,-1.8762,-1.4317,0.5339,-0.2349,-0.0402,
26.328478,-1.5085,-1.8762,-1.4317,0.5339,-0.2349,-0.0402,
26.328927,-0.3011,-0.3007,-1.6484,0.5339,-0.2349,-0.0402,
26.351225,-0.3011,-0.3007,-1.6484,0.4969,-0.6226,-0.1370,
26.394043,-0.3011,-0.3007,-1.6484,0.4969,-0.6226,-0.1370,
26.394792,-0.5854,-0.9856,-0.6759,0.4969,-0.6226,-0.1370,
26.417881,-0.5854,-0.9856,-0.6759,0.4267,-0.8532,0.0003,
26.459404,-0.5854,-0.9856,-0.6759,0.4267,-0.8532,0.0003,
26.459997,0.9989,-0.7219,-0.5121,0.4267,-0.8532,0.0003,
26.482541,0.9989,-0.7219,-0.5121,0.5206,-0.6747,-0.1939,
26.524805,0.9989,-0.7219,-0.5121,0.5206,-0.6747,-0.1939,
26.526349,1.1034,-0.8790,0.2903,0.5206,-0.6747,-0.1939,
26.548679,1.1034,-0.8790,0.2903,0.3482,-0.4780,-0.4707,
26.589888,1.1034,-0.8790,0.2903,0.3482,-0.4780,-0.4707,
26.591551,1.5706,0.3316,0.8086,0.3482,-0.4780,-0.4707,
26.614394,1.5706,0.3316,0.8086,0.2268,-0.5035,-0.2873,
26.656888,1.5706,0.3316,0.8086,0.2268,-0.5035,-0.2873,
26.658809,2.1944,0.3369,0.5786,0.2268,-0.5035,-0.2873,
26.679846,2.1944,0.3369,0.5786,0.1920,-0.0793,0.0805,
26.721041,2.1944,0.3369,0.5786,0.1920,-0.0793,0.0805,
26.723111,-0.1370,3.1117,-0.7709,0.1920,-0.0793,0.0805,
26.744114,-0.1370,3.1117,-0.7709,-0.4365,-0.0444,0.6199,
26.786979,-0.1370,3.1117,-0.7709,-0.4365,-0.0444,0.6199,
26.788641,-1.5425,0.5565,-0.9082,-0.4365,-0.0444,0.6199,
26.810677,-1.5425,0.5565,-0.9082,-0.8877,0.2424,0.6332,
26.851066,-1.5425,0.5565,-0.9082,-0.8877,0.2424,0.6332,
26.851622,0.0591,1.9035,0.1501,-0.8877,0.2424,0.6332,
26.876857,0.0591,1.9035,0.1501,-0.5713,0.7833,0.3807,
26.917454,0.0591,1.9035,0.1501,-0.5713,0.7833,0.3807,
26.918079,0.0490,-1.2963,-0.8632,-0.5713,0.7833,0.3807,
26.941436,0.0490,-1.2963,-0.8632,-0.4811,1.3952,0.0365,
26.982837,0.0490,-1.2963,-0.8632,-0.4811,1.3952,0.0365,
26.983392,-1.6818,-2.4743,0.2214,-0.4811,1.3952,0.0365,
27.006659,-1.6818,-2.4743,0.2214,-0.1130,1.1559,-0.0221,
27.047636,-1.6818,-2.4743,0.2214,-0.1130,1.1559,-0.0221,
27.048118,-0.9438,-1.7477,0.4029,-0.1130,1.1559,-0.0221,
27.071983,-0.9438,-1.7477,0.4029,0.1510,0.5822,0.0562,
27.114752,-0.9438,-1.7477,0.4029,0.1510,0.5822,0.0562,
27.115350,0.7065,-0.2810,0.9801,0.1510,0.5822,0.0562,
27.137418,0.7065,-0.2810,0.9801,0.0678,0.4812,0.0327,
27.178769,0.7065,-0.2810,0.9801,0.0678,0.4812,0.0327,
27.179851,0.3993,1.6070,1.8922,0.0678,0.4812,0.0327,
27.203107,0.3993,1.6070,1.8922,-0.2926,0.2566,0.2179,
27.246248,0.3993,1.6070,1.8922,-0.2926,0.2566,0.2179,
27.246760,0.6402,4.1987,0.2313,-0.2926,0.2566,0.2179,
27.269284,0.6402,4.1987,0.2313,0.2537,-0.1735,-0.2292,
27.309654,0.6402,4.1987,0.2313,0.2537,-0.1735,-0.2292,
27.310354,-2.0996,-0.8841,-1.8319,0.2537,-0.1735,-0.2292,
27.334640,-2.0996,-0.8841,-1.8319,0.1210,-0.2479,-0.2291,
27.376538,-2.0996,-0.8841,-1.8319,0.1210,-0.2479,-0.2291,
27.378222,-0.1776,-1.0630,-1.8569,0.1210,-0.2479,-0.2291,
27.400223,-0.1776,-1.0630,-1.8569,0.6083,-0.2130,-0.3815,
27.441287,-0.1776,-1.0630,-1.8569,0.6083,-0.2130,-0.3815,
27.444091,-0.9856,-0.8558,-1.1933,0.6083,-0.2130,-0.3815,
27.466406,-0.9856,-0.8558,-1.1933,0.5681,-0.6208,-0.1822,
27.507339,-0.9856,-0.8558,-1.1933,0.5681,-0.6208,-0.1822,
27.508919,0.1705,-1.0917,-0.7003,0.5681,-0.6208,-0.1822,
27.531371,0.1705,-1.0917,-0.7003,0.4730,-0.7275,-0.0832,
27.572772,0.1705,-1.0917,-0.7003,0.4730,-0.7275,-0.0832,
27.574872,1.6413,-1.0427,-0.1217,0.4730,-0.7275,-0.0832,
27.597197,1.6413,-1.0427,-0.1217,0.4595,-0.4333,-0.2321,
27.638525,1.6413,-1.0427,-0.1217,0.4595,-0.4333,-0.2321,
27.640492,1.5639,-0.5010,0.5064,0.4595,-0.4333,-0.2321,
27.661116,1.5639,-0.5010,0.5064,0.2917,-0.3042,-0.3687,
27.702784,1.5639,-0.5010,0.5064,0.2917,-0.3042,-0.3687,
27.704449,2.2455,0.7781,0.6478,0.2917,-0.3042,-0.3687,
27.726998,2.2455,0.7781,0.6478,0.2622,-0.1374,-0.0380,
27.768253,2.2455,0.7781,0.6478,0.2622,-0.1374,-0.0380,
27.769961,1.6465,1.7674,-0.3689,0.2622,-0.1374,-0.0380,
27.792438,1.6465,1.7674,-0.3689,0.0455,0.2503,0.2613,
27.835024,1.6465,1.7674,-0.3689,0.0455,0.2503,0.2613,
27.836595,-1.0360,1.6348,-1.7844,0.0455,0.2503,0.2613,
27.857633,-1.0360,1.6348,-1.7844,-0.7805,0.2807,0.6445,
27.899663,-1.0360,1.6348,-1.7844,-0.7805,0.2807,0.6445,
27.900965,-1.9555,1.0089,-0.1324,-0.7805,0.2807,0.6445,
27.924766,-1.9555,1.0089,-0.1324,-0.7396,0.5108,0.5676,
27.966635,-1.9555,1.0089,-0.1324,-0.7396,0.5108,0.5676,
27.967411,0.1282,0.3417,-0.7102,-0.7396,0.5108,0.5676,
27.989634,0.1282,0.3417,-0.7102,-0.5011,1.1513,0.2373,
28.030834,0.1282,0.3417,-0.7102,-0.5011,1.1513,0.2373,
28.031885,-0.9942,-1.8479,-0.6213,-0.5011,1.1513,0.2373,
28.054212,-0.9942,-1.8479,-0.6213,-0.2233,1.3208,-0.0321,
28.095802,-0.9942,-1.8479,-0.6213,-0.2233,1.3208,-0.0321,
28.097734,-1.8008,-1.9108,0.3662,-0.2233,1.3208,-0.0321,
28.119727,-1.8008,-1.9108,0.3662,0.0191,0.7346,-0.1110,
28.161881,-1.8008,-1.9108,0.3662,0.0191,0.7346,-0.1110,
28.162475,-0.5408,-1.8007,0.8018,0.0191,0.7346,-0.1110,
28.186231,-0.5408,-1.8007,0.8018,0.2472,0.4488,-0.0666,
28.227775,-0.5408,-1.8007,0.8018,0.2472,0.4488,-0.0666,
28.228490,0.8466,0.9152,1.0205,0.2472,0.4488,-0.0666,
28.251507,0.8466,0.9152,1.0205,-0.1489,0.5683,0.0492,
28.292810,0.8466,0.9152,1.0205,-0.1489,0.5683,0.0492,
28.293354,0.3157,1.9299,2.4344,-0.1489,0.5683,0.0492,
28.316410,0.3157,1.9299,2.4344,-0.7075,-0.0286,0.3822,
28.358078,0.3157,1.9299,2.4344,-0.7075,-0.0286,0.3822,
28.359638,-0.7377,0.1872,-1.0024,-0.7075,-0.0286,0.3822,
28.382197,-0.7377,0.1872,-1.0024,0.1752,0.0684,-0.3050,
28.423434,-0.7377,0.1872,-1.0024,0.1752,0.0684,-0.3050,
28.424492,-1.1625,-0.7340,-1.6193,0.1752,0.0684,-0.3050,
28.448505,-1.1625,-0.7340,-1.6193,0.3639,0.1422,-0.2892,
28.488743,-1.1625,-0.7340,-1.6193,0.3639,0.1422,-0.2892,
28.490473,0.1717,-0.4602,-1.5465,0.3639,0.1422,-0.2892,
28.512807,0.1717,-0.4602,-1.5465,0.5027,0.0240,-0.1396,
28.553295,0.1717,-0.4602,-1.5465,0.5027,0.0240,-0.1396,
28.555029,-0.6416,-0.8353,-0.8964,0.5027,0.0240,-0.1396,
28.578309,-0.6416,-0.8353,-0.8964,0.4742,-0.2471,-0.1445,
28.620193,-0.6416,-0.8353,-0.8964,0.4742,-0.2471,-0.1445,
28.621663,0.4771,-0.9574,-0.6396,0.4742,-0.2471,-0.1445,
28.643025,0.4771,-0.9574,-0.6396,0.5522,-0.4374,-0.2130,
28.684863,0.4771,-0.9574,-0.6396,0.5522,-0.4374,-0.2130,
28.685517,1.2942,-1.3486,-0.4135,0.5522,-0.4374,-0.2130,
28.709033,1.2942,-1.3486,-0.4135,0.4968,-0.2676,-0.3713,
28.750792,1.2942,-1.3486,-0.4135,0.4968,-0.2676,-0.3713,
28.751356,1.2219,0.0731,0.4327,0.4968,-0.2676,-0.3713,
28.775210,1.2219,0.0731,0.4327,0.2703,-0.4091,-0.3386,
28.815738,1.2219,0.0731,0.4327,0.2703,-0.4091,-0.3386,
28.817337,2.0641,0.6231,0.0886,0.2703,-0.4091,-0.3386,
28.839628,2.0641,0.6231,0.0886,0.1278,-0.2196,-0.0185,
28.882369,2.0641,0.6231,0.0886,0.1278,-0.2196,-0.0185,
28.883048,1.3904,1.8041,-0.4831,0.1278,-0.2196,-0.0185,
28.905245,1.3904,1.8041,-0.4831,-0.0452,-0.0095,0.2975,
28.946729,1.3904,1.8041,-0.4831,-0.0452,-0.0095,0.2975,
28.947262,-0.1301,1.4152,-2.1338,-0.0452,-0.0095,0.2975,
28.970390,-0.1301,1.4152,-2.1338,-0.8532,0.3415,0.6022,
29.011493,-0.1301,1.4152,-2.1338,-0.8532,0.3415,0.6022,
29.012069,-0.3873,1.1286,-0.1420,-0.8532,0.3415,0.6022,
29.037018,-0.3873,1.1286,-0.1420,-0.5759,0.9181,0.5173,
29.078427,-0.3873,1.1286,-0.1420,-0.5759,0.9181,0.5173,
29.080064,1.2410,-0.1580,-1.2471,-0.5759,0.9181,0.5173,
29.101833,1.2410,-0.1580,-1.2471,-0.4261,1.8291,0.1248,
29.144234,1.2410,-0.1580,-1.2471,-0.4261,1.8291,0.1248,
29.146038,-0.4571,-1.9974,-0.8847,-0.4261,1.8291,0.1248,
29.167711,-0.4571,-1.9974,-0.8847,-0.1061,2.1325,0.0432,
29.208514,-0.4571,-1.9974,-0.8847,-0.1061,2.1325,0.0432,
29.209637,-1.1707,-1.3801,-0.1651,-0.1061,2.1325,0.0432,
29.232870,-1.1707,-1.3801,-0.1651,0.0493,1.6028,0.1707,
29.275922,-1.1707,-1.3801,-0.1651,0.0493,1.6028,0.1707,
29.276949,-0.1930,-1.3886,-0.0859,0.0493,1.6028,0.1707,
29.297972,-0.1930,-1.3886,-0.0859,0.2410,1.1570,0.2889,
29.341569,-0.1930,-1.3886,-0.0859,0.2410,1.1570,0.2889,
29.342837,0.1083,0.7863,0.3793,0.2410,1.1570,0.2889,
29.365027,0.1083,0.7863,0.3793,0.0032,0.8384,0.1324,
29.404806,0.1083,0.7863,0.3793,0.0032,0.8384,0.1324,
29.406518,0.3793,0.8109,2.3017,0.0032,0.8384,0.1324,
29.430626,0.3793,0.8109,2.3017,-0.5615,0.1254,0.4983,
29.470905,0.3793,0.8109,2.3017,-0.5615,0.1254,0.4983,
29.472475,0.4337,1.8866,-1.1542,-0.5615,0.1254,0.4983,
29.495705,0.4337,1.8866,-1.1542,0.2027,0.1894,-0.5005,
29.538036,0.4337,1.8866,-1.1542,0.2027,0.1894,-0.5005,
29.539370,-0.8808,-0.2226,-1.6046,0.2027,0.1894,-0.5005,
29.561327,-0.8808,-0.2226,-1.6046,0.2239,0.3341,-0.2416,
29.602517,-0.8808,-0.2226,-1.6046,0.2239,0.3341,-0.2416,
29.603751,0.4319,-1.1481,-1.8966,0.2239,0.3341,-0.2416,
29.628178,0.4319,-1.1481,-1.8966,0.6628,0.3146,-0.2941,
29.666968,0.4319,-1.1481,-1.8966,0.6628,0.3146,-0.2941,
29.668054,-0.8335,-1.0171,-1.2469,0.6628,0.3146,-0.2941,
29.691505,-0.8335,-1.0171,-1.2469,0.5777,-0.0970,-0.2369,
29.733098,-0.8335,-1.0171,-1.2469,0.5777,-0.0970,-0.2369,
29.733728,0.3691,-1.1149,-0.7765,0.5777,-0.0970,-0.2369,
29.756795,0.3691,-1.1149,-0.7765,0.5472,-0.4139,-0.2132,
29.797868,0.3691,-1.1149,-0.7765,0.5472,-0.4139,-0.2132,
29.799498,1.9145,-0.9382,-0.5176,0.5472,-0.4139,-0.2132,
29.822242,1.9145,-0.9382,-0.5176,0.4018,-0.1889,-0.3303,
29.864294,1.9145,-0.9382,-0.5176,0.4018,-0.1889,-0.3303,
29.865769,1.6722,-0.2920,0.2374,0.4018,-0.1889,-0.3303,
29.888479,1.6722,-0.2920,0.2374,0.2708,-0.3621,-0.4029,
29.928461,1.6722,-0.2920,0.2374,0.2708,-0.3621,-0.4029,
29.929497,2.5844,0.5877,-0.0726,0.2708,-0.3621,-0.4029,
29.953849,2.5844,0.5877,-0.0726,0.1686,-0.1206,0.0518,
29.994799,2.5844,0.5877,-0.0726,0.1686,-0.1206,0.0518,
29.996270,1.2482,3.3190,-0.8170,0.1686,-0.1206,0.0518,
30.018413,1.2482,3.3190,-0.8170,-0.1061,0.3923,0.6115,
30.060207,1.2482,3.3190,-0.8170,-0.1061,0.3923,0.6115,
30.060967,-0.9981,0.5707,-1.6272,-0.1061,0.3923,0.6115,
30.084246,-0.9981,0.5707,-1.6272,-0.7579,0.6822,0.7201,
30.125457,-0.9981,0.5707,-1.6272,-0.7579,0.6822,0.7201,
30.127173,-0.0334,1.8139,-0.0798,-0.7579,0.6822,0.7201,
30.148638,-0.0334,1.8139,-0.0798,-0.5195,1.1965,0.5657,
30.191572,-0.0334,1.8139,-0.0798,-0.5195,1.1965,0.5657,
30.192677,0.5408,-0.7159,-0.8702,-0.5195,1.1965,0.5657,
30.215034,0.5408,-0.7159,-0.8702,-0.2292,1.8818,0.2915,
30.258510,0.5408,-0.7159,-0.8702,-0.2292,1.8818,0.2915,
30.260197,-1.1233,-1.5014,-0.6613,-0.2292,1.8818,0.2915,
30.280886,-1.1233,-1.5014,-0.6613,-0.1205,1.9184,0.3335,
30.322372,-1.1233,-1.5014,-0.6613,-0.1205,1.9184,0.3335,
30.324259,-0.6229,-1.3014,-0.2120,-0.1205,1.9184,0.3335,
30.346227,-0.6229,-1.3014,-0.2120,0.0751,1.3071,0.2460,
30.388422,-0.6229,-1.3014,-0.2120,0.0751,1.3071,0.2460,
30.390435,0.2451,-2.2888,-0.0731,0.0751,1.3071,0.2460,
30.411651,0.2451,-2.2888,-0.0731,0.1639,1.0624,0.1868,
30.452189,0.2451,-2.2888,-0.0731,0.1639,1.0624,0.1868,
30.453782,0.9285,1.1871,0.8622,0.1639,1.0624,0.1868,
30.478307,0.9285,1.1871,0.8622,-0.0742,1.1017,0.0672,
30.517901,0.9285,1.1871,0.8622,-0.0742,1.1017,0.0672,
30.519266,0.9223,0.7123,1.2916,-0.0742,1.1017,0.0672,
30.543048,0.9223,0.7123,1.2916,-0.3790,0.6454,0.3949,
30.584632,0.9223,0.7123,1.2916,-0.3790,0.6454,0.3949,
30.586617,-0.5604,3.4171,-1.4316,-0.3790,0.6454,0.3949,
30.609588,-0.5604,3.4171,-1.4316,0.1206,0.4412,-0.4811,
30.651436,-0.5604,3.4171,-1.4316,0.1206,0.4412,-0.4811,
30.654478,-1.0286,-0.7518,-2.5355,0.1206,0.4412,-0.4811,
30.674349,-1.0286,-0.7518,-2.5355,0.4502,0.5898,-0.0223,
30.715199,-1.0286,-0.7518,-2.5355,0.4502,0.5898,-0.0223,
30.716545,-0.2541,-0.8178,-1.8053,0.4502,0.5898,-0.0223,
30.738984,-0.2541,-0.8178,-1.8053,0.7923,0.2714,-0.2831,
30.781368,-0.2541,-0.8178,-1.8053,0.7923,0.2714,-0.2831,
30.783330,-1.3620,-0.7711,-1.6500,0.7923,0.2714,-0.2831,
30.804030,-1.3620,-0.7711,-1.6500,0.5047,-0.3926,-0.0806,
30.845682,-1.3620,-0.7711,-1.6500,0.5047,-0.3926,-0.0806,
30.846394,0.5214,-1.1049,-0.2990,0.5047,-0.3926,-0.0806,
30.869127,0.5214,-1.1049,-0.2990,0.5982,-0.5909,-0.0819,
30.910997,0.5214,-1.1049,-0.2990,0.5982,-0.5909,-0.0819,
30.912434,2.1159,-0.7162,-0.4327,0.5982,-0.5909,-0.0819,
30.935639,2.1159,-0.7162,-0.4327,0.4827,-0.2156,-0.3919,
30.976334,2.1159,-0.7162,-0.4327,0.4827,-0.2156,-0.3919,
30.978028,1.9422,-0.3489,0.3823,0.4827,-0.2156,-0.3919,
31.001032,1.9422,-0.3489,0.3823,0.3091,-0.2045,-0.4927,
31.041565,1.9422,-0.3489,0.3823,0.3091,-0.2045,-0.4927,
31.043837,2.0822,0.2786,-0.0550,0.3091,-0.2045,-0.4927,
31.065665,2.0822,0.2786,-0.0550,0.2761,-0.0057,-0.1382,
31.107839,2.0822,0.2786,-0.0550,0.2761,-0.0057,-0.1382,
31.109096,1.4109,1.9136,-0.3225,0.2761,-0.0057,-0.1382,
31.130970,1.4109,1.9136,-0.3225,-0.0217,-0.1095,0.2929,
31.173402,1.4109,1.9136,-0.3225,-0.0217,-0.1095,0.2929,
31.175178,0.0021,0.7732,-2.4359,-0.0217,-0.1095,0.2929,
31.197333,0.0021,0.7732,-2.4359,-0.8320,0.6513,0.7294,
31.238056,0.0021,0.7732,-2.4359,-0.8320,0.6513,0.7294,
31.239898,-1.0758,1.8346,0.0956,-0.8320,0.6513,0.7294,
31.262389,-1.0758,1.8346,0.0956,-0.5417,1.0098,0.4557,
31.304021,-1.0758,1.8346,0.0956,-0.5417,1.0098,0.4557,
31.305987,0.5380,0.5634,-0.7992,-0.5417,1.0098,0.4557,
31.328160,0.5380,0.5634,-0.7992,-0.5032,1.7802,0.2683,
31.370863,0.5380,0.5634,-0.7992,-0.5032,1.7802,0.2683,
31.372660,-0.2139,-1.0995,-1.1012,-0.5032,1.7802,0.2683,
31.394400,-0.2139,-1.0995,-1.1012,-0.2595,2.2249,0.1570,
31.434615,-0.2139,-1.0995,-1.1012,-0.2595,2.2249,0.1570,
31.436498,-1.4100,-1.4416,-0.0296,-0.2595,2.2249,0.1570,
31.459513,-1.4100,-1.4416,-0.0296,-0.0579,1.4369,0.1101,
31.502057,-1.4100,-1.4416,-0.0296,-0.0579,1.4369,0.1101,
31.504020,-0.3803,-2.3371,-0.0062,-0.0579,1.4369,0.1101,
31.524730,-0.3803,-2.3371,-0.0062,0.1538,0.8945,0.2917,
31.565734,-0.3803,-2.3371,-0.0062,0.1538,0.8945,0.2917,
31.566441,0.8300,-0.9562,0.9958,0.1538,0.8945,0.2917,
31.589893,0.8300,-0.9562,0.9958,0.0793,0.7231,0.1906,
31.631846,0.8300,-0.9562,0.9958,0.0793,0.7231,0.1906,
31.632344,0.9365,0.9395,1.9855,0.0793,0.7231,0.1906,
31.655440,0.9365,0.9395,1.9855,-0.1495,0.5841,0.2651,
31.697939,0.9365,0.9395,1.9855,-0.1495,0.5841,0.2651,
31.698607,1.2575,3.9337,0.1056,-0.1495,0.5841,0.2651,
31.720115,1.2575,3.9337,0.1056,0.2107,0.1457,-0.2350,
31.763198,1.2575,3.9337,0.1056,0.2107,0.1457,-0.2350,
31.763939,-1.3575,0.0494,-1.9183,0.2107,0.1457,-0.2350,
31.786676,-1.3575,0.0494,-1.9183,-0.0078,0.2225,-0.1585,
31.828543,-1.3575,0.0494,-1.9183,-0.0078,0.2225,-0.1585,
31.829666,-0.3679,-1.5780,-2.2554,-0.0078,0.2225,-0.1585,
31.850711,-0.3679,-1.5780,-2.2554,0.5712,0.2417,0.1043,
31.893103,-0.3679,-1.5780,-2.2554,0.5712,0.2417,0.1043,
31.893636,-0.5040,0.4660,-1.2168,0.5712,0.2417,0.1043,
31.917032,-0.5040,0.4660,-1.2168,0.5586,-0.3519,-0.0017,
31.958859,-0.5040,0.4660,-1.2168,0.5586,-0.3519,-0.0017,
31.960506,0.3341,-1.1167,-1.0385,0.5586,-0.3519,-0.0017,
31.982080,0.3341,-1.1167,-1.0385,0.4641,-0.3202,-0.0026,
32.025664,0.3341,-1.1167,-1.0385,0.4641,-0.3202,-0.0026,
32.027579,0.6618,-1.5466,-0.6166,0.4641,-0.3202,-0.0026,
32.049356,0.6618,-1.5466,-0.6166,0.6324,-0.3690,-0.3068,
32.089818,0.6618,-1.5466,-0.6166,0.6324,-0.3690,-0.3068,
32.091179,1.3237,-1.0267,-0.3621,0.6324,-0.3690,-0.3068,
32.113995,1.3237,-1.0267,-0.3621,0.3740,-0.3399,-0.4443,
32.154480,1.3237,-1.0267,-0.3621,0.3740,-0.3399,-0.4443,
32.156130,1.3311,-0.1638,0.5509,0.3740,-0.3399,-0.4443,
32.180107,1.3311,-0.1638,0.5509,0.2862,-0.5289,-0.3137,
32.220477,1.3311,-0.1638,0.5509,0.2862,-0.5289,-0.3137,
32.222173,2.5130,-0.1118,-0.3323,0.2862,-0.5289,-0.3137,
32.244927,2.5130,-0.1118,-0.3323,0.2175,-0.0564,0.1095,
32.286256,2.5130,-0.1118,-0.3323,0.2175,-0.0564,0.1095,
32.287864,0.3290,3.5192,-1.1567,0.2175,-0.0564,0.1095,
32.310534,0.3290,3.5192,-1.1567,-0.3271,0.0160,0.6596,
32.351660,0.3290,3.5192,-1.1567,-0.3271,0.0160,0.6596,
32.353254,-2.1205,0.5358,-0.7499,-0.3271,0.0160,0.6596,
32.375887,-2.1205,0.5358,-0.7499,-0.7570,0.4229,0.6674,
32.417560,-2.1205,0.5358,-0.7499,-0.7570,0.4229,0.6674,
32.419255,-0.2880,2.5043,0.0284,-0.7570,0.4229,0.6674,
32.441140,-0.2880,2.5043,0.0284,-0.6449,0.7364,0.3789,
32.482506,-0.2880,2.5043,0.0284,-0.6449,0.7364,0.3789,
32.484361,-0.2075,-1.1133,-0.5450,-0.6449,0.7364,0.3789,
32.506574,-0.2075,-1.1133,-0.5450,-0.4430,1.3465,0.1877,
32.547777,-0.2075,-1.1133,-0.5450,-0.4430,1.3465,0.1877,
32.549915,-0.9525,-2.0512,0.2271,-0.4430,1.3465,0.1877,
32.571677,-0.9525,-2.0512,0.2271,0.0145,1.2054,0.0331,
32.614984,-0.9525,-2.0512,0.2271,0.0145,1.2054,0.0331,
32.616614,-0.9948,-1.8551,0.2749,0.0145,1.2054,0.0331,
32.637537,-0.9948,-1.8551,0.2749,0.2825,0.5340,-0.0272,
32.678623,-0.9948,-1.8551,0.2749,0.2825,0.5340,-0.0272,
32.679191,-0.2644,-1.6446,0.9276,0.2825,0.5340,-0.0272,
32.702399,-0.2644,-1.6446,0.9276,0.1512,0.2908,0.0600,
32.744466,-0.2644,-1.6446,0.9276,0.1512,0.2908,0.0600,
32.744976,0.7845,0.9878,1.3374,0.1512,0.2908,0.0600,
32.767901,0.7845,0.9878,1.3374,-0.1597,0.4479,0.1643,
32.810758,0.7845,0.9878,1.3374,-0.1597,0.4479,0.1643,
32.811331,0.4899,1.5027,1.8992,-0.1597,0.4479,0.1643,
32.833759,0.4899,1.5027,1.8992,-0.4145,0.1196,0.2856,
32.876329,0.4899,1.5027,1.8992,-0.4145,0.1196,0.2856,
32.877667,-2.3214,1.9119,-1.0842,-0.4145,0.1196,0.2856,
32.898447,-2.3214,1.9119,-1.0842,-0.1440,-0.2094,-0.5704,
32.942560,-2.3214,1.9119,-1.0842,-0.1440,-0.2094,-0.5704,
32.944315,-0.8214,-0.1639,-2.0902,-0.1440,-0.2094,-0.5704,
32.964243,-0.8214,-0.1639,-2.0902,0.3131,-0.1272,-0.0093,
33.006425,-0.8214,-0.1639,-2.0902,0.3131,-0.1272,-0.0093,
33.007640,-0.3540,-0.7916,-1.2175,0.3131,-0.1272,-0.0093,
33.030770,-0.3540,-0.7916,-1.2175,0.6254,-0.4050,-0.1918,
33.071751,-0.3540,-0.7916,-1.2175,0.6254,-0.4050,-0.1918,
33.073323,-1.0197,-0.6492,-1.4128,0.6254,-0.4050,-0.1918,
33.095717,-1.0197,-0.6492,-1.4128,0.4152,-0.9667,-0.0357,
33.136970,-1.0197,-0.6492,-1.4128,0.4152,-0.9667,-0.0357,
33.138725,0.4798,-0.9983,-0.3857,0.4152,-0.9667,-0.0357,
33.160926,0.4798,-0.9983,-0.3857,0.4585,-1.0234,-0.0533,
33.202504,0.4798,-0.9983,-0.3857,0.4585,-1.0234,-0.0533,
33.204417,1.7363,-1.1302,0.0464,0.4585,-1.0234,-0.0533,
33.226441,1.7363,-1.1302,0.0464,0.3192,-0.5695,-0.3230,
33.268420,1.7363,-1.1302,0.0464,0.3192,-0.5695,-0.3230,
33.269269,1.8856,-0.6846,0.6812,0.3192,-0.5695,-0.3230,
33.291924,1.8856,-0.6846,0.6812,0.2279,-0.3758,-0.5020,
33.335064,1.8856,-0.6846,0.6812,0.2279,-0.3758,-0.5020,
33.336271,1.8594,-0.0388,0.3956,0.2279,-0.3758,-0.5020,
33.357909,1.8594,-0.0388,0.3956,0.2665,-0.0383,-0.2030,
33.399843,1.8594,-0.0388,0.3956,0.2665,-0.0383,-0.2030,
33.400525,1.5448,1.4380,0.2214,0.2665,-0.0383,-0.2030,
33.422912,1.5448,1.4380,0.2214,0.0591,-0.0263,0.2010,
33.464140,1.5448,1.4380,0.2214,0.0591,-0.0263,0.2010,
33.464672,-0.7799,2.3283,-2.2208,0.0591,-0.0263,0.2010,
33.488501,-0.7799,2.3283,-2.2208,-0.8086,0.3680,0.7607,
33.532025,-0.7799,2.3283,-2.2208,-0.8086,0.3680,0.7607,
33.532581,-1.0469,2.4156,0.3796,-0.8086,0.3680,0.7607,
33.553635,-1.0469,2.4156,0.3796,-0.5241,0.7366,0.5151,
33.596684,-1.0469,2.4156,0.3796,-0.5241,0.7366,0.5151,
33.597291,0.4792,0.3879,-0.9842,-0.5241,0.7366,0.5151,
33.619000,0.4792,0.3879,-0.9842,-0.4632,1.7313,0.2761,
33.660801,0.4792,0.3879,-0.9842,-0.4632,1.7313,0.2761,
33.661327,-0.6497,-1.8988,-1.2333,-0.4632,1.7313,0.2761,
33.685053,-0.6497,-1.8988,-1.2333,-0.2673,1.9600,-0.0826,
33.727790,-0.6497,-1.8988,-1.2333,-0.2673,1.9600,-0.0826,
33.728356,-1.8621,-1.6645,-0.2064,-0.2673,1.9600,-0.0826,
33.751028,-1.8621,-1.6645,-0.2064,-0.1170,0.8829,-0.0367,
33.792728,-1.8621,-1.6645,-0.2064,-0.1170,0.8829,-0.0367,
33.793987,-1.2174,-2.1688,0.2007,-0.1170,0.8829,-0.0367,
33.815858,-1.2174,-2.1688,0.2007,0.0341,0.2488,0.1545,
33.857694,-1.2174,-2.1688,0.2007,0.0341,0.2488,0.1545,
33.859601,1.1254,-0.0926,1.5052,0.0341,0.2488,0.1545,
33.881594,1.1254,-0.0926,1.5052,-0.1148,0.4588,0.1596,
33.924154,1.1254,-0.0926,1.5052,-0.1148,0.4588,0.1596,
33.925980,1.2494,0.3387,2.2894,-0.1148,0.4588,0.1596,
33.947567,1.2494,0.3387,2.2894,-0.2491,0.7533,0.2601,
33.988675,1.2494,0.3387,2.2894,-0.2491,0.7533,0.2601,
33.991201,-0.3622,4.4571,-0.8399,-0.2491,0.7533,0.2601,
34.012260,-0.3622,4.4571,-0.8399,0.1330,0.3415,-0.6061,
34.055140,-0.3622,4.4571,-0.8399,0.1330,0.3415,-0.6061,
34.056751,-1.6075,-0.3958,-2.0942,0.1330,0.3415,-0.6061,
34.078675,-1.6075,-0.3958,-2.0942,0.1709,0.1846,-0.0736,
34.119899,-1.6075,-0.3958,-2.0942,0.1709,0.1846,-0.0736,
34.121553,0.4447,-0.6020,-1.8683,0.1709,0.1846,-0.0736,
34.144910,0.4447,-0.6020,-1.8683,0.6608,0.0933,0.0677,
34.185325,0.4447,-0.6020,-1.8683,0.6608,0.0933,0.0677,
34.186681,-0.0896,-0.4461,-1.3544,0.6608,0.0933,0.0677,
34.210422,-0.0896,-0.4461,-1.3544,0.5762,-0.1361,-0.1362,
34.251863,-0.0896,-0.4461,-1.3544,0.5762,-0.1361,-0.1362,
34.253735,0.1216,-1.0770,-0.5673,0.5762,-0.1361,-0.1362,
34.273987,0.1216,-1.0770,-0.5673,0.5817,-0.4297,-0.1310,
34.315701,0.1216,-1.0770,-0.5673,0.5817,-0.4297,-0.1310,
34.316498,1.4230,-1.1506,-0.5837,0.5817,-0.4297,-0.1310,
34.340154,1.4230,-1.1506,-0.5837,0.5441,-0.2647,-0.3392,
34.380919,1.4230,-1.1506,-0.5837,0.5441,-0.2647,-0.3392,
34.381562,1.4637,-0.6963,0.0778,0.5441,-0.2647,-0.3392,
34.405344,1.4637,-0.6963,0.0778,0.3493,-0.2474,-0.4484,
34.448791,1.4637,-0.6963,0.0778,0.3493,-0.2474,-0.4484,
34.450812,1.5284,0.0773,0.5845,0.3493,-0.2474,-0.4484,
34.470311,1.5284,0.0773,0.5845,0.2459,-0.3425,-0.2546,
34.512496,1.5284,0.0773,0.5845,0.2459,-0.3425,-0.2546,
34.513070,2.8335,-0.0120,-0.1612,0.2459,-0.3425,-0.2546,
34.536032,2.8335,-0.0120,-0.1612,0.2332,0.0935,0.0428,
34.578347,2.8335,-0.0120,-0.1612,0.2332,0.0935,0.0428,
34.578956,0.9886,3.0262,-1.9484,0.2332,0.0935,0.0428,
34.600305,0.9886,3.0262,-1.9484,-0.4682,0.2917,0.6005,
34.643493,0.9886,3.0262,-1.9484,-0.4682,0.2917,0.6005,
34.644054,-1.2145,0.2920,-0.9189,-0.4682,0.2917,0.6005,
34.667457,-1.2145,0.2920,-0.9189,-0.7454,0.8657,0.6709,
34.709795,-1.2145,0.2920,-0.9189,-0.7454,0.8657,0.6709,
34.711646,1.0810,1.9782,-0.7561,-0.7454,0.8657,0.6709,
34.733414,1.0810,1.9782,-0.7561,-0.5244,1.6167,0.3601,
34.774637,1.0810,1.9782,-0.7561,-0.5244,1.6167,0.3601,
34.775867,0.0365,-1.0405,-1.0167,-0.5244,1.6167,0.3601,
34.797934,0.0365,-1.0405,-1.0167,-0.4058,2.0876,0.1640,
34.839981,0.0365,-1.0405,-1.0167,-0.4058,2.0876,0.1640,
34.841733,-1.1924,-1.6668,-0.4605,-0.4058,2.0876,0.1640,
34.863497,-1.1924,-1.6668,-0.4605,-0.1826,1.8587,0.1576,
34.905107,-1.1924,-1.6668,-0.4605,-0.1826,1.8587,0.1576,
34.907150,-0.8135,-1.7105,0.0267,-0.1826,1.8587,0.1576,
34.928968,-0.8135,-1.7105,0.0267,0.2738,1.1379,0.2763,
34.970548,-0.8135,-1.7105,0.0267,0.2738,1.1379,0.2763,
34.972113,0.4553,-1.7161,0.7337,0.2738,1.1379,0.2763,
34.994972,0.4553,-1.7161,0.7337,0.2419,0.8795,0.2442,
35.035965,0.4553,-1.7161,0.7337,0.2419,0.8795,0.2442,
35.037041,0.4714,1.4545,1.4661,0.2419,0.8795,0.2442,
35.060522,0.4714,1.4545,1.4661,-0.0924,0.7092,0.1553,
35.102597,0.4714,1.4545,1.4661,-0.0924,0.7092,0.1553,
35.103216,0.7123,3.1425,0.4724,-0.0924,0.7092,0.1553,
35.126569,0.7123,3.1425,0.4724,-0.0968,0.1313,0.1266,
35.167502,0.7123,3.1425,0.4724,-0.0968,0.1313,0.1266,
35.168192,-1.4098,-0.0872,-2.5234,-0.0968,0.1313,0.1266,
35.192339,-1.4098,-0.0872,-2.5234,-0.0562,0.0232,-0.2463,
35.232710,-1.4098,-0.0872,-2.5234,-0.0562,0.0232,-0.2463,
35.233424,-0.5510,-0.9810,-2.3681,-0.0562,0.0232,-0.2463,
35.256891,-0.5510,-0.9810,-2.3681,0.5316,0.3871,0.1510,
35.298595,-0.5510,-0.9810,-2.3681,0.5316,0.3871,0.1510,
35.299181,-0.7845,0.1116,-1.5701,0.5316,0.3871,0.1510,
35.320917,-0.7845,0.1116,-1.5701,0.5805,-0.3972,-0.1773,
35.364158,-0.7845,0.1116,-1.5701,0.5805,-0.3972,-0.1773,
35.365800,-0.6557,-0.8915,-0.9126,0.5805,-0.3972,-0.1773,
35.387592,-0.6557,-0.8915,-0.9126,0.4798,-0.8057,-0.0263,
35.428220,-0.6557,-0.8915,-0.9126,0.4798,-0.8057,-0.0263,
35.428794,1.5142,-0.8614,-0.3092,0.4798,-0.8057,-0.0263,
35.451551,1.5142,-0.8614,-0.3092,0.5635,-0.5971,-0.2216,
35.495202,1.5142,-0.8614,-0.3092,0.5635,-0.5971,-0.2216,
35.495777,2.1379,-0.9802,0.1165,0.5635,-0.5971,-0.2216,
35.517469,2.1379,-0.9802,0.1165,0.3173,-0.1856,-0.5377,
35.560795,2.1379,-0.9802,0.1165,0.3173,-0.1856,-0.5377,
35.561421,1.2720,-0.9797,0.8436,0.3173,-0.1856,-0.5377,
35.582795,1.2720,-0.9797,0.8436,0.4158,-0.3274,-0.3178,
35.625106,1.2720,-0.9797,0.8436,0.4158,-0.3274,-0.3178,
35.626447,2.3538,-0.0191,-0.2484,0.4158,-0.3274,-0.3178,
35.649658,2.3538,-0.0191,-0.2484,0.2885,-0.0162,0.0473,
35.692549,2.3538,-0.0191,-0.2484,0.2885,-0.0162,0.0473,
35.694532,1.2883,2.9178,-1.0173,0.2885,-0.0162,0.0473,
35.715023,1.2883,2.9178,-1.0173,-0.1223,0.2170,0.4667,
35.756292,1.2883,2.9178,-1.0173,-0.1223,0.2170,0.4667,
35.758254,-1.4701,0.3694,-1.6771,-0.1223,0.2170,0.4667,
35.782071,-1.4701,0.3694,-1.6771,-0.8285,0.6929,0.6287,
35.821271,-1.4701,0.3694,-1.6771,-0.8285,0.6929,0.6287,
35.823340,-0.4212,2.6497,0.0279,-0.8285,0.6929,0.6287,
35.846036,-0.4212,2.6497,0.0279,-0.5043,1.0302,0.4879,
35.886940,-0.4212,2.6497,0.0279,-0.5043,1.0302,0.4879,
35.888725,0.4079,-0.3881,-1.0397,-0.5043,1.0302,0.4879,
35.911344,0.4079,-0.3881,-1.0397,-0.4989,1.8259,0.2573,
35.954380,0.4079,-0.3881,-1.0397,-0.4989,1.8259,0.2573,
35.957104,-0.8900,-1.4148,-0.4695,-0.4989,1.8259,0.2573,
35.977940,-0.8900,-1.4148,-0.4695,-0.1200,1.7446,0.1220,
36.018677,-0.8900,-1.4148,-0.4695,-0.1200,1.7446,0.1220,
36.019252,-1.4534,-1.4783,-0.3275,-0.1200,1.7446,0.1220,
36.041648,-1.4534,-1.4783,-0.3275,0.0331,1.0304,0.1701,
36.084358,-1.4534,-1.4783,-0.3275,0.0331,1.0304,0.1701,
36.085044,-0.2696,-1.9533,0.2258,0.0331,1.0304,0.1701,
36.107588,-0.2696,-1.9533,0.2258,0.2350,0.6512,0.1932,
36.149832,-0.2696,-1.9533,0.2258,0.2350,0.6512,0.1932,
36.150679,1.0348,0.1618,0.7708,0.2350,0.6512,0.1932,
36.172467,1.0348,0.1618,0.7708,-0.0476,0.8004,0.1610,
36.214805,1.0348,0.1618,0.7708,-0.0476,0.8004,0.1610,
36.215544,0.8071,0.3080,1.7277,-0.0476,0.8004,0.1610,
36.237699,0.8071,0.3080,1.7277,-0.1081,0.6684,0.3409,
36.280810,0.8071,0.3080,1.7277,-0.1081,0.6684,0.3409,
36.281370,0.8263,3.5771,0.0135,-0.1081,0.6684,0.3409,
36.303731,0.8263,3.5771,0.0135,0.2734,0.3633,-0.4216,
36.344872,0.8263,3.5771,0.0135,0.2734,0.3633,-0.4216,
36.346638,-1.5082,0.1098,-1.1990,0.2734,0.3633,-0.4216,
36.368823,-1.5082,0.1098,-1.1990,0.0541,0.1006,-0.1437,
36.410393,-1.5082,0.1098,-1.1990,0.0541,0.1006,-0.1437,
36.412026,0.1409,-1.2233,-2.3966,0.0541,0.1006,-0.1437,
36.434066,0.1409,-1.2233,-2.3966,0.5942,0.2628,-0.0476,
36.476617,0.1409,-1.2233,-2.3966,0.5942,0.2628,-0.0476,
36.478033,-0.9351,-0.3886,-1.5601,0.5942,0.2628,-0.0476,
36.500890,-0.9351,-0.3886,-1.5601,0.4867,-0.1955,-0.1092,
36.542202,-0.9351,-0.3886,-1.5601,0.4867,-0.1955,-0.1092,
36.543902,-0.4505,-0.6991,-0.4281,0.4867,-0.1955,-0.1092,
36.565316,-0.4505,-0.6991,-0.4281,0.4840,-0.5530,0.0721,
36.607746,-0.4505,-0.6991,-0.4281,0.4840,-0.5530,0.0721,
36.609302,1.5623,-0.8498,-0.6557,0.4840,-0.5530,0.0721,
36.631025,1.5623,-0.8498,-0.6557,0.5095,-0.2608,-0.1753,
36.674275,1.5623,-0.8498,-0.6557,0.5095,-0.2608,-0.1753,
36.675918,1.3361,-1.1504,-0.1467,0.5095,-0.2608,-0.1753,
36.697653,1.3361,-1.1504,-0.1467,0.5281,-0.0938,-0.3375,
36.738408,1.3361,-1.1504,-0.1467,0.5281,-0.0938,-0.3375,
36.740074,1.1680,-0.2976,0.1046,0.5281,-0.0938,-0.3375,
36.766747,1.1680,-0.2976,0.1046,0.3195,-0.2731,-0.3845,
36.804128,1.1680,-0.2976,0.1046,0.3195,-0.2731,-0.3845,
36.806365,1.4278,-0.0811,0.1220,0.3195,-0.2731,-0.3845,
36.828148,1.4278,-0.0811,0.1220,0.3027,-0.5143,0.0220,
36.869000,1.4278,-0.0811,0.1220,0.3027,-0.5143,0.0220,
36.871179,2.9896,0.3503,0.4217,0.3027,-0.5143,0.0220,
36.893541,2.9896,0.3503,0.4217,0.2810,-0.1066,0.2995,
36.934908,2.9896,0.3503,0.4217,0.2810,-0.1066,0.2995,
36.936659,-0.0917,2.4120,-1.1568,0.2810,-0.1066,0.2995,
36.958866,-0.0917,2.4120,-1.1568,-0.2944,0.3337,0.7404,
37.001086,-0.0917,2.4120,-1.1568,-0.2944,0.3337,0.7404,
37.002935,-3.2246,1.5503,-0.3253,-0.2944,0.3337,0.7404,
37.024442,-3.2246,1.5503,-0.3253,-0.7008,0.3280,0.6506,
37.067087,-3.2246,1.5503,-0.3253,-0.7008,0.3280,0.6506,
37.068779,-2.0353,2.1411,0.1023,-0.7008,0.3280,0.6506,
37.090753,-2.0353,2.1411,0.1023,-0.7859,0.1399,0.3079,
37.131376,-2.0353,2.1411,0.1023,-0.7859,0.1399,0.3079,
37.132019,-0.9718,-0.6695,-0.4145,-0.7859,0.1399,0.3079,
37.154892,-0.9718,-0.6695,-0.4145,-0.7833,0.1775,0.0611,
37.197532,-0.9718,-0.6695,-0.4145,-0.7833,0.1775,0.0611,
37.198230,-1.2567,-1.8523,0.7259,-0.7833,0.1775,0.0611,
37.219911,-1.2567,-1.8523,0.7259,-0.3337,-0.1284,-0.0852,
37.261685,-1.2567,-1.8523,0.7259,-0.3337,-0.1284,-0.0852,
37.263063,-1.0491,-1.9010,1.2968,-0.3337,-0.1284,-0.0852,
37.286649,-1.0491,-1.9010,1.2968,-0.0589,-0.3025,-0.0867,
37.327209,-1.0491,-1.9010,1.2968,-0.0589,-0.3025,-0.0867,
37.327739,0.4027,-1.0890,1.7904,-0.0589,-0.3025,-0.0867,
37.350400,0.4027,-1.0890,1.7904,-0.0990,0.0718,-0.0594,
37.393239,0.4027,-1.0890,1.7904,-0.0990,0.0718,-0.0594,
37.393807,1.0041,1.3304,2.1201,-0.0990,0.0718,-0.0594,
37.417339,1.0041,1.3304,2.1201,-0.1388,0.3290,0.0670,
37.458310,1.0041,1.3304,2.1201,-0.1388,0.3290,0.0670,
37.459063,-0.4752,4.0721,1.3347,-0.1388,0.3290,0.0670,
37.481938,-0.4752,4.0721,1.3347,0.0967,-0.1145,-0.3403,
37.524189,-0.4752,4.0721,1.3347,0.0967,-0.1145,-0.3403,
37.525797,-2.4914,-0.6190,-0.9433,0.0967,-0.1145,-0.3403,
37.549118,-2.4914,-0.6190,-0.9433,0.0968,-0.5770,-0.1248,
37.589489,-2.4914,-0.6190,-0.9433,0.0968,-0.5770,-0.1248,
37.591340,-0.2620,-0.6805,-2.4140,0.0968,-0.5770,-0.1248,
37.613483,-0.2620,-0.6805,-2.4140,0.3717,-0.5869,-0.2074,
37.655937,-0.2620,-0.6805,-2.4140,0.3717,-0.5869,-0.2074,
37.657573,-1.3672,-0.2617,-0.9348,0.3717,-0.5869,-0.2074,
37.680421,-1.3672,-0.2617,-0.9348,0.4669,-1.1113,-0.0713,
37.720534,-1.3672,-0.2617,-0.9348,0.4669,-1.1113,-0.0713,
37.721897,-0.6677,-0.5862,-1.2011,0.4669,-1.1113,-0.0713,
37.744879,-0.6677,-0.5862,-1.2011,0.2364,-1.4687,-0.0623,
37.786197,-0.6677,-0.5862,-1.2011,0.2364,-1.4687,-0.0623,
37.788320,0.8887,-1.1307,-0.5063,0.2364,-1.4687,-0.0623,
37.809744,0.8887,-1.1307,-0.5063,0.2837,-1.2471,-0.3176,
37.850496,0.8887,-1.1307,-0.5063,0.2837,-1.2471,-0.3176,
37.851908,1.5478,-1.1252,0.1671,0.2837,-1.2471,-0.3176,
37.877575,1.5478,-1.1252,0.1671,0.2210,-0.7424,-0.5576,
37.916480,1.5478,-1.1252,0.1671,0.2210,-0.7424,-0.5576,
37.918036,1.5451,-0.0956,1.1416,0.2210,-0.7424,-0.5576,
37.940579,1.5451,-0.0956,1.1416,0.2497,-0.6654,-0.4029,
37.982483,1.5451,-0.0956,1.1416,0.2497,-0.6654,-0.4029,
37.983433,3.1921,-0.0561,0.1730,0.2497,-0.6654,-0.4029,
38.007316,3.1921,-0.0561,0.1730,0.4099,0.3141,0.1535,
38.047101,3.1921,-0.0561,0.1730,0.4099,0.3141,0.1535,
38.047606,-0.1803,3.4698,0.0837,0.4099,0.3141,0.1535,
38.071695,-0.1803,3.4698,0.0837,-0.1338,0.0046,0.4574,
38.113212,-0.1803,3.4698,0.0837,-0.1338,0.0046,0.4574,
38.114744,-2.3260,0.2783,-0.9166,-0.1338,0.0046,0.4574,
38.137343,-2.3260,0.2783,-0.9166,-0.8796,0.2196,0.5110,
38.177769,-2.3260,0.2783,-0.9166,-0.8796,0.2196,0.5110,
38.178445,-1.2466,2.1171,0.4284,-0.8796,0.2196,0.5110,
38.203075,-1.2466,2.1171,0.4284,-0.7162,0.4818,0.2928,
38.243998,-1.2466,2.1171,0.4284,-0.7162,0.4818,0.2928,
38.244601,-0.1520,-0.8194,-0.9619,-0.7162,0.4818,0.2928,
38.268160,-0.1520,-0.8194,-0.9619,-0.7992,0.7107,-0.0179,
38.309441,-0.1520,-0.8194,-0.9619,-0.7992,0.7107,-0.0179,
38.309994,-1.2437,-2.1489,0.7823,-0.7992,0.7107,-0.0179,
38.332911,-1.2437,-2.1489,0.7823,-0.2220,0.5505,-0.0742,
38.374696,-1.2437,-2.1489,0.7823,-0.2220,0.5505,-0.0742,
38.376275,-1.1029,-1.4843,0.7118,-0.2220,0.5505,-0.0742,
38.398592,-1.1029,-1.4843,0.7118,0.0414,0.1712,-0.1011,
38.440819,-1.1029,-1.4843,0.7118,0.0414,0.1712,-0.1011,
38.442348,-0.2501,-0.7931,1.5771,0.0414,0.1712,-0.1011,
38.464420,-0.2501,-0.7931,1.5771,-0.1335,-0.0829,0.0420,
38.506431,-0.2501,-0.7931,1.5771,-0.1335,-0.0829,0.0420,
38.507902,0.5180,1.5735,1.9503,-0.1335,-0.0829,0.0420,
38.530496,0.5180,1.5735,1.9503,-0.1929,-0.0269,0.0719,
38.571689,0.5180,1.5735,1.9503,-0.1929,-0.0269,0.0719,
38.573008,1.1765,2.2917,1.7295,-0.1929,-0.0269,0.0719,
38.597182,1.1765,2.2917,1.7295,-0.3323,-0.2271,0.0961,
38.636985,1.1765,2.2917,1.7295,-0.3323,-0.2271,0.0961,
38.638659,-2.1567,0.8588,-2.1332,-0.3323,-0.2271,0.0961,
38.661521,-2.1567,0.8588,-2.1332,-0.0629,-0.2679,-0.4287,
38.702382,-2.1567,0.8588,-2.1332,-0.0629,-0.2679,-0.4287,
38.704364,-0.9632,-1.7213,-1.9918,-0.0629,-0.2679,-0.4287,
38.726867,-0.9632,-1.7213,-1.9918,0.4488,-0.1310,-0.1782,
38.768193,-0.9632,-1.7213,-1.9918,0.4488,-0.1310,-0.1782,
38.770691,-0.4761,-0.4170,-1.5165,0.4488,-0.1310,-0.1782,
38.793253,-0.4761,-0.4170,-1.5165,0.5921,-0.5773,-0.3319,
38.835286,-0.4761,-0.4170,-1.5165,0.5921,-0.5773,-0.3319,
38.837164,-0.3911,-1.1748,-0.8442,0.5921,-0.5773,-0.3319,
38.858487,-0.3911,-1.1748,-0.8442,0.4241,-0.7370,-0.1365,
38.899229,-0.3911,-1.1748,-0.8442,0.4241,-0.7370,-0.1365,
38.900867,1.1666,-0.9531,-0.3177,0.4241,-0.7370,-0.1365,
38.923125,1.1666,-0.9531,-0.3177,0.5108,-0.5779,-0.1655,
38.964645,1.1666,-0.9531,-0.3177,0.5108,-0.5779,-0.1655,
38.965198,1.5800,-0.5734,0.2325,0.5108,-0.5779,-0.1655,
38.988159,1.5800,-0.5734,0.2325,0.3172,-0.2382,-0.3305,
39.030654,1.5800,-0.5734,0.2325,0.3172,-0.2382,-0.3305,
39.031170,1.7433,0.0056,0.7772,0.3172,-0.2382,-0.3305,
39.052822,1.7433,0.0056,0.7772,0.2523,-0.2566,-0.2443,
39.095673,1.7433,0.0056,0.7772,0.2523,-0.2566,-0.2443,
39.096870,2.7712,-0.0734,-0.2491,0.2523,-0.2566,-0.2443,
39.119286,2.7712,-0.0734,-0.2491,0.3123,0.3506,0.0460,
39.161924,2.7712,-0.0734,-0.2491,0.3123,0.3506,0.0460,
39.163888,0.2001,3.1774,-0.8590,0.3123,0.3506,0.0460,
39.185061,0.2001,3.1774,-0.8590,-0.2069,0.1886,0.4470,
39.227326,0.2001,3.1774,-0.8590,-0.2069,0.1886,0.4470,
39.228845,-1.7821,0.3377,-1.1327,-0.2069,0.1886,0.4470,
39.250742,-1.7821,0.3377,-1.1327,-0.7740,0.3801,0.6121,
39.292257,-1.7821,0.3377,-1.1327,-0.7740,0.3801,0.6121,
39.293857,0.1139,1.5659,0.1160,-0.7740,0.3801,0.6121,
39.316242,0.1139,1.5659,0.1160,-0.4191,0.9827,0.5037,
39.357319,0.1139,1.5659,0.1160,-0.4191,0.9827,0.5037,
39.359238,0.5490,-1.2104,-1.2910,-0.4191,0.9827,0.5037,
39.383326,0.5490,-1.2104,-1.2910,-0.4691,1.8134,0.2169,
39.422980,0.5490,-1.2104,-1.2910,-0.4691,1.8134,0.2169,
39.424700,-1.1045,-1.5588,-0.2503,-0.4691,1.8134,0.2169,
39.447052,-1.1045,-1.5588,-0.2503,-0.0744,1.7118,0.0852,
39.489694,-1.1045,-1.5588,-0.2503,-0.0744,1.7118,0.0852,
39.492041,-0.8580,-0.8749,-0.2307,-0.0744,1.7118,0.0852,
39.512137,-0.8580,-0.8749,-0.2307,0.1203,1.1226,0.1290,
39.554704,-0.8580,-0.8749,-0.2307,0.1203,1.1226,0.1290,
39.556919,-0.3294,-0.7644,0.4319,0.1203,1.1226,0.1290,
39.577930,-0.3294,-0.7644,0.4319,0.0018,0.6710,0.1426,
39.621487,-0.3294,-0.7644,0.4319,0.0018,0.6710,0.1426,
39.623840,0.2572,0.9617,1.1622,0.0018,0.6710,0.1426,
39.644428,0.2572,0.9617,1.1622,-0.2250,0.5344,0.2772,
39.687803,0.2572,0.9617,1.1622,-0.2250,0.5344,0.2772,
39.688995,0.6983,3.8853,0.2168,-0.2250,0.5344,0.2772,
39.708893,0.6983,3.8853,0.2168,0.2598,0.2720,-0.0692,
39.750187,0.6983,3.8853,0.2168,0.2598,0.2720,-0.0692,
39.751737,-0.6253,0.3522,-1.6340,0.2598,0.2720,-0.0692,
39.773551,-0.6253,0.3522,-1.6340,-0.1506,0.4830,-0.2190,
39.815332,-0.6253,0.3522,-1.6340,-0.1506,0.4830,-0.2190,
39.816003,0.3981,-0.8650,-2.0767,-0.1506,0.4830,-0.2190,
39.839142,0.3981,-0.8650,-2.0767,0.4940,0.6394,-0.2653,
39.881374,0.3981,-0.8650,-2.0767,0.4940,0.6394,-0.2653,
39.883242,0.3500,-1.3625,-1.6893,0.4940,0.6394,-0.2653,
39.905404,0.3500,-1.3625,-1.6893,0.6577,0.7045,-0.2773,
39.947966,0.3500,-1.3625,-1.6893,0.6577,0.7045,-0.2773,
39.949632,0.0334,-0.1817,-1.1243,0.6577,0.7045,-0.2773,
39.969960,0.0334,-0.1817,-1.1243,0.5096,0.4293,-0.1469,
40.011916,0.0334,-0.1817,-1.1243,0.5096,0.4293,-0.1469,
40.012917,1.1703,-0.9392,-0.7471,0.5096,0.4293,-0.1469,
40.035441,1.1703,-0.9392,-0.7471,0.6211,0.4200,-0.2417,
40.077631,1.1703,-0.9392,-0.7471,0.6211,0.4200,-0.2417,
40.079214,1.5814,-0.8096,-0.7552,0.6211,0.4200,-0.2417,
40.100939,1.5814,-0.8096,-0.7552,0.5880,0.4485,-0.3464,
40.143774,1.5814,-0.8096,-0.7552,0.5880,0.4485,-0.3464,
40.145332,1.5596,0.1847,-0.3232,0.5880,0.4485,-0.3464,
40.167933,1.5596,0.1847,-0.3232,0.3790,0.0796,-0.3050,
40.208996,1.5596,0.1847,-0.3232,0.3790,0.0796,-0.3050,
40.209742,2.4966,-0.0494,0.0255,0.3790,0.0796,-0.3050,
40.232978,2.4966,-0.0494,0.0255,0.3859,0.1523,0.0171,
40.273775,2.4966,-0.0494,0.0255,0.3859,0.1523,0.0171,
40.275473,1.5716,1.8647,-0.2988,0.3859,0.1523,0.0171,
40.299301,1.5716,1.8647,-0.2988,0.2392,0.5130,0.2737,
40.339196,1.5716,1.8647,-0.2988,0.2392,0.5130,0.2737,
40.340234,-0.4747,1.2732,-1.9054,0.2392,0.5130,0.2737,
40.363454,-0.4747,1.2732,-1.9054,-0.6048,0.6455,0.6113,
40.405286,-0.4747,1.2732,-1.9054,-0.6048,0.6455,0.6113,
40.406766,-1.4762,0.6753,-0.0442,-0.6048,0.6455,0.6113,
40.429679,-1.4762,0.6753,-0.0442,-0.5617,0.8806,0.6037,
40.470984,-1.4762,0.6753,-0.0442,-0.5617,0.8806,0.6037,
40.473255,1.1350,0.3631,-1.1944,-0.5617,0.8806,0.6037,
40.493985,1.1350,0.3631,-1.1944,-0.4748,1.8120,0.3509,
40.536014,1.1350,0.3631,-1.1944,-0.4748,1.8120,0.3509,
40.537980,0.0711,-1.1489,-0.9368,-0.4748,1.8120,0.3509,
40.559485,0.0711,-1.1489,-0.9368,-0.2798,2.2025,0.1371,
40.600939,0.0711,-1.1489,-0.9368,-0.2798,2.2025,0.1371,
40.602832,-1.3732,-0.5637,-0.3935,-0.2798,2.2025,0.1371,
40.625401,-1.3732,-0.5637,-0.3935,-0.1352,1.5591,0.1678,
40.666624,-1.3732,-0.5637,-0.3935,-0.1352,1.5591,0.1678,
40.668598,-0.8758,-1.9788,-0.1608,-0.1352,1.5591,0.1678,
40.690578,-0.8758,-1.9788,-0.1608,0.1742,1.0069,0.3080,
40.731934,-0.8758,-1.9788,-0.1608,0.1742,1.0069,0.3080,
40.732729,0.8097,-0.9811,0.5697,0.1742,1.0069,0.3080,
40.755923,0.8097,-0.9811,0.5697,0.1651,0.8749,0.1840,
40.797370,0.8097,-0.9811,0.5697,0.1651,0.8749,0.1840,
40.798175,0.4545,2.0541,1.3601,0.1651,0.8749,0.1840,
40.821463,0.4545,2.0541,1.3601,-0.2251,0.6994,0.2053,
40.862538,0.4545,2.0541,1.3601,-0.2251,0.6994,0.2053,
40.863591,0.5323,4.1265,1.2528,-0.2251,0.6994,0.2053,
40.887669,0.5323,4.1265,1.2528,0.0053,0.0084,0.3024,
40.928371,0.5323,4.1265,1.2528,0.0053,0.0084,0.3024,
40.930183,-1.3324,-0.1777,-1.7929,0.0053,0.0084,0.3024,
40.953412,-1.3324,-0.1777,-1.7929,-0.1437,0.2569,-0.2779,
40.995573,-1.3324,-0.1777,-1.7929,-0.1437,0.2569,-0.2779,
40.997269,0.0167,-0.8899,-2.3680,-0.1437,0.2569,-0.2779,
41.017087,0.0167,-0.8899,-2.3680,0.4676,0.3549,-0.2584,
41.061074,0.0167,-0.8899,-2.3680,0.4676,0.3549,-0.2584,
41.062952,-0.1210,-0.8851,-1.5272,0.4676,0.3549,-0.2584,
41.085792,-0.1210,-0.8851,-1.5272,0.6946,0.1333,-0.1701,
41.125509,-0.1210,-0.8851,-1.5272,0.6946,0.1333,-0.1701,
41.126177,-0.1621,-0.4385,-1.1010,0.6946,0.1333,-0.1701,
41.150005,-0.1621,-0.4385,-1.1010,0.4691,-0.2515,-0.1136,
41.190915,-0.1621,-0.4385,-1.1010,0.4691,-0.2515,-0.1136,
41.192513,1.0127,-1.4134,-0.7665,0.4691,-0.2515,-0.1136,
41.216374,1.0127,-1.4134,-0.7665,0.6041,-0.2196,-0.2585,
41.256527,1.0127,-1.4134,-0.7665,0.6041,-0.2196,-0.2585,
41.258442,1.4705,-0.7359,-0.2773,0.6041,-0.2196,-0.2585,
41.279782,1.4705,-0.7359,-0.2773,0.4401,-0.0096,-0.2862,
41.321599,1.4705,-0.7359,-0.2773,0.4401,-0.0096,-0.2862,
41.322829,1.6054,0.0490,0.3331,0.4401,-0.0096,-0.2862,
41.346464,1.6054,0.0490,0.3331,0.3482,-0.1246,-0.2798,
41.387088,1.6054,0.0490,0.3331,0.3482,-0.1246,-0.2798,
41.389571,2.2934,0.0453,0.2740,0.3482,-0.1246,-0.2798,
41.410963,2.2934,0.0453,0.2740,0.3917,0.1649,-0.0159,
41.453393,2.2934,0.0453,0.2740,0.3917,0.1649,-0.0159,
41.455176,1.0115,2.8874,-0.2709,0.3917,0.1649,-0.0159,
41.477698,1.0115,2.8874,-0.2709,0.0588,0.2303,0.4259,
41.517297,1.0115,2.8874,-0.2709,0.0588,0.2303,0.4259,
41.519019,-0.8730,0.1437,-1.7951,0.0588,0.2303,0.4259,
41.541195,-0.8730,0.1437,-1.7951,-0.7763,0.5928,0.6883,
41.583093,-0.8730,0.1437,-1.7951,-0.7763,0.5928,0.6883,
41.584892,-0.0686,1.5452,-0.0099,-0.7763,0.5928,0.6883,
41.607455,-0.0686,1.5452,-0.0099,-0.4514,1.2236,0.4997,
41.649652,-0.0686,1.5452,-0.0099,-0.4514,1.2236,0.4997,
41.650492,1.0953,-0.1452,-1.5378,-0.4514,1.2236,0.4997,
41.674414,1.0953,-0.1452,-1.5378,-0.4896,2.0337,0.1565,
41.714391,1.0953,-0.1452,-1.5378,-0.4896,2.0337,0.1565,
41.714875,-1.2174,-1.5921,-0.3099,-0.4896,2.0337,0.1565,
41.738328,-1.2174,-1.5921,-0.3099,-0.1529,1.9073,0.2373,
41.780343,-1.2174,-1.5921,-0.3099,-0.1529,1.9073,0.2373,
41.780942,-1.0790,-1.4339,-0.2899,-0.1529,1.9073,0.2373,
41.803919,-1.0790,-1.4339,-0.2899,0.0643,1.2703,0.1965,
41.845252,-1.0790,-1.4339,-0.2899,0.0643,1.2703,0.1965,
41.845784,0.0023,-1.8564,0.3157,0.0643,1.2703,0.1965,
41.868993,0.0023,-1.8564,0.3157,0.2578,0.7801,0.1364,
41.910682,0.0023,-1.8564,0.3157,0.2578,0.7801,0.1364,
41.912119,0.4921,1.0193,0.7607,0.2578,0.7801,0.1364,
41.934620,0.4921,1.0193,0.7607,-0.0866,0.7957,0.0389,
41.975730,0.4921,1.0193,0.7607,-0.0866,0.7957,0.0389,
41.976728,0.0263,0.7256,2.2440,-0.0866,0.7957,0.0389,
42.001016,0.0263,0.7256,2.2440,-0.6095,0.1764,0.2731,
42.042631,0.0263,0.7256,2.2440,-0.6095,0.1764,0.2731,
42.043201,-0.0816,1.0679,-1.2933,-0.6095,0.1764,0.2731,
42.064819,-0.0816,1.0679,-1.2933,0.1069,0.0883,-0.2761,
42.107194,-0.0816,1.0679,-1.2933,0.1069,0.0883,-0.2761,
42.108722,-1.0402,-0.6908,-1.4961,0.1069,0.0883,-0.2761,
42.130804,-1.0402,-0.6908,-1.4961,0.3357,0.1790,-0.2254,
42.172540,-1.0402,-0.6908,-1.4961,0.3357,0.1790,-0.2254,
42.173983,0.0204,-0.5970,-2.0887,0.3357,0.1790,-0.2254,
42.196445,0.0204,-0.5970,-2.0887,0.5638,-0.0108,-0.2306,
42.238041,0.0204,-0.5970,-2.0887,0.5638,-0.0108,-0.2306,
42.239911,-1.0397,-0.4684,-1.3298,0.5638,-0.0108,-0.2306,
42.261952,-1.0397,-0.4684,-1.3298,0.4826,-0.4412,-0.1268,
42.303569,-1.0397,-0.4684,-1.3298,0.4826,-0.4412,-0.1268,
42.305416,0.2683,-1.0182,-0.9100,0.4826,-0.4412,-0.1268,
42.328815,0.2683,-1.0182,-0.9100,0.5501,-0.6732,-0.1723,
42.370359,0.2683,-1.0182,-0.9100,0.5501,-0.6732,-0.1723,
42.372540,1.4778,-1.0946,-0.2756,0.5501,-0.6732,-0.1723,
42.393987,1.4778,-1.0946,-0.2756,0.4698,-0.4600,-0.3410,
42.434850,1.4778,-1.0946,-0.2756,0.4698,-0.4600,-0.3410,
42.436675,1.6625,-0.2598,0.1926,0.4698,-0.4600,-0.3410,
42.458574,1.6625,-0.2598,0.1926,0.2250,-0.3931,-0.3760,
42.502306,1.6625,-0.2598,0.1926,0.2250,-0.3931,-0.3760,
42.504163,2.3903,0.2075,0.3615,0.2250,-0.3931,-0.3760,
42.525317,2.3903,0.2075,0.3615,0.2671,-0.1384,-0.0560,
42.565802,2.3903,0.2075,0.3615,0.2671,-0.1384,-0.0560,
42.567670,1.9661,0.9352,-0.3393,0.2671,-0.1384,-0.0560,
42.590940,1.9661,0.9352,-0.3393,0.0600,0.1411,0.3303,
42.630154,1.9661,0.9352,-0.3393,0.0600,0.1411,0.3303,
42.631254,-0.2311,1.6684,-1.8803,0.0600,0.1411,0.3303,
42.654366,-0.2311,1.6684,-1.8803,-0.6484,0.3879,0.7697,
42.697458,-0.2311,1.6684,-1.8803,-0.6484,0.3879,0.7697,
42.699202,-1.7237,0.8925,-0.3005,-0.6484,0.3879,0.7697,
42.720806,-1.7237,0.8925,-0.3005,-0.6388,0.6368,0.6495,
42.760966,-1.7237,0.8925,-0.3005,-0.6388,0.6368,0.6495,
42.761531,0.4697,1.5533,-0.2647,-0.6388,0.6368,0.6495,
42.785747,0.4697,1.5533,-0.2647,-0.4916,1.1393,0.3884,
42.827697,0.4697,1.5533,-0.2647,-0.4916,1.1393,0.3884,
42.829137,0.0511,-1.3318,-0.6961,-0.4916,1.1393,0.3884,
42.851652,0.0511,-1.3318,-0.6961,-0.2042,1.8459,0.1941,
42.893105,0.0511,-1.3318,-0.6961,-0.2042,1.8459,0.1941,
42.894409,-1.3279,-1.8074,0.2270,-0.2042,1.8459,0.1941,
42.917077,-1.3279,-1.8074,0.2270,0.0359,1.3552,-0.0776,
42.958227,-1.3279,-1.8074,0.2270,0.0359,1.3552,-0.0776,
42.960164,-1.1790,-1.8484,0.0708,0.0359,1.3552,-0.0776,
42.981604,-1.1790,-1.8484,0.0708,0.3060,0.6765,-0.0102,
43.024280,-1.1790,-1.8484,0.0708,0.3060,0.6765,-0.0102,
43.025985,0.1160,-0.3830,0.8735,0.3060,0.6765,-0.0102,
43.048421,0.1160,-0.3830,0.8735,0.1385,0.4424,-0.0281,
43.090900,0.1160,-0.3830,0.8735,0.1385,0.4424,-0.0281,
43.092553,0.5881,1.2168,1.8350,0.1385,0.4424,-0.0281,
43.113930,0.5881,1.2168,1.8350,-0.4242,0.1998,0.3132,
43.154657,0.5881,1.2168,1.8350,-0.4242,0.1998,0.3132,
43.156729,1.0936,3.6746,0.1912,-0.4242,0.1998,0.3132,
43.179059,1.0936,3.6746,0.1912,0.1875,-0.1371,-0.2091,
43.219857,1.0936,3.6746,0.1912,0.1875,-0.1371,-0.2091,
43.221422,-1.7286,-0.8988,-0.8691,0.1875,-0.1371,-0.2091,
43.244637,-1.7286,-0.8988,-0.8691,0.1939,0.0199,-0.0961,
43.285507,-1.7286,-0.8988,-0.8691,0.1939,0.0199,-0.0961,
43.287239,-0.0538,-0.8906,-2.0250,0.1939,0.0199,-0.0961,
43.309205,-0.0538,-0.8906,-2.0250,0.5603,-0.0568,-0.3013,
43.351625,-0.0538,-0.8906,-2.0250,0.5603,-0.0568,-0.3013,
43.353535,-1.2177,-0.6480,-1.1995,0.5603,-0.0568,-0.3013,
43.376154,-1.2177,-0.6480,-1.1995,0.5573,-0.4930,-0.1524,
43.418487,-1.2177,-0.6480,-1.1995,0.5573,-0.4930,-0.1524,
43.420867,-0.2850,-0.7114,-1.0231,0.5573,-0.4930,-0.1524,
43.441296,-0.2850,-0.7114,-1.0231,0.5108,-0.8236,-0.1619,
43.482903,-0.2850,-0.7114,-1.0231,0.5108,-0.8236,-0.1619,
43.483559,1.0120,-1.1810,-0.2535,0.5108,-0.8236,-0.1619,
43.507231,1.0120,-1.1810,-0.2535,0.4556,-0.7278,-0.2972,
43.547211,1.0120,-1.1810,-0.2535,0.4556,-0.7278,-0.2972,
43.548108,1.5132,-0.7049,0.3390,0.4556,-0.7278,-0.2972,
43.571151,1.5132,-0.7049,0.3390,0.2679,-0.5834,-0.3577,
43.614326,1.5132,-0.7049,0.3390,0.2679,-0.5834,-0.3577,
43.616017,2.5766,-0.0523,0.6898,0.2679,-0.5834,-0.3577,
43.637970,2.5766,-0.0523,0.6898,0.3348,-0.1941,-0.1177,
43.678415,2.5766,-0.0523,0.6898,0.3348,-0.1941,-0.1177,
43.679333,1.6374,1.7092,-0.2709,0.3348,-0.1941,-0.1177,
43.702403,1.6374,1.7092,-0.2709,0.2792,0.3969,0.3555,
43.744414,1.6374,1.7092,-0.2709,0.2792,0.3969,0.3555,
43.745866,-0.3324,2.9212,-1.8866,0.2792,0.3969,0.3555,
43.767366,-0.3324,2.9212,-1.8866,-0.5608,0.2944,0.5600,
43.809835,-0.3324,2.9212,-1.8866,-0.5608,0.2944,0.5600,
43.811840,-2.0211,0.7394,-0.1020,-0.5608,0.2944,0.5600,
43.834854,-2.0211,0.7394,-0.1020,-0.6756,0.5192,0.3462,
43.875512,-2.0211,0.7394,-0.1020,-0.6756,0.5192,0.3462,
43.876139,-0.1180,0.1503,-0.4752,-0.6756,0.5192,0.3462,
43.900077,-0.1180,0.1503,-0.4752,-0.6519,0.9200,0.1509,
43.940777,-0.1180,0.1503,-0.4752,-0.6519,0.9200,0.1509,
43.942566,-0.7642,-1.6525,-0.1622,-0.6519,0.9200,0.1509,
43.964425,-0.7642,-1.6525,-0.1622,-0.3668,1.1565,0.1642,
44.005885,-0.7642,-1.6525,-0.1622,-0.3668,1.1565,0.1642,
44.007394,-1.2448,-1.4433,0.5150,-0.3668,1.1565,0.1642,
44.030408,-1.2448,-1.4433,0.5150,-0.0438,0.8488,0.0440,
44.071059,-1.2448,-1.4433,0.5150,-0.0438,0.8488,0.0440,
44.073209,-0.7155,-1.7154,0.7454,-0.0438,0.8488,0.0440,
44.096113,-0.7155,-1.7154,0.7454,0.1104,0.4986,0.0893,
44.136088,-0.7155,-1.7154,0.7454,0.1104,0.4986,0.0893,
44.137811,0.3686,0.2332,1.2349,0.1104,0.4986,0.0893,
44.161299,0.3686,0.2332,1.2349,-0.0544,0.4905,0.1330,
44.202440,0.3686,0.2332,1.2349,-0.0544,0.4905,0.1330,
44.204626,-0.1484,1.0785,2.5114,-0.0544,0.4905,0.1330,
44.226747,-0.1484,1.0785,2.5114,-0.6909,0.1397,0.2347,
44.269034,-0.1484,1.0785,2.5114,-0.6909,0.1397,0.2347,
44.271445,-0.4757,2.0094,-0.6726,-0.6909,0.1397,0.2347,
44.292510,-0.4757,2.0094,-0.6726,-0.0012,-0.1836,-0.4282,
44.333605,-0.4757,2.0094,-0.6726,-0.0012,-0.1836,-0.4282,
44.335077,-1.4719,-0.5005,-1.5284,-0.0012,-0.1836,-0.4282,
44.356855,-1.4719,-0.5005,-1.5284,0.1649,-0.1516,-0.2537,
44.398703,-1.4719,-0.5005,-1.5284,0.1649,-0.1516,-0.2537,
44.400389,0.2119,-0.6288,-2.1730,0.1649,-0.1516,-0.2537,
44.421587,0.2119,-0.6288,-2.1730,0.4951,-0.2039,-0.2193,
44.463998,0.2119,-0.6288,-2.1730,0.4951,-0.2039,-0.2193,
44.466135,-1.0979,-0.5511,-1.1275,0.4951,-0.2039,-0.2193,
44.488565,-1.0979,-0.5511,-1.1275,0.5173,-0.6839,-0.1816,
44.529614,-1.0979,-0.5511,-1.1275,0.5173,-0.6839,-0.1816,
44.531162,0.4018,-0.6006,-0.8992,0.5173,-0.6839,-0.1816,
44.553895,0.4018,-0.6006,-0.8992,0.5267,-0.8370,-0.1261,
44.594524,0.4018,-0.6006,-0.8992,0.5267,-0.8370,-0.1261,
44.595053,1.6373,-1.1057,-0.2516,0.5267,-0.8370,-0.1261,
44.618786,1.6373,-1.1057,-0.2516,0.4977,-0.4284,-0.3752,
44.661091,1.6373,-1.1057,-0.2516,0.4977,-0.4284,-0.3752,
44.661620,1.6179,-0.5235,0.3050,0.4977,-0.4284,-0.3752,
44.684994,1.6179,-0.5235,0.3050,0.3325,-0.2888,-0.5108,
44.726761,1.6179,-0.5235,0.3050,0.3325,-0.2888,-0.5108,
44.727424,2.1150,0.1646,0.7785,0.3325,-0.2888,-0.5108,
44.750925,2.1150,0.1646,0.7785,0.1715,-0.1078,-0.1733,
44.791652,2.1150,0.1646,0.7785,0.1715,-0.1078,-0.1733,
44.792705,1.3762,1.7976,-0.3606,0.1715,-0.1078,-0.1733,
44.815461,1.3762,1.7976,-0.3606,0.1388,0.4143,0.2944,
44.856883,1.3762,1.7976,-0.3606,0.1388,0.4143,0.2944,
44.857418,-0.5949,1.6105,-2.0350,0.1388,0.4143,0.2944,
44.881072,-0.5949,1.6105,-2.0350,-0.7355,0.5053,0.5877,
44.923944,-0.5949,1.6105,-2.0350,-0.7355,0.5053,0.5877,
44.924567,-0.4883,1.4530,0.1811,-0.7355,0.5053,0.5877,
44.947347,-0.4883,1.4530,0.1811,-0.4705,0.8900,0.4904,
44.989300,-0.4883,1.4530,0.1811,-0.4705,0.8900,0.4904,
44.991324,0.9096,-0.2554,-1.2333,-0.4705,0.8900,0.4904,
45.013192,0.9096,-0.2554,-1.2333,-0.4574,1.8126,0.3180,
45.054031,0.9096,-0.2554,-1.2333,-0.4574,1.8126,0.3180,
45.056027,-0.5255,-1.9108,-0.7935,-0.4574,1.8126,0.3180,
45.077673,-0.5255,-1.9108,-0.7935,-0.1431,1.9650,0.1877,
45.118875,-0.5255,-1.9108,-0.7935,-0.1431,1.9650,0.1877,
45.120440,-1.0311,-1.2946,-0.2095,-0.1431,1.9650,0.1877,
45.142559,-1.0311,-1.2946,-0.2095,0.1127,1.3001,0.1115,
45.184266,-1.0311,-1.2946,-0.2095,0.1127,1.3001,0.1115,
45.185510,-0.2972,-1.7133,-0.0948,0.1127,1.3001,0.1115,
45.208649,-0.2972,-1.7133,-0.0948,0.2101,0.8225,0.0777,
45.250020,-0.2972,-1.7133,-0.0948,0.2101,0.8225,0.0777,
45.251767,0.0385,1.3984,0.8655,0.2101,0.8225,0.0777,
45.274866,0.0385,1.3984,0.8655,-0.2764,0.5000,0.0904,
45.314820,0.0385,1.3984,0.8655,-0.2764,0.5000,0.0904,
45.315529,0.5704,3.0249,1.8609,-0.2764,0.5000,0.0904,
45.339224,0.5704,3.0249,1.8609,-0.4716,-0.0589,0.3297,
45.380431,0.5704,3.0249,1.8609,-0.4716,-0.0589,0.3297,
45.381027,-0.8230,-0.1419,-1.6455,-0.4716,-0.0589,0.3297,
45.404276,-0.8230,-0.1419,-1.6455,-0.1211,0.2433,-0.2585,
45.445673,-0.8230,-0.1419,-1.6455,-0.1211,0.2433,-0.2585,
45.447524,-0.3051,-1.1396,-1.8828,-0.1211,0.2433,-0.2585,
45.470522,-0.3051,-1.1396,-1.8828,0.5457,0.4591,-0.1772,
45.511317,-0.3051,-1.1396,-1.8828,0.5457,0.4591,-0.1772,
45.512715,0.4457,-0.7198,-1.6840,0.5457,0.4591,-0.1772,
45.535434,0.4457,-0.7198,-1.6840,0.6814,0.3913,-0.2459,
45.577108,0.4457,-0.7198,-1.6840,0.6814,0.3913,-0.2459,
45.579168,-0.5922,-0.6857,-1.0340,0.6814,0.3913,-0.2459,
45.600868,-0.5922,-0.6857,-1.0340,0.5342,0.0344,-0.2152,
45.643291,-0.5922,-0.6857,-1.0340,0.5342,0.0344,-0.2152,
45.644833,0.9048,-1.0066,-0.7065,0.5342,0.0344,-0.2152,
45.667430,0.9048,-1.0066,-0.7065,0.5818,-0.1520,-0.2210,
45.708003,0.9048,-1.0066,-0.7065,0.5818,-0.1520,-0.2210,
45.708459,1.6664,-1.0591,-0.3176,0.5818,-0.1520,-0.2210,
45.732584,1.6664,-1.0591,-0.3176,0.4556,0.0495,-0.2709,
45.774364,1.6664,-1.0591,-0.3176,0.4556,0.0495,-0.2709,
45.774957,1.6302,-0.0270,0.3267,0.4556,0.0495,-0.2709,
45.797621,1.6302,-0.0270,0.3267,0.3357,-0.1802,-0.2159,
45.838813,1.6302,-0.0270,0.3267,0.3357,-0.1802,-0.2159,
45.839918,3.1789,0.4462,-0.1951,0.3357,-0.1802,-0.2159,
45.864750,3.1789,0.4462,-0.1951,0.3212,0.2552,0.2216,
45.905761,3.1789,0.4462,-0.1951,0.3212,0.2552,0.2216,
45.907900,0.7907,2.4876,-0.5113,0.3212,0.2552,0.2216,
45.928809,0.7907,2.4876,-0.5113,-0.0145,0.4849,0.6238,
45.970025,0.7907,2.4876,-0.5113,-0.0145,0.4849,0.6238,
45.971844,-1.8985,0.3377,-1.4888,-0.0145,0.4849,0.6238,
45.998050,-1.8985,0.3377,-1.4888,-0.7028,0.4817,0.6548,
46.035904,-1.8985,0.3377,-1.4888,-0.7028,0.4817,0.6548,
46.037632,-1.2828,2.2964,0.0521,-0.7028,0.4817,0.6548,
46.060832,-1.2828,2.2964,0.0521,-0.5976,0.5104,0.4013,
46.102531,-1.2828,2.2964,0.0521,-0.5976,0.5104,0.4013,
46.104335,0.2315,-0.8145,-0.8638,-0.5976,0.5104,0.4013,
46.125714,0.2315,-0.8145,-0.8638,-0.5177,1.3076,0.1894,
46.166667,0.2315,-0.8145,-0.8638,-0.5177,1.3076,0.1894,
46.168676,-0.6854,-1.7708,0.2278,-0.5177,1.3076,0.1894,
46.190805,-0.6854,-1.7708,0.2278,-0.1622,1.3434,0.0241,
46.233054,-0.6854,-1.7708,0.2278,-0.1622,1.3434,0.0241,
46.235881,-1.2800,-1.8633,0.2350,-0.1622,1.3434,0.0241,
46.256166,-1.2800,-1.8633,0.2350,0.1122,0.7555,0.0014,
46.297445,-1.2800,-1.8633,0.2350,0.1122,0.7555,0.0014,
46.298613,-0.1043,-1.4962,1.0830,0.1122,0.7555,0.0014,
46.321453,-0.1043,-1.4962,1.0830,0.1008,0.5483,0.2057,
46.363195,-0.1043,-1.4962,1.0830,0.1008,0.5483,0.2057,
46.363748,1.2364,1.9922,1.0732,0.1008,0.5483,0.2057,
46.386802,1.2364,1.9922,1.0732,-0.1034,0.5405,0.2326,
46.428125,1.2364,1.9922,1.0732,-0.1034,0.5405,0.2326,
46.429267,0.2033,3.1242,1.9240,-0.1034,0.5405,0.2326,
46.452694,0.2033,3.1242,1.9240,-0.4543,0.0577,0.2392,
46.494895,0.2033,3.1242,1.9240,-0.4543,0.0577,0.2392,
46.495482,-2.2067,-0.6491,-1.6631,-0.4543,0.0577,0.2392,
46.518834,-2.2067,-0.6491,-1.6631,-0.0786,-0.0956,-0.4835,
46.559712,-2.2067,-0.6491,-1.6631,-0.0786,-0.0956,-0.4835,
46.560791,-1.6745,-1.0140,-1.9795,-0.0786,-0.0956,-0.4835,
46.584532,-1.6745,-1.0140,-1.9795,0.4704,-0.4278,-0.1936,
46.625003,-1.6745,-1.0140,-1.9795,0.4704,-0.4278,-0.1936,
46.626007,-0.3595,-1.0081,-1.6018,0.4704,-0.4278,-0.1936,
46.649024,-0.3595,-1.0081,-1.6018,0.6235,-0.5337,-0.2786,
46.690590,-0.3595,-1.0081,-1.6018,0.6235,-0.5337,-0.2786,
46.692118,-0.3784,-0.6529,-0.7925,0.6235,-0.5337,-0.2786,
46.714533,-0.3784,-0.6529,-0.7925,0.5400,-0.8997,-0.1753,
46.755713,-0.3784,-0.6529,-0.7925,0.5400,-0.8997,-0.1753,
46.757035,1.3366,-0.6921,-0.5844,0.5400,-0.8997,-0.1753,
46.779772,1.3366,-0.6921,-0.5844,0.5333,-0.7921,-0.2376,
46.821644,1.3366,-0.6921,-0.5844,0.5333,-0.7921,-0.2376,
46.823201,1.3050,-1.1370,0.2978,0.5333,-0.7921,-0.2376,
46.845160,1.3050,-1.1370,0.2978,0.4019,-0.5574,-0.3862,
46.888387,1.3050,-1.1370,0.2978,0.4019,-0.5574,-0.3862,
46.890644,2.1155,-0.0478,0.8020,0.4019,-0.5574,-0.3862,
46.911861,2.1155,-0.0478,0.8020,0.2729,-0.4540,-0.2579,
46.951439,2.1155,-0.0478,0.8020,0.2729,-0.4540,-0.2579,
46.952932,2.8082,0.1079,0.1876,0.2729,-0.4540,-0.2579,
46.976347,2.8082,0.1079,0.1876,0.3224,0.1998,0.1416,
47.017359,2.8082,0.1079,0.1876,0.3224,0.1998,0.1416,
47.019025,-0.1478,3.2835,-0.1261,0.3224,0.1998,0.1416,
47.041639,-0.1478,3.2835,-0.1261,-0.2256,0.1031,0.6397,
47.083755,-0.1478,3.2835,-0.1261,-0.2256,0.1031,0.6397,
47.085979,-1.7955,0.3464,-1.1396,-0.2256,0.1031,0.6397,
47.108956,-1.7955,0.3464,-1.1396,-0.7596,0.3268,0.6632,
