
time,ax,ay,az,wx,wy,wz,
0.023230,0.0000,0.0000,0.0000,-0.0341,0.0115,0.0186,
0.023430,0.0000,0.0000,0.0000,-0.0341,0.0115,0.0186,
0.034682,0.0000,0.0000,0.0000,-0.0524,0.0261,0.0249,
0.082046,0.0000,0.0000,0.0000,-0.0524,0.0261,0.0249,
0.098323,0.0000,0.0000,0.0000,-0.0189,0.0302,0.0027,
0.147927,0.0000,0.0000,0.0000,-0.0189,0.0302,0.0027,
0.163998,0.0000,0.0000,0.0000,0.0101,0.0188,-0.0231,
0.213405,0.0000,0.0000,0.0000,0.0101,0.0188,-0.0231,
0.228975,0.0000,0.0000,0.0000,-0.0018,0.0148,-0.0115,
0.279081,0.0000,0.0000,0.0000,-0.0018,0.0148,-0.0115,
0.295308,0.0000,0.0000,0.0000,-0.0110,-0.0093,-0.0173,
0.343851,0.0000,0.0000,0.0000,-0.0110,-0.0093,-0.0173,
0.360671,0.0000,0.0000,0.0000,-0.0101,-0.0200,-0.0301,
0.409737,0.0000,0.0000,0.0000,-0.0101,-0.0200,-0.0301,
0.425391,0.0000,0.0000,0.0000,-0.0031,-0.0283,-0.0011,
0.474651,0.0000,0.0000,0.0000,-0.0031,-0.0283,-0.0011,
0.491333,0.0000,0.0000,0.0000,-0.0176,-0.0341,0.0296,
0.491929,-0.2008,-0.0217,0.0564,-0.0176,-0.0341,0.0296,
0.541366,-0.2008,-0.0217,0.0564,-0.0176,-0.0341,0.0296,
0.557233,-0.2008,-0.0217,0.0564,-0.0625,-0.0916,0.0751,
0.558861,-0.1931,0.1145,-0.1022,-0.0625,-0.0916,0.0751,
0.606321,-0.1931,0.1145,-0.1022,-0.0625,-0.0916,0.0751,
0.623196,-0.1931,0.1145,-0.1022,-0.0877,-0.1226,0.0388,
0.623884,-0.0755,-0.1464,-0.0988,-0.0877,-0.1226,0.0388,
0.672038,-0.0755,-0.1464,-0.0988,-0.0877,-0.1226,0.0388,
0.687553,-0.0755,-0.1464,-0.0988,-0.0189,-0.0802,0.0081,
0.688907,-0.1562,0.1149,-0.0457,-0.0189,-0.0802,0.0081,
0.737333,-0.1562,0.1149,-0.0457,-0.0189,-0.0802,0.0081,
0.753172,-0.1562,0.1149,-0.0457,-0.0634,-0.0399,0.0608,
0.754246,-0.0601,0.1577,0.0630,-0.0634,-0.0399,0.0608,
0.802753,-0.0601,0.1577,0.0630,-0.0634,-0.0399,0.0608,
0.818480,-0.0601,0.1577,0.0630,-0.0939,-0.0243,0.0915,
0.820171,-0.0411,-0.0126,0.0313,-0.0939,-0.0243,0.0915,
0.868287,-0.0411,-0.0126,0.0313,-0.0939,-0.0243,0.0915,
0.885100,-0.0411,-0.0126,0.0313,-0.0496,-0.0148,-0.0029,
0.886656,-0.0150,0.0153,-0.1079,-0.0496,-0.0148,-0.0029,
0.934369,-0.0150,0.0153,-0.1079,-0.0496,-0.0148,-0.0029,
0.950457,-0.0150,0.0153,-0.1079,-0.0750,0.0377,0.0079,
0.952247,-0.1754,0.0078,0.0357,-0.0750,0.0377,0.0079,
0.999393,-0.1754,0.0078,0.0357,-0.0750,0.0377,0.0079,
1.016305,-0.1754,0.0078,0.0357,-0.4540,0.0574,0.0302,
1.017291,0.1771,0.0269,-0.3156,-0.4540,0.0574,0.0302,
1.080358,0.1771,0.0269,-0.3156,-0.4398,-0.0983,-0.2111,
1.096510,0.1771,0.0269,-0.3156,-0.4398,-0.0983,-0.2111,
1.097549,-0.1643,-0.2797,0.0760,-0.4398,-0.0983,-0.2111,
1.114073,-0.1643,-0.2797,0.0760,-0.4398,-0.0983,-0.2111,
1.145865,-0.1643,-0.2797,0.0760,-0.3264,-0.1371,-0.3601,
1.179262,-0.1643,-0.2797,0.0760,-0.3264,-0.1371,-0.3601,
1.180642,0.4908,-0.4412,-0.2348,-0.3264,-0.1371,-0.3601,
1.211013,0.4908,-0.4412,-0.2348,-0.3274,0.0473,-0.5692,
1.244230,0.4908,-0.4412,-0.2348,-0.3274,0.0473,-0.5692,
1.245473,-0.0879,-0.0138,-0.2250,-0.3274,0.0473,-0.5692,
1.277015,-0.0879,-0.0138,-0.2250,-0.3112,0.2871,-0.6631,
1.310129,-0.0879,-0.0138,-0.2250,-0.3112,0.2871,-0.6631,
1.311720,-0.1349,-0.1509,0.1296,-0.3112,0.2871,-0.6631,
1.342462,-0.1349,-0.1509,0.1296,-0.1860,0.2938,-0.6411,
1.376070,-0.1349,-0.1509,0.1296,-0.1860,0.2938,-0.6411,
1.377750,-0.4510,0.0210,0.1255,-0.1860,0.2938,-0.6411,
1.407960,-0.4510,0.0210,0.1255,-0.1542,0.1348,-0.3487,
1.441237,-0.4510,0.0210,0.1255,-0.1542,0.1348,-0.3487,
1.442984,-0.2985,0.0260,0.0544,-0.1542,0.1348,-0.3487,
1.474070,-0.2985,0.0260,0.0544,-0.1593,0.0811,-0.1307,
1.507399,-0.2985,0.0260,0.0544,-0.1593,0.0811,-0.1307,
1.508582,-0.1285,-0.8568,0.0195,-0.1593,0.0811,-0.1307,
1.538936,-0.1285,-0.8568,0.0195,-0.1576,0.1872,0.0997,
1.571409,-0.1285,-0.8568,0.0195,-0.1576,0.1872,0.0997,
1.571857,-0.4991,-0.9370,0.0072,-0.1576,0.1872,0.0997,
1.605003,-0.4991,-0.9370,0.0072,-0.1193,0.2320,0.1898,
1.636927,-0.4991,-0.9370,0.0072,-0.1193,0.2320,0.1898,
1.637276,0.1508,0.5050,0.4187,-0.1193,0.2320,0.1898,
1.669438,0.1508,0.5050,0.4187,0.0979,0.2688,0.1391,
1.702307,0.1508,0.5050,0.4187,0.0979,0.2688,0.1391,
1.702851,-0.3033,-0.1712,0.0207,0.0979,0.2688,0.1391,
1.735047,-0.3033,-0.1712,0.0207,0.0570,0.4030,0.1075,
1.767719,-0.3033,-0.1712,0.0207,0.0570,0.4030,0.1075,
1.768215,-0.2408,0.2083,0.0337,0.0570,0.4030,0.1075,
1.800299,-0.2408,0.2083,0.0337,0.1258,0.5363,-0.1639,
1.834306,-0.2408,0.2083,0.0337,0.1258,0.5363,-0.1639,
1.834733,-0.0200,1.3272,0.7122,0.1258,0.5363,-0.1639,
1.866068,-0.0200,1.3272,0.7122,0.1717,0.3021,-0.3483,
1.899129,-0.0200,1.3272,0.7122,0.1717,0.3021,-0.3483,
1.899549,-0.7603,0.2419,0.4131,0.1717,0.3021,-0.3483,
1.932160,-0.7603,0.2419,0.4131,0.2222,0.3447,-0.4287,
1.964714,-0.7603,0.2419,0.4131,0.2222,0.3447,-0.4287,
1.965274,-0.7446,1.2966,0.2537,0.2222,0.3447,-0.4287,
1.997443,-0.7446,1.2966,0.2537,-0.0487,-0.6080,-0.2359,
2.030059,-0.7446,1.2966,0.2537,-0.0487,-0.6080,-0.2359,
2.030702,0.4916,-0.3162,-0.1557,-0.0487,-0.6080,-0.2359,
2.062933,0.4916,-0.3162,-0.1557,-0.1194,-0.4751,-0.3815,
2.096361,0.4916,-0.3162,-0.1557,-0.1194,-0.4751,-0.3815,
2.097161,0.5124,-0.4378,0.3039,-0.1194,-0.4751,-0.3815,
2.128291,0.5124,-0.4378,0.3039,-0.0145,-0.3673,-0.3908,
2.160937,0.5124,-0.4378,0.3039,-0.0145,-0.3673,-0.3908,
2.161685,0.6274,-0.8402,0.3742,-0.0145,-0.3673,-0.3908,
2.193230,0.6274,-0.8402,0.3742,0.1294,-0.2304,-0.2923,
2.226415,0.6274,-0.8402,0.3742,0.1294,-0.2304,-0.2923,
2.227301,0.9722,-0.8984,0.6251,0.1294,-0.2304,-0.2923,
2.260642,0.9722,-0.8984,0.6251,0.3315,-0.0315,-0.2274,
2.292175,0.9722,-0.8984,0.6251,0.3315,-0.0315,-0.2274,
2.293569,0.8400,-0.2615,0.4904,0.3315,-0.0315,-0.2274,
2.325140,0.8400,-0.2615,0.4904,0.1657,0.1408,-0.0889,
2.357768,0.8400,-0.2615,0.4904,0.1657,0.1408,-0.0889,
2.359019,0.6537,0.7615,0.4311,0.1657,0.1408,-0.0889,
2.389944,0.6537,0.7615,0.4311,0.1087,0.1300,0.0524,
2.423625,0.6537,0.7615,0.4311,0.1087,0.1300,0.0524,
2.425302,0.6285,-0.7070,0.6860,0.1087,0.1300,0.0524,
2.455990,0.6285,-0.7070,0.6860,0.1106,0.4131,-0.1093,
2.489773,0.6285,-0.7070,0.6860,0.1106,0.4131,-0.1093,
2.492030,-0.1018,-0.5420,0.4046,0.1106,0.4131,-0.1093,
2.521582,-0.1018,-0.5420,0.4046,0.1607,0.1898,-0.1303,
2.554171,-0.1018,-0.5420,0.4046,0.1607,0.1898,-0.1303,
2.555921,-0.2394,0.2462,0.4460,0.1607,0.1898,-0.1303,
2.586311,-0.2394,0.2462,0.4460,0.1836,-0.0310,-0.0580,
2.619650,-0.2394,0.2462,0.4460,0.1836,-0.0310,-0.0580,
2.621046,-0.1193,0.3180,0.4600,0.1836,-0.0310,-0.0580,
2.652294,-0.1193,0.3180,0.4600,0.3097,-0.1255,-0.0509,
2.686995,-0.1193,0.3180,0.4600,0.3097,-0.1255,-0.0509,
2.688394,-0.5196,1.0226,1.0123,0.3097,-0.1255,-0.0509,
2.717460,-0.5196,1.0226,1.0123,0.5310,-0.4510,-0.0489,
2.750363,-0.5196,1.0226,1.0123,0.5310,-0.4510,-0.0489,
2.751336,-0.4250,0.7487,0.2929,0.5310,-0.4510,-0.0489,
2.783805,-0.4250,0.7487,0.2929,0.6501,-0.5377,-0.0519,
2.815997,-0.4250,0.7487,0.2929,0.6501,-0.5377,-0.0519,
2.817921,-0.3429,-0.1973,-0.3166,0.6501,-0.5377,-0.0519,
2.848965,-0.3429,-0.1973,-0.3166,0.5881,-0.4571,-0.1523,
2.881354,-0.3429,-0.1973,-0.3166,0.5881,-0.4571,-0.1523,
2.882465,-0.2754,-1.1445,-1.0830,0.5881,-0.4571,-0.1523,
2.914465,-0.2754,-1.1445,-1.0830,0.2978,-0.3001,-0.1724,
2.947119,-0.2754,-1.1445,-1.0830,0.2978,-0.3001,-0.1724,
2.948247,0.1951,-0.5009,-0.3356,0.2978,-0.3001,-0.1724,
2.979059,0.1951,-0.5009,-0.3356,0.2158,-0.3910,-0.0637,
3.014986,0.1951,-0.5009,-0.3356,0.2158,-0.3910,-0.0637,
3.016079,0.9038,-0.1490,-0.3086,0.2158,-0.3910,-0.0637,
3.044436,0.9038,-0.1490,-0.3086,0.1804,-0.3082,-0.0327,
3.077947,0.9038,-0.1490,-0.3086,0.1804,-0.3082,-0.0327,
3.079085,1.2393,-0.7715,-0.2609,0.1804,-0.3082,-0.0327,
3.111367,1.2393,-0.7715,-0.2609,0.0933,-0.0898,-0.2082,
3.143214,1.2393,-0.7715,-0.2609,0.0933,-0.0898,-0.2082,
3.144864,0.8353,-0.5204,-0.0126,0.0933,-0.0898,-0.2082,
3.175003,0.8353,-0.5204,-0.0126,-0.0434,-0.2388,-0.2636,
3.208481,0.8353,-0.5204,-0.0126,-0.0434,-0.2388,-0.2636,
3.209430,1.0845,-0.5581,0.0030,-0.0434,-0.2388,-0.2636,
3.241332,1.0845,-0.5581,0.0030,-0.0521,-0.0980,-0.1379,
3.273782,1.0845,-0.5581,0.0030,-0.0521,-0.0980,-0.1379,
3.274707,1.4876,-0.9271,0.1868,-0.0521,-0.0980,-0.1379,
3.307095,1.4876,-0.9271,0.1868,0.0893,0.0026,0.0696,
3.340619,1.4876,-0.9271,0.1868,0.0893,0.0026,0.0696,
3.342101,-1.2126,2.3278,0.1489,0.0893,0.0026,0.0696,
3.372916,-1.2126,2.3278,0.1489,-0.0344,-0.0710,0.2082,
3.405732,-1.2126,2.3278,0.1489,-0.0344,-0.0710,0.2082,
3.407849,-1.4171,2.2486,-0.9576,-0.0344,-0.0710,0.2082,
3.437640,-1.4171,2.2486,-0.9576,-0.5806,-0.1043,0.2563,
3.475144,-1.4171,2.2486,-0.9576,-0.5806,-0.1043,0.2563,
3.476962,-0.1685,-0.4513,-0.2640,-0.5806,-0.1043,0.2563,
3.503831,-0.1685,-0.4513,-0.2640,-0.9482,0.6251,0.1662,
3.536656,-0.1685,-0.4513,-0.2640,-0.9482,0.6251,0.1662,
3.538122,-0.8780,0.4801,0.0237,-0.9482,0.6251,0.1662,
3.569122,-0.8780,0.4801,0.0237,-0.7749,0.3601,0.0150,
3.603056,-0.8780,0.4801,0.0237,-0.7749,0.3601,0.0150,
3.604720,-1.4040,-0.0995,-0.0520,-0.7749,0.3601,0.0150,
3.634895,-1.4040,-0.0995,-0.0520,-0.8580,-0.0472,0.0722,
3.668549,-1.4040,-0.0995,-0.0520,-0.8580,-0.0472,0.0722,
3.670236,-0.6952,-0.9991,0.4187,-0.8580,-0.0472,0.0722,
3.699975,-0.6952,-0.9991,0.4187,-0.5634,-0.1080,-0.0379,
3.734388,-0.6952,-0.9991,0.4187,-0.5634,-0.1080,-0.0379,
3.736158,0.2285,-1.1546,0.6381,-0.5634,-0.1080,-0.0379,
3.766171,0.2285,-1.1546,0.6381,-0.1417,-0.1394,-0.0961,
3.798446,0.2285,-1.1546,0.6381,-0.1417,-0.1394,-0.0961,
3.800157,0.4136,-1.1396,0.8155,-0.1417,-0.1394,-0.0961,
3.830518,0.4136,-1.1396,0.8155,-0.0047,0.1023,0.0209,
3.864582,0.4136,-1.1396,0.8155,-0.0047,0.1023,0.0209,
3.866228,1.2897,-1.0051,1.4671,-0.0047,0.1023,0.0209,
3.895997,1.2897,-1.0051,1.4671,0.1698,0.2981,0.3126,
3.929590,1.2897,-1.0051,1.4671,0.1698,0.2981,0.3126,
3.931464,-0.2271,-0.7017,0.1732,0.1698,0.2981,0.3126,
3.961600,-0.2271,-0.7017,0.1732,0.0186,0.5282,0.1374,
3.995233,-0.2271,-0.7017,0.1732,0.0186,0.5282,0.1374,
3.996902,-1.2259,2.3469,0.6643,0.0186,0.5282,0.1374,
4.027637,-1.2259,2.3469,0.6643,0.3483,-0.2025,0.0921,
4.062137,-1.2259,2.3469,0.6643,0.3483,-0.2025,0.0921,
4.063982,-0.0049,0.3481,-0.1883,0.3483,-0.2025,0.0921,
4.092064,-0.0049,0.3481,-0.1883,0.7624,0.0026,0.0505,
4.127085,-0.0049,0.3481,-0.1883,0.7624,0.0026,0.0505,
4.128698,-0.1665,0.9503,-1.2245,0.7624,0.0026,0.0505,
4.158113,-0.1665,0.9503,-1.2245,0.6475,0.1773,0.0443,
4.192352,-0.1665,0.9503,-1.2245,0.6475,0.1773,0.0443,
4.193924,-1.1489,-0.8949,-0.5623,0.6475,0.1773,0.0443,
4.225326,-1.1489,-0.8949,-0.5623,0.5458,0.0183,0.0867,
4.257688,-1.1489,-0.8949,-0.5623,0.5458,0.0183,0.0867,
4.259471,-0.9390,-0.2843,-0.6877,0.5458,0.0183,0.0867,
4.289968,-0.9390,-0.2843,-0.6877,0.3505,-0.3691,0.0742,
4.324211,-0.9390,-0.2843,-0.6877,0.3505,-0.3691,0.0742,
4.326300,-0.2466,-0.2525,-0.4522,0.3505,-0.3691,0.0742,
4.354675,-0.2466,-0.2525,-0.4522,0.2847,-0.4171,0.0596,
4.387344,-0.2466,-0.2525,-0.4522,0.2847,-0.4171,0.0596,
4.388066,0.1939,-0.1679,-0.3770,0.2847,-0.4171,0.0596,
4.419081,0.1939,-0.1679,-0.3770,0.2729,-0.2960,0.0261,
4.453455,0.1939,-0.1679,-0.3770,0.2729,-0.2960,0.0261,
4.455141,0.2965,-0.2742,-0.3538,0.2729,-0.2960,0.0261,
4.484997,0.2965,-0.2742,-0.3538,0.1539,-0.2176,-0.0316,
4.518299,0.2965,-0.2742,-0.3538,0.1539,-0.2176,-0.0316,
4.519849,-0.0485,-0.2915,-0.0356,0.1539,-0.2176,-0.0316,
4.552494,-0.0485,-0.2915,-0.0356,0.1170,-0.2766,-0.0907,
4.584275,-0.0485,-0.2915,-0.0356,0.1170,-0.2766,-0.0907,
4.584945,0.2173,-0.3726,-0.2324,0.1170,-0.2766,-0.0907,
4.617007,0.2173,-0.3726,-0.2324,0.0739,-0.2676,-0.0918,
4.649594,0.2173,-0.3726,-0.2324,0.0739,-0.2676,-0.0918,
4.650504,0.3620,-0.3034,-0.1862,0.0739,-0.2676,-0.0918,
4.682739,0.3620,-0.3034,-0.1862,0.0296,-0.3100,-0.0322,
4.715428,0.3620,-0.3034,-0.1862,0.0296,-0.3100,-0.0322,
4.716075,0.4761,-0.1864,0.1740,0.0296,-0.3100,-0.0322,
4.747753,0.4761,-0.1864,0.1740,0.0115,-0.4581,-0.0298,
4.780790,0.4761,-0.1864,0.1740,0.0115,-0.4581,-0.0298,
4.782299,0.9136,-0.5630,0.1310,0.0115,-0.4581,-0.0298,
4.812828,0.9136,-0.5630,0.1310,0.1032,-0.4621,-0.1542,
4.845726,0.9136,-0.5630,0.1310,0.1032,-0.4621,-0.1542,
4.847619,1.4887,-0.3005,0.2378,0.1032,-0.4621,-0.1542,
4.878352,1.4887,-0.3005,0.2378,0.1585,-0.3618,-0.2709,
4.911407,1.4887,-0.3005,0.2378,0.1585,-0.3618,-0.2709,
4.912874,1.6124,-0.5916,0.4978,0.1585,-0.3618,-0.2709,
4.944668,1.6124,-0.5916,0.4978,0.2017,-0.2369,-0.3099,
4.977797,1.6124,-0.5916,0.4978,0.2017,-0.2369,-0.3099,
4.979467,1.1343,-0.6633,-0.2189,0.2017,-0.2369,-0.3099,
5.009759,1.1343,-0.6633,-0.2189,0.1938,0.0951,-0.0967,
5.042278,1.1343,-0.6633,-0.2189,0.1938,0.0951,-0.0967,
5.043941,-1.9813,3.7567,-0.1178,0.1938,0.0951,-0.0967,
5.075853,-1.9813,3.7567,-0.1178,-0.3545,-0.1712,0.1962,
5.107515,-1.9813,3.7567,-0.1178,-0.3545,-0.1712,0.1962,
5.109024,-0.8047,1.7190,-0.5002,-0.3545,-0.1712,0.1962,
5.140821,-0.8047,1.7190,-0.5002,-0.8772,-0.0351,0.3286,
5.173925,-0.8047,1.7190,-0.5002,-0.8772,-0.0351,0.3286,
5.175648,-0.2259,-0.4695,0.1137,-0.8772,-0.0351,0.3286,
5.205164,-0.2259,-0.4695,0.1137,-0.9727,0.5640,0.0050,
5.239435,-0.2259,-0.4695,0.1137,-0.9727,0.5640,0.0050,
5.241513,-0.7157,0.6400,-0.0759,-0.9727,0.5640,0.0050,
5.272148,-0.7157,0.6400,-0.0759,-0.7851,0.2301,0.0192,
5.304780,-0.7157,0.6400,-0.0759,-0.7851,0.2301,0.0192,
5.306598,-1.1476,-0.9859,-0.1044,-0.7851,0.2301,0.0192,
5.336902,-1.1476,-0.9859,-0.1044,-0.6344,0.0738,0.0072,
5.369747,-1.1476,-0.9859,-0.1044,-0.6344,0.0738,0.0072,
5.371408,-0.1965,-1.2230,0.3835,-0.6344,0.0738,0.0072,
5.403380,-0.1965,-1.2230,0.3835,-0.3019,-0.0313,-0.0289,
5.436493,-0.1965,-1.2230,0.3835,-0.3019,-0.0313,-0.0289,
5.437476,0.2206,-1.3272,0.5810,-0.3019,-0.0313,-0.0289,
5.468760,0.2206,-1.3272,0.5810,-0.0206,0.0063,0.0254,
5.500676,0.2206,-1.3272,0.5810,-0.0206,0.0063,0.0254,
5.501979,0.6378,-0.7642,0.8296,-0.0206,0.0063,0.0254,
5.533331,0.6378,-0.7642,0.8296,0.0218,0.1807,0.1333,
5.566563,0.6378,-0.7642,0.8296,0.0218,0.1807,0.1333,
5.568642,1.0931,-0.5403,1.3780,0.0218,0.1807,0.1333,
5.599105,1.0931,-0.5403,1.3780,0.0667,0.3070,0.3684,
5.633119,1.0931,-0.5403,1.3780,0.0667,0.3070,0.3684,
5.634653,-0.3115,1.4303,1.1726,0.0667,0.3070,0.3684,
5.664720,-0.3115,1.4303,1.1726,0.2596,0.2912,0.1901,
5.698308,-0.3115,1.4303,1.1726,0.2596,0.2912,0.1901,
5.699998,-0.0818,1.5355,1.1618,0.2596,0.2912,0.1901,
5.730367,-0.0818,1.5355,1.1618,0.6031,0.0496,0.1245,
5.762595,-0.0818,1.5355,1.1618,0.6031,0.0496,0.1245,
5.763969,-1.0114,0.0081,-0.1340,0.6031,0.0496,0.1245,
5.795040,-1.0114,0.0081,-0.1340,0.9459,-0.0441,-0.1924,
5.827977,-1.0114,0.0081,-0.1340,0.9459,-0.0441,-0.1924,
5.829758,-0.8767,-0.8062,-1.7259,0.9459,-0.0441,-0.1924,
5.860904,-0.8767,-0.8062,-1.7259,0.6345,0.0852,-0.1738,
5.893744,-0.8767,-0.8062,-1.7259,0.6345,0.0852,-0.1738,
5.895563,-0.8324,-0.5317,-0.8754,0.6345,0.0852,-0.1738,
5.926625,-0.8324,-0.5317,-0.8754,0.5227,-0.0910,-0.0974,
5.959052,-0.8324,-0.5317,-0.8754,0.5227,-0.0910,-0.0974,
5.960570,-0.4764,-0.3537,-0.6009,0.5227,-0.0910,-0.0974,
5.991975,-0.4764,-0.3537,-0.6009,0.3685,-0.4850,0.0034,
6.026386,-0.4764,-0.3537,-0.6009,0.3685,-0.4850,0.0034,
6.028294,0.1913,-0.7252,-0.6434,0.3685,-0.4850,0.0034,
6.057870,0.1913,-0.7252,-0.6434,0.2274,-0.4833,-0.0577,
6.090594,0.1913,-0.7252,-0.6434,0.2274,-0.4833,-0.0577,
6.092193,0.0191,-0.6082,-0.4285,0.2274,-0.4833,-0.0577,
6.124003,0.0191,-0.6082,-0.4285,0.1272,-0.5837,-0.1516,
6.156166,0.0191,-0.6082,-0.4285,0.1272,-0.5837,-0.1516,
6.158142,0.0561,-0.4889,0.0584,0.1272,-0.5837,-0.1516,
6.188158,0.0561,-0.4889,0.0584,0.0101,-0.6619,-0.0663,
6.220942,0.0561,-0.4889,0.0584,0.0101,-0.6619,-0.0663,
6.222546,0.7699,-0.2871,0.1525,0.0101,-0.6619,-0.0663,
6.254117,0.7699,-0.2871,0.1525,-0.0389,-0.4569,-0.0852,
6.286287,0.7699,-0.2871,0.1525,-0.0389,-0.4569,-0.0852,
6.288067,1.4509,-0.2122,0.1443,-0.0389,-0.4569,-0.0852,
6.320157,1.4509,-0.2122,0.1443,0.0093,-0.1448,-0.2317,
6.351676,1.4509,-0.2122,0.1443,0.0093,-0.1448,-0.2317,
6.353873,1.0623,-0.3731,0.4070,0.0093,-0.1448,-0.2317,
6.384994,1.0623,-0.3731,0.4070,0.1097,-0.1697,-0.3519,
6.417730,1.0623,-0.3731,0.4070,0.1097,-0.1697,-0.3519,
6.419734,1.2480,-0.5237,0.4661,0.1097,-0.1697,-0.3519,
6.451450,1.2480,-0.5237,0.4661,0.2214,-0.3619,-0.3456,
6.482974,1.2480,-0.5237,0.4661,0.2214,-0.3619,-0.3456,
6.485028,0.8312,-0.9329,-1.2885,0.2214,-0.3619,-0.3456,
6.515487,0.8312,-0.9329,-1.2885,-0.3448,-0.0046,-0.0073,
6.549913,0.8312,-0.9329,-1.2885,-0.3448,-0.0046,-0.0073,
6.552127,-1.1492,4.1367,-1.1319,-0.3448,-0.0046,-0.0073,
6.581200,-1.1492,4.1367,-1.1319,-0.4956,0.5203,0.2187,
6.613845,-1.1492,4.1367,-1.1319,-0.4956,0.5203,0.2187,
6.615639,-0.6286,1.5289,-1.4509,-0.4956,0.5203,0.2187,
6.647004,-0.6286,1.5289,-1.4509,-1.0318,0.8670,0.3329,
6.679664,-0.6286,1.5289,-1.4509,-1.0318,0.8670,0.3329,
6.682730,-1.4958,-1.0773,0.1085,-1.0318,0.8670,0.3329,
6.711507,-1.4958,-1.0773,0.1085,-0.8419,0.7089,-0.2317,
6.744430,-1.4958,-1.0773,0.1085,-0.8419,0.7089,-0.2317,
6.746218,-2.4451,0.2219,0.3434,-0.8419,0.7089,-0.2317,
6.777971,-2.4451,0.2219,0.3434,-0.6188,-0.0440,0.0356,
6.811327,-2.4451,0.2219,0.3434,-0.6188,-0.0440,0.0356,
6.812519,-0.0484,-1.2917,-0.0487,-0.6188,-0.0440,0.0356,
6.842547,-0.0484,-1.2917,-0.0487,-0.4409,0.2695,0.0321,
6.876068,-0.0484,-1.2917,-0.0487,-0.4409,0.2695,0.0321,
6.877229,1.1495,-1.7809,0.0581,-0.4409,0.2695,0.0321,
6.908287,1.1495,-1.7809,0.0581,-0.1939,0.4638,0.1037,
6.942203,1.1495,-1.7809,0.0581,-0.1939,0.4638,0.1037,
6.943466,0.3871,-0.5117,0.8719,-0.1939,0.4638,0.1037,
6.973737,0.3871,-0.5117,0.8719,-0.0308,0.2938,0.3471,
7.007610,0.3871,-0.5117,0.8719,-0.0308,0.2938,0.3471,
7.009309,0.7540,-0.5927,0.5027,-0.0308,0.2938,0.3471,
7.040866,0.7540,-0.5927,0.5027,-0.0124,0.5463,0.4294,
7.073870,0.7540,-0.5927,0.5027,-0.0124,0.5463,0.4294,
7.076711,0.3976,0.9630,0.4374,-0.0124,0.5463,0.4294,
7.104790,0.3976,0.9630,0.4374,0.0541,0.7700,0.2876,
7.138496,0.3976,0.9630,0.4374,0.0541,0.7700,0.2876,
7.140027,-0.3021,-0.2225,0.2868,0.0541,0.7700,0.2876,
7.171202,-0.3021,-0.2225,0.2868,0.2834,0.7535,0.1573,
7.203786,-0.3021,-0.2225,0.2868,0.2834,0.7535,0.1573,
7.205401,-1.6022,1.4073,0.8867,0.2834,0.7535,0.1573,
7.235655,-1.6022,1.4073,0.8867,0.6118,-0.0852,0.0374,
7.268693,-1.6022,1.4073,0.8867,0.6118,-0.0852,0.0374,
7.270105,-1.4345,1.3145,0.6460,0.6118,-0.0852,0.0374,
7.300794,-1.4345,1.3145,0.6460,0.9406,-0.8462,0.0057,
7.334186,-1.4345,1.3145,0.6460,0.9406,-0.8462,0.0057,
7.335827,-0.5154,0.5634,-0.5073,0.9406,-0.8462,0.0057,
7.366990,-0.5154,0.5634,-0.5073,0.9412,-0.7199,-0.0232,
7.400224,-0.5154,0.5634,-0.5073,0.9412,-0.7199,-0.0232,
7.401670,-0.1079,-0.9602,-1.0209,0.9412,-0.7199,-0.0232,
7.436362,-0.1079,-0.9602,-1.0209,0.5443,-0.4187,-0.0887,
7.467066,-0.1079,-0.9602,-1.0209,0.5443,-0.4187,-0.0887,
7.469019,-0.6768,-1.2158,-0.1301,0.5443,-0.4187,-0.0887,
7.497900,-0.6768,-1.2158,-0.1301,0.3694,-0.6964,-0.1613,
7.531054,-0.6768,-1.2158,-0.1301,0.3694,-0.6964,-0.1613,
7.532572,0.2606,-1.0562,-0.7441,0.3694,-0.6964,-0.1613,
7.565021,0.2606,-1.0562,-0.7441,0.0593,-0.5234,-0.2222,
7.595384,0.2606,-1.0562,-0.7441,0.0593,-0.5234,-0.2222,
7.596454,0.8910,-0.5286,-0.6014,0.0593,-0.5234,-0.2222,
7.628838,0.8910,-0.5286,-0.6014,-0.0501,-0.2314,-0.4244,
7.661683,0.8910,-0.5286,-0.6014,-0.0501,-0.2314,-0.4244,
7.663140,1.1432,0.0318,-0.4073,-0.0501,-0.2314,-0.4244,
7.694057,1.1432,0.0318,-0.4073,-0.1237,-0.0136,-0.4082,
7.727352,1.1432,0.0318,-0.4073,-0.1237,-0.0136,-0.4082,
7.728820,0.5697,-1.1165,-0.1523,-0.1237,-0.0136,-0.4082,
7.759162,0.5697,-1.1165,-0.1523,-0.0527,-0.0658,-0.4664,
7.792882,0.5697,-1.1165,-0.1523,-0.0527,-0.0658,-0.4664,
7.794356,0.0760,-1.2270,-0.0453,-0.0527,-0.0658,-0.4664,
7.824535,0.0760,-1.2270,-0.0453,-0.2633,-0.6373,-0.3954,
7.859027,0.0760,-1.2270,-0.0453,-0.2633,-0.6373,-0.3954,
7.860669,-0.8605,1.2462,-2.0811,-0.2633,-0.6373,-0.3954,
7.891745,-0.8605,1.2462,-2.0811,-0.6313,-0.3141,0.0057,
7.924247,-0.8605,1.2462,-2.0811,-0.6313,-0.3141,0.0057,
7.925782,-1.9352,2.0966,-0.6823,-0.6313,-0.3141,0.0057,
7.956048,-1.9352,2.0966,-0.6823,-0.4751,0.0061,0.0589,
7.988341,-1.9352,2.0966,-0.6823,-0.4751,0.0061,0.0589,
7.989841,-0.5793,2.6957,0.8238,-0.4751,0.0061,0.0589,
8.021229,-0.5793,2.6957,0.8238,-0.8282,-0.2414,0.0878,
8.055302,-0.5793,2.6957,0.8238,-0.8282,-0.2414,0.0878,
8.056821,-0.4617,-1.2368,0.0903,-0.8282,-0.2414,0.0878,
8.086700,-0.4617,-1.2368,0.0903,-0.6962,-0.1489,-0.1038,
8.121242,-0.4617,-1.2368,0.0903,-0.6962,-0.1489,-0.1038,
8.123890,-0.1862,-0.8861,0.2812,-0.6962,-0.1489,-0.1038,
8.152476,-0.1862,-0.8861,0.2812,-0.2940,-0.2147,-0.1862,
8.187268,-0.1862,-0.8861,0.2812,-0.2940,-0.2147,-0.1862,
8.189449,-0.3225,-0.8807,-0.0019,-0.2940,-0.2147,-0.1862,
8.218091,-0.3225,-0.8807,-0.0019,-0.1746,-0.3645,-0.1376,
8.251575,-0.3225,-0.8807,-0.0019,-0.1746,-0.3645,-0.1376,
8.253294,-0.4586,-1.3167,0.4211,-0.1746,-0.3645,-0.1376,
8.284188,-0.4586,-1.3167,0.4211,0.0412,-0.5759,-0.0185,
8.316216,-0.4586,-1.3167,0.4211,0.0412,-0.5759,-0.0185,
8.318207,0.1915,-1.1459,0.4104,0.0412,-0.5759,-0.0185,
8.348259,0.1915,-1.1459,0.4104,0.2077,-0.5608,0.1776,
8.382028,0.1915,-1.1459,0.4104,0.2077,-0.5608,0.1776,
8.383890,0.7479,-0.7882,0.8474,0.2077,-0.5608,0.1776,
8.414516,0.7479,-0.7882,0.8474,0.3256,-0.3149,0.2608,
8.448466,0.7479,-0.7882,0.8474,0.3256,-0.3149,0.2608,
8.449994,0.4968,-0.2740,0.5856,0.3256,-0.3149,0.2608,
8.480281,0.4968,-0.2740,0.5856,0.1781,-0.1133,0.3642,
8.513718,0.4968,-0.2740,0.5856,0.1781,-0.1133,0.3642,
8.515430,-1.0006,0.9854,1.1525,0.1781,-0.1133,0.3642,
8.546119,-1.0006,0.9854,1.1525,0.0451,-0.3415,0.2390,
8.579491,-1.0006,0.9854,1.1525,0.0451,-0.3415,0.2390,
8.581110,-0.6334,0.6966,1.1373,0.0451,-0.3415,0.2390,
8.610645,-0.6334,0.6966,1.1373,0.4563,-0.6521,0.2854,
8.643751,-0.6334,0.6966,1.1373,0.4563,-0.6521,0.2854,
8.645245,-1.4345,1.3542,0.3803,0.4563,-0.6521,0.2854,
8.676364,-1.4345,1.3542,0.3803,0.7450,-0.9470,0.0431,
8.708918,-1.4345,1.3542,0.3803,0.7450,-0.9470,0.0431,
8.710244,-1.5377,-0.4471,-0.4035,0.7450,-0.9470,0.0431,
8.743513,-1.5377,-0.4471,-0.4035,0.6452,-1.1613,-0.0194,
8.775556,-1.5377,-0.4471,-0.4035,0.6452,-1.1613,-0.0194,
8.777185,-0.6366,-0.7328,-1.0721,0.6452,-1.1613,-0.0194,
8.807741,-0.6366,-0.7328,-1.0721,0.3571,-1.0127,-0.0412,
8.840773,-0.6366,-0.7328,-1.0721,0.3571,-1.0127,-0.0412,
8.842475,-0.0822,0.1850,-0.2209,0.3571,-1.0127,-0.0412,
8.872821,-0.0822,0.1850,-0.2209,0.3030,-1.2014,-0.0793,
8.906545,-0.0822,0.1850,-0.2209,0.3030,-1.2014,-0.0793,
8.908659,0.2799,-0.4099,-0.2018,0.3030,-1.2014,-0.0793,
8.938710,0.2799,-0.4099,-0.2018,0.2535,-0.9334,-0.1197,
8.972336,0.2799,-0.4099,-0.2018,0.2535,-0.9334,-0.1197,
8.973872,0.8452,-0.2788,-0.2871,0.2535,-0.9334,-0.1197,
9.003924,0.8452,-0.2788,-0.2871,0.1678,-0.5537,-0.2253,
9.037075,0.8452,-0.2788,-0.2871,0.1678,-0.5537,-0.2253,
9.038516,0.4848,-0.5005,0.2210,0.1678,-0.5537,-0.2253,
9.069679,0.4848,-0.5005,0.2210,0.0373,-0.3621,-0.2601,
9.102949,0.4848,-0.5005,0.2210,0.0373,-0.3621,-0.2601,
9.104518,0.9518,-0.5472,0.3231,0.0373,-0.3621,-0.2601,
9.135629,0.9518,-0.5472,0.3231,-0.0053,-0.1315,-0.2373,
9.168219,0.9518,-0.5472,0.3231,-0.0053,-0.1315,-0.2373,
9.169816,0.9497,-0.3631,-0.0132,-0.0053,-0.1315,-0.2373,
9.199090,0.9497,-0.3631,-0.0132,-0.0191,0.1141,-0.3375,
9.232348,0.9497,-0.3631,-0.0132,-0.0191,0.1141,-0.3375,
9.233402,0.1160,-1.1863,0.2667,-0.0191,0.1141,-0.3375,
9.266294,0.1160,-1.1863,0.2667,-0.1045,-0.2471,-0.4163,
9.299004,0.1160,-1.1863,0.2667,-0.1045,-0.2471,-0.4163,
9.300559,-0.6676,0.5796,-0.5443,-0.1045,-0.2471,-0.4163,
9.331050,-0.6676,0.5796,-0.5443,-0.3795,-0.4533,-0.2111,
9.364019,-0.6676,0.5796,-0.5443,-0.3795,-0.4533,-0.2111,
9.365953,-2.1538,2.5427,-1.2355,-0.3795,-0.4533,-0.2111,
9.398335,-2.1538,2.5427,-1.2355,0.0641,-0.6666,-0.3045,
9.429431,-2.1538,2.5427,-1.2355,0.0641,-0.6666,-0.3045,
9.431590,-1.7766,1.5125,-0.2048,0.0641,-0.6666,-0.3045,
9.461843,-1.7766,1.5125,-0.2048,-0.6109,-1.3127,-0.1400,
9.495462,-1.7766,1.5125,-0.2048,-0.6109,-1.3127,-0.1400,
9.497311,0.1813,-1.3320,0.0339,-0.6109,-1.3127,-0.1400,
9.527204,0.1813,-1.3320,0.0339,-0.6119,-0.8896,-0.3541,
9.560731,0.1813,-1.3320,0.0339,-0.6119,-0.8896,-0.3541,
9.562172,0.3078,0.2375,0.1012,-0.6119,-0.8896,-0.3541,
9.592478,0.3078,0.2375,0.1012,-0.3807,-0.8225,-0.2080,
9.626877,0.3078,0.2375,0.1012,-0.3807,-0.8225,-0.2080,
9.628794,-0.2272,-0.6499,0.4144,-0.3807,-0.8225,-0.2080,
9.658250,-0.2272,-0.6499,0.4144,-0.3830,-0.8376,-0.1600,
9.691195,-0.2272,-0.6499,0.4144,-0.3830,-0.8376,-0.1600,
9.692991,-0.0125,-0.9560,0.5123,-0.3830,-0.8376,-0.1600,
9.726425,-0.0125,-0.9560,0.5123,-0.2181,-0.7931,-0.1307,
9.757940,-0.0125,-0.9560,0.5123,-0.2181,-0.7931,-0.1307,
9.759473,0.1743,-0.9076,0.8564,-0.2181,-0.7931,-0.1307,
9.790943,0.1743,-0.9076,0.8564,-0.0666,-0.8077,-0.0257,
9.823131,0.1743,-0.9076,0.8564,-0.0666,-0.8077,-0.0257,
9.824354,1.0078,-1.1985,0.8242,-0.0666,-0.8077,-0.0257,
9.855001,1.0078,-1.1985,0.8242,0.1251,-0.4618,0.0640,
9.888026,1.0078,-1.1985,0.8242,0.1251,-0.4618,0.0640,
9.889168,1.3386,-1.0389,1.2307,0.1251,-0.4618,0.0640,
9.919685,1.3386,-1.0389,1.2307,0.1668,-0.1284,0.1907,
9.954040,1.3386,-1.0389,1.2307,0.1668,-0.1284,0.1907,
9.955820,0.1595,0.3733,1.2491,0.1668,-0.1284,0.1907,
9.986336,0.1595,0.3733,1.2491,-0.0325,-0.1556,0.2253,
10.019492,0.1595,0.3733,1.2491,-0.0325,-0.1556,0.2253,
10.020728,-0.7695,0.2347,1.1286,-0.0325,-0.1556,0.2253,
10.052032,-0.7695,0.2347,1.1286,0.1981,-0.3074,0.1425,
10.084002,-0.7695,0.2347,1.1286,0.1981,-0.3074,0.1425,
10.085184,-1.0697,1.4336,1.1903,0.1981,-0.3074,0.1425,
10.116509,-1.0697,1.4336,1.1903,0.6652,-0.8253,0.0464,
10.150730,-1.0697,1.4336,1.1903,0.6652,-0.8253,0.0464,
10.152506,-0.7005,1.3086,0.2055,0.6652,-0.8253,0.0464,
10.181877,-0.7005,1.3086,0.2055,0.8216,-0.9290,-0.0745,
10.218900,-0.7005,1.3086,0.2055,0.8216,-0.9290,-0.0745,
10.220556,-0.1981,-0.4604,-0.8106,0.8216,-0.9290,-0.0745,
10.248367,-0.1981,-0.4604,-0.8106,0.7075,-0.5542,-0.1871,
10.281700,-0.1981,-0.4604,-0.8106,0.7075,-0.5542,-0.1871,
10.283549,-0.1664,-0.8945,-0.8803,0.7075,-0.5542,-0.1871,
10.313970,-0.1664,-0.8945,-0.8803,0.4218,-0.3923,-0.1694,
10.346711,-0.1664,-0.8945,-0.8803,0.4218,-0.3923,-0.1694,
10.348722,-0.3049,-0.5203,-0.1513,0.4218,-0.3923,-0.1694,
10.379461,-0.3049,-0.5203,-0.1513,0.3491,-0.7091,-0.1214,
10.411879,-0.3049,-0.5203,-0.1513,0.3491,-0.7091,-0.1214,
10.413670,0.8679,-0.9564,-0.5971,0.3491,-0.7091,-0.1214,
10.444086,0.8679,-0.9564,-0.5971,0.2146,-0.4253,-0.1999,
10.477221,0.8679,-0.9564,-0.5971,0.2146,-0.4253,-0.1999,
10.479144,1.2583,-0.5906,-0.2771,0.2146,-0.4253,-0.1999,
10.510710,1.2583,-0.5906,-0.2771,-0.0086,-0.1206,-0.4635,
10.543600,1.2583,-0.5906,-0.2771,-0.0086,-0.1206,-0.4635,
10.545200,1.0792,-0.9184,0.4425,-0.0086,-0.1206,-0.4635,
10.575447,1.0792,-0.9184,0.4425,-0.0377,-0.1955,-0.4504,
10.608792,1.0792,-0.9184,0.4425,-0.0377,-0.1955,-0.4504,
10.610435,1.3666,-1.6044,0.3978,-0.0377,-0.1955,-0.4504,
10.640958,1.3666,-1.6044,0.3978,-0.1668,-0.0780,-0.4006,
10.673794,1.3666,-1.6044,0.3978,-0.1668,-0.0780,-0.4006,
10.676003,-2.5448,1.6898,-1.7846,-0.1668,-0.0780,-0.4006,
10.706723,-2.5448,1.6898,-1.7846,-0.4006,0.0637,0.0886,
10.739448,-2.5448,1.6898,-1.7846,-0.4006,0.0637,0.0886,
10.741116,-0.9130,4.6321,-0.4049,-0.4006,0.0637,0.0886,
10.771402,-0.9130,4.6321,-0.4049,-0.6086,-0.3554,0.2191,
10.805006,-0.9130,4.6321,-0.4049,-0.6086,-0.3554,0.2191,
10.805858,-0.2084,-0.1104,-0.5921,-0.6086,-0.3554,0.2191,
10.837120,-0.2084,-0.1104,-0.5921,-1.0151,0.2227,0.2674,
10.869678,-0.2084,-0.1104,-0.5921,-1.0151,0.2227,0.2674,
10.870998,-0.0773,-1.6347,0.2219,-1.0151,0.2227,0.2674,
10.903473,-0.0773,-1.6347,0.2219,-0.7714,0.3497,0.0255,
10.935379,-0.0773,-1.6347,0.2219,-0.7714,0.3497,0.0255,
10.937435,-0.9986,0.3471,-0.2093,-0.7714,0.3497,0.0255,
10.968142,-0.9986,0.3471,-0.2093,-0.5353,-0.0318,0.1694,
11.001156,-0.9986,0.3471,-0.2093,-0.5353,-0.0318,0.1694,
11.002673,-0.0999,-0.9641,-0.1173,-0.5353,-0.0318,0.1694,
11.032953,-0.0999,-0.9641,-0.1173,-0.4171,0.0015,0.0980,
11.065623,-0.0999,-0.9641,-0.1173,-0.4171,0.0015,0.0980,
11.067273,0.2803,-1.4637,0.5024,-0.4171,0.0015,0.0980,
11.098825,0.2803,-1.4637,0.5024,-0.0925,0.0338,0.1013,
11.132327,0.2803,-1.4637,0.5024,-0.0925,0.0338,0.1013,
11.134018,0.8782,-1.3432,0.7676,-0.0925,0.0338,0.1013,
11.164690,0.8782,-1.3432,0.7676,0.1371,0.1364,0.2405,
11.198083,0.8782,-1.3432,0.7676,0.1371,0.1364,0.2405,
11.200012,1.3027,-0.7814,0.9501,0.1371,0.1364,0.2405,
11.229887,1.3027,-0.7814,0.9501,0.1917,0.4064,0.3586,
11.263356,1.3027,-0.7814,0.9501,0.1917,0.4064,0.3586,
11.264890,-0.2048,0.9118,1.2520,0.1917,0.4064,0.3586,
11.295205,-0.2048,0.9118,1.2520,0.1436,0.3192,0.3517,
11.329027,-0.2048,0.9118,1.2520,0.1436,0.3192,0.3517,
11.331507,-0.3420,0.8732,1.0484,0.1436,0.3192,0.3517,
11.360786,-0.3420,0.8732,1.0484,0.4126,0.0406,0.1953,
11.392801,-0.3420,0.8732,1.0484,0.4126,0.0406,0.1953,
11.394474,-1.3315,1.2998,0.6613,0.4126,0.0406,0.1953,
11.427092,-1.3315,1.2998,0.6613,0.8809,-0.5993,-0.1038,
11.458669,-1.3315,1.2998,0.6613,0.8809,-0.5993,-0.1038,
11.460461,-0.9080,0.5215,-0.5164,0.8809,-0.5993,-0.1038,
11.491818,-0.9080,0.5215,-0.5164,0.8380,-0.7063,-0.0982,
11.524494,-0.9080,0.5215,-0.5164,0.8380,-0.7063,-0.0982,
11.526069,0.3901,-0.9149,-1.6108,0.8380,-0.7063,-0.0982,
11.556843,0.3901,-0.9149,-1.6108,0.5258,-0.1779,-0.1031,
11.589326,0.3901,-0.9149,-1.6108,0.5258,-0.1779,-0.1031,
11.590454,-0.1329,-0.4866,-0.2816,0.5258,-0.1779,-0.1031,
11.622085,-0.1329,-0.4866,-0.2816,0.4600,-0.3658,-0.1616,
11.655587,-0.1329,-0.4866,-0.2816,0.4600,-0.3658,-0.1616,
11.657262,0.1372,-0.6955,-0.4905,0.4600,-0.3658,-0.1616,
11.688383,0.1372,-0.6955,-0.4905,0.3511,-0.3781,-0.1087,
11.720653,0.1372,-0.6955,-0.4905,0.3511,-0.3781,-0.1087,
11.722549,1.3581,-0.7288,-0.5232,0.3511,-0.3781,-0.1087,
11.752972,1.3581,-0.7288,-0.5232,0.1950,0.0724,-0.3070,
11.788730,1.3581,-0.7288,-0.5232,0.1950,0.0724,-0.3070,
11.790289,0.9090,-0.7175,0.0751,0.1950,0.0724,-0.3070,
11.818902,0.9090,-0.7175,0.0751,0.1313,0.1549,-0.4733,
11.851581,0.9090,-0.7175,0.0751,0.1313,0.1549,-0.4733,
11.853031,0.8690,-0.9522,0.4588,0.1313,0.1549,-0.4733,
11.884644,0.8690,-0.9522,0.4588,0.0573,0.1052,-0.4038,
11.916966,0.8690,-0.9522,0.4588,0.0573,0.1052,-0.4038,
11.918436,0.8341,-2.6184,-0.1509,0.0573,0.1052,-0.4038,
11.950288,0.8341,-2.6184,-0.1509,-0.1370,0.2060,-0.3709,
11.982519,0.8341,-2.6184,-0.1509,-0.1370,0.2060,-0.3709,
11.984494,-2.0599,0.2666,-2.8326,-0.1370,0.2060,-0.3709,
12.014986,-2.0599,0.2666,-2.8326,-0.7650,0.5731,0.2121,
12.050208,-2.0599,0.2666,-2.8326,-0.7650,0.5731,0.2121,
12.052018,-1.3680,7.0265,-0.1752,-0.7650,0.5731,0.2121,
12.081864,-1.3680,7.0265,-0.1752,-0.2285,-0.1318,0.2001,
12.115274,-1.3680,7.0265,-0.1752,-0.2285,-0.1318,0.2001,
12.116364,0.0636,0.7420,-0.1339,-0.2285,-0.1318,0.2001,
12.146490,0.0636,0.7420,-0.1339,-0.6585,0.5337,0.1252,
12.180529,0.0636,0.7420,-0.1339,-0.6585,0.5337,0.1252,
12.181705,0.5629,-2.4754,-0.3125,-0.6585,0.5337,0.1252,
12.211583,0.5629,-2.4754,-0.3125,-0.8520,0.7726,-0.1426,
12.245862,0.5629,-2.4754,-0.3125,-0.8520,0.7726,-0.1426,
12.246975,-2.4805,0.2324,0.0213,-0.8520,0.7726,-0.1426,
12.277100,-2.4805,0.2324,0.0213,-0.4946,-0.2621,0.1998,
12.311970,-2.4805,0.2324,0.0213,-0.4946,-0.2621,0.1998,
12.313511,-0.9843,-0.5512,-0.0164,-0.4946,-0.2621,0.1998,
12.342969,-0.9843,-0.5512,-0.0164,-0.6406,-0.4453,0.2074,
12.375876,-0.9843,-0.5512,-0.0164,-0.6406,-0.4453,0.2074,
12.376912,0.6170,-0.9372,-0.2003,-0.6406,-0.4453,0.2074,
12.407654,0.6170,-0.9372,-0.2003,-0.2761,-0.1310,0.1002,
12.441352,0.6170,-0.9372,-0.2003,-0.2761,-0.1310,0.1002,
12.443150,0.4453,-1.1638,0.4055,-0.2761,-0.1310,0.1002,
12.473612,0.4453,-1.1638,0.4055,-0.0244,0.0612,0.1251,
12.507687,0.4453,-1.1638,0.4055,-0.0244,0.0612,0.1251,
12.508757,0.5812,-0.8997,0.5213,-0.0244,0.0612,0.1251,
12.539544,0.5812,-0.8997,0.5213,0.1098,0.2906,0.2207,
12.573865,0.5812,-0.8997,0.5213,0.1098,0.2906,0.2207,
12.575077,0.4262,-0.3453,0.8741,0.1098,0.2906,0.2207,
12.605613,0.4262,-0.3453,0.8741,0.1242,0.3096,0.2650,
12.637720,0.4262,-0.3453,0.8741,0.1242,0.3096,0.2650,
12.639069,0.0654,0.5936,0.9002,0.1242,0.3096,0.2650,
12.670354,0.0654,0.5936,0.9002,0.0489,0.1057,0.3882,
12.703377,0.0654,0.5936,0.9002,0.0489,0.1057,0.3882,
12.705231,-0.2494,0.6005,0.8786,0.0489,0.1057,0.3882,
12.736512,-0.2494,0.6005,0.8786,0.2436,0.1294,0.1240,
12.768798,-0.2494,0.6005,0.8786,0.2436,0.1294,0.1240,
12.770352,-0.8100,1.3333,0.8735,0.2436,0.1294,0.1240,
12.802057,-0.8100,1.3333,0.8735,0.6423,-0.4192,-0.0038,
12.834160,-0.8100,1.3333,0.8735,0.6423,-0.4192,-0.0038,
12.836326,-1.0024,0.6255,-0.0110,0.6423,-0.4192,-0.0038,
12.867078,-1.0024,0.6255,-0.0110,0.8412,-0.6174,-0.1400,
12.900131,-1.0024,0.6255,-0.0110,0.8412,-0.6174,-0.1400,
12.902208,-0.3188,-1.0962,-1.4157,0.8412,-0.6174,-0.1400,
12.932100,-0.3188,-1.0962,-1.4157,0.5913,-0.2405,-0.1339,
12.965194,-0.3188,-1.0962,-1.4157,0.5913,-0.2405,-0.1339,
12.967109,-0.2089,-0.7245,-1.2682,0.5913,-0.2405,-0.1339,
12.997968,-0.2089,-0.7245,-1.2682,0.3071,0.0435,-0.1098,
13.031031,-0.2089,-0.7245,-1.2682,0.3071,0.0435,-0.1098,
13.032466,-0.1229,-0.0130,-0.3765,0.3071,0.0435,-0.1098,
13.064182,-0.1229,-0.0130,-0.3765,0.2837,-0.2028,-0.0950,
13.097821,-0.1229,-0.0130,-0.3765,0.2837,-0.2028,-0.0950,
13.099723,0.6418,-0.2404,-0.6580,0.2837,-0.2028,-0.0950,
13.129952,0.6418,-0.2404,-0.6580,0.1978,-0.0057,-0.1393,
13.161705,0.6418,-0.2404,-0.6580,0.1978,-0.0057,-0.1393,
13.163521,0.6954,-0.3855,-0.4162,0.1978,-0.0057,-0.1393,
13.195172,0.6954,-0.3855,-0.4162,0.1217,0.0770,-0.2176,
13.227914,0.6954,-0.3855,-0.4162,0.1217,0.0770,-0.2176,
13.230103,0.8840,-0.3507,-0.0833,0.1217,0.0770,-0.2176,
13.259167,0.8840,-0.3507,-0.0833,-0.0218,0.1440,-0.1802,
13.293327,0.8840,-0.3507,-0.0833,-0.0218,0.1440,-0.1802,
13.295222,1.0325,-0.7205,-0.3329,-0.0218,0.1440,-0.1802,
13.325237,1.0325,-0.7205,-0.3329,-0.1191,0.4103,-0.3002,
13.358383,1.0325,-0.7205,-0.3329,-0.1191,0.4103,-0.3002,
13.360293,0.3988,-1.3856,0.2958,-0.1191,0.4103,-0.3002,
13.391119,0.3988,-1.3856,0.2958,-0.1904,0.1746,-0.4369,
13.424715,0.3988,-1.3856,0.2958,-0.1904,0.1746,-0.4369,
13.426205,-0.3308,-1.2485,-0.3598,-0.1904,0.1746,-0.4369,
13.456908,-0.3308,-1.2485,-0.3598,-0.4858,-0.0350,-0.0200,
13.488512,-0.3308,-1.2485,-0.3598,-0.4858,-0.0350,-0.0200,
13.490485,-1.6122,3.8892,0.0798,-0.4858,-0.0350,-0.0200,
13.520846,-1.6122,3.8892,0.0798,-0.1132,-0.0338,-0.1691,
13.554638,-1.6122,3.8892,0.0798,-0.1132,-0.0338,-0.1691,
13.556531,-1.0918,3.1224,0.0796,-0.1132,-0.0338,-0.1691,
13.586077,-1.0918,3.1224,0.0796,-0.5638,-0.5450,0.1883,
13.619503,-1.0918,3.1224,0.0796,-0.5638,-0.5450,0.1883,
13.620987,0.5774,-1.0797,0.1631,-0.5638,-0.5450,0.1883,
13.652402,0.5774,-1.0797,0.1631,-0.7453,-0.0183,-0.0496,
13.685958,0.5774,-1.0797,0.1631,-0.7453,-0.0183,-0.0496,
13.687888,-0.0975,0.0471,0.1558,-0.7453,-0.0183,-0.0496,
13.718914,-0.0975,0.0471,0.1558,-0.4010,-0.0812,0.0334,
13.749955,-0.0975,0.0471,0.1558,-0.4010,-0.0812,0.0334,
13.751754,-0.4534,-0.6199,-0.0194,-0.4010,-0.0812,0.0334,
13.783471,-0.4534,-0.6199,-0.0194,-0.4895,-0.1251,0.1909,
13.816384,-0.4534,-0.6199,-0.0194,-0.4895,-0.1251,0.1909,
13.818082,0.3354,-1.1880,0.1634,-0.4895,-0.1251,0.1909,
13.848540,0.3354,-1.1880,0.1634,-0.2973,0.1422,0.0910,
13.881870,0.3354,-1.1880,0.1634,-0.2973,0.1422,0.0910,
13.883836,0.3731,-1.1979,0.4306,-0.2973,0.1422,0.0910,
13.914469,0.3731,-1.1979,0.4306,-0.1095,0.1973,0.2020,
13.948557,0.3731,-1.1979,0.4306,-0.1095,0.1973,0.2020,
13.950433,0.6878,-0.8623,1.0225,-0.1095,0.1973,0.2020,
13.981330,0.6878,-0.8623,1.0225,0.0437,0.2877,0.3271,
14.013831,0.6878,-0.8623,1.0225,0.0437,0.2877,0.3271,
14.015711,1.0229,-1.1430,1.1220,0.0437,0.2877,0.3271,
14.045338,1.0229,-1.1430,1.1220,0.1723,0.4084,0.4994,
14.080040,1.0229,-1.1430,1.1220,0.1723,0.4084,0.4994,
14.082441,-0.7566,1.6352,0.7000,0.1723,0.4084,0.4994,
14.110721,-0.7566,1.6352,0.7000,0.4087,0.0892,0.2995,
14.144702,-0.7566,1.6352,0.7000,0.4087,0.0892,0.2995,
14.145917,-1.2446,1.4757,0.5495,0.4087,0.0892,0.2995,
14.177429,-1.2446,1.4757,0.5495,0.6975,-0.1628,0.1990,
14.209862,-1.2446,1.4757,0.5495,0.6975,-0.1628,0.1990,
14.211398,-0.9754,0.9141,-0.4795,0.6975,-0.1628,0.1990,
14.243823,-0.9754,0.9141,-0.4795,0.9172,-0.1651,0.0307,
14.277766,-0.9754,0.9141,-0.4795,0.9172,-0.1651,0.0307,
14.279451,-0.0311,-0.1835,-1.5170,0.9172,-0.1651,0.0307,
14.307358,-0.0311,-0.1835,-1.5170,0.5363,0.0716,0.0108,
14.340097,-0.0311,-0.1835,-1.5170,0.5363,0.0716,0.0108,
14.341391,-0.8063,-1.0782,-0.4328,0.5363,0.0716,0.0108,
14.372039,-0.8063,-1.0782,-0.4328,0.4664,-0.1646,-0.0576,
14.405698,-0.8063,-1.0782,-0.4328,0.4664,-0.1646,-0.0576,
14.407270,-0.2605,-0.6049,-0.6810,0.4664,-0.1646,-0.0576,
14.437469,-0.2605,-0.6049,-0.6810,0.2592,-0.3480,-0.0000,
14.470290,-0.2605,-0.6049,-0.6810,0.2592,-0.3480,-0.0000,
14.471886,0.5279,-0.5497,-0.6026,0.2592,-0.3480,-0.0000,
14.503599,0.5279,-0.5497,-0.6026,0.1388,-0.1194,-0.0922,
14.535912,0.5279,-0.5497,-0.6026,0.1388,-0.1194,-0.0922,
14.537865,0.5983,-0.2320,-0.1676,0.1388,-0.1194,-0.0922,
14.569102,0.5983,-0.2320,-0.1676,-0.0031,-0.0214,-0.1420,
14.602687,0.5983,-0.2320,-0.1676,-0.0031,-0.0214,-0.1420,
14.604921,0.6348,-0.2318,0.2023,-0.0031,-0.0214,-0.1420,
14.635174,0.6348,-0.2318,0.2023,-0.0473,-0.0751,-0.1239,
14.667314,0.6348,-0.2318,0.2023,-0.0473,-0.0751,-0.1239,
14.668501,0.9381,-0.5127,0.0116,-0.0473,-0.0751,-0.1239,
14.699734,0.9381,-0.5127,0.0116,-0.0640,-0.0078,-0.1872,
14.732366,0.9381,-0.5127,0.0116,-0.0640,-0.0078,-0.1872,
14.733486,0.9884,-0.6034,0.1407,-0.0640,-0.0078,-0.1872,
14.765414,0.9884,-0.6034,0.1407,-0.0385,-0.0255,-0.3337,
14.799026,0.9884,-0.6034,0.1407,-0.0385,-0.0255,-0.3337,
14.800111,0.7396,-1.6162,-0.0705,-0.0385,-0.0255,-0.3337,
14.831139,0.7396,-1.6162,-0.0705,-0.0122,-0.2381,-0.3514,
14.863537,0.7396,-1.6162,-0.0705,-0.0122,-0.2381,-0.3514,
14.865161,-1.2196,0.2981,-2.1348,-0.0122,-0.2381,-0.3514,
14.897347,-1.2196,0.2981,-2.1348,-0.4635,0.2104,0.2408,
14.931818,-1.2196,0.2981,-2.1348,-0.4635,0.2104,0.2408,
14.933531,-1.2255,4.8082,-0.5142,-0.4635,0.2104,0.2408,
14.963670,-1.2255,4.8082,-0.5142,-0.4230,-0.4247,0.1327,
14.996895,-1.2255,4.8082,-0.5142,-0.4230,-0.4247,0.1327,
14.998585,-0.2089,0.2503,0.0845,-0.4230,-0.4247,0.1327,
15.028217,-0.2089,0.2503,0.0845,-0.8755,0.1281,0.1704,
15.062724,-0.2089,0.2503,0.0845,-0.8755,0.1281,0.1704,
15.064777,0.8005,-0.3938,0.5865,-0.8755,0.1281,0.1704,
15.093536,0.8005,-0.3938,0.5865,-0.7074,0.6993,0.0232,
15.127253,0.8005,-0.3938,0.5865,-0.7074,0.6993,0.0232,
15.129054,-0.6004,0.1975,-0.1338,-0.7074,0.6993,0.0232,
15.158002,-0.6004,0.1975,-0.1338,-0.4468,0.4157,0.1684,
15.191471,-0.6004,0.1975,-0.1338,-0.4468,0.4157,0.1684,
15.192966,-0.7015,-0.1383,0.1647,-0.4468,0.4157,0.1684,
15.223738,-0.7015,-0.1383,0.1647,-0.4937,0.2167,0.2676,
15.256907,-0.7015,-0.1383,0.1647,-0.4937,0.2167,0.2676,
15.258442,0.4277,-0.7531,-0.1642,-0.4937,0.2167,0.2676,
15.291248,0.4277,-0.7531,-0.1642,-0.2615,0.3763,0.2899,
15.323104,0.4277,-0.7531,-0.1642,-0.2615,0.3763,0.2899,
15.325486,0.1811,-1.5480,0.2268,-0.2615,0.3763,0.2899,
15.354641,0.1811,-1.5480,0.2268,-0.1411,0.4232,0.1373,
15.388061,0.1811,-1.5480,0.2268,-0.1411,0.4232,0.1373,
15.389262,0.5888,-0.8749,0.6721,-0.1411,0.4232,0.1373,
15.419485,0.5888,-0.8749,0.6721,0.1466,0.4209,0.2297,
15.452994,0.5888,-0.8749,0.6721,0.1466,0.4209,0.2297,
15.454580,0.3496,-1.0484,0.8479,0.1466,0.4209,0.2297,
15.485294,0.3496,-1.0484,0.8479,0.0936,0.3575,0.3288,
15.519839,0.3496,-1.0484,0.8479,0.0936,0.3575,0.3288,
15.521566,0.0596,0.0893,0.7467,0.0936,0.3575,0.3288,
15.552282,0.0596,0.0893,0.7467,-0.1040,0.3352,0.4296,
15.584592,0.0596,0.0893,0.7467,-0.1040,0.3352,0.4296,
15.586562,0.3971,0.6838,0.9125,-0.1040,0.3352,0.4296,
15.618028,0.3971,0.6838,0.9125,0.1365,0.3881,0.1794,
15.651055,0.3971,0.6838,0.9125,0.1365,0.3881,0.1794,
15.652846,-1.3436,1.0839,1.1971,0.1365,0.3881,0.1794,
15.683249,-1.3436,1.0839,1.1971,0.5831,-0.2821,-0.0218,
15.716067,-1.3436,1.0839,1.1971,0.5831,-0.2821,-0.0218,
15.717696,-1.3541,1.9823,-0.1709,0.5831,-0.2821,-0.0218,
15.749948,-1.3541,1.9823,-0.1709,0.8178,-0.4545,0.1410,
15.781008,-1.3541,1.9823,-0.1709,0.8178,-0.4545,0.1410,
15.782594,-0.1973,-0.4808,-1.5221,0.8178,-0.4545,0.1410,
15.814179,-0.1973,-0.4808,-1.5221,0.6909,-0.1527,0.0345,
15.848258,-0.1973,-0.4808,-1.5221,0.6909,-0.1527,0.0345,
15.850702,-0.0841,-1.3435,-1.1492,0.6909,-0.1527,0.0345,
15.880099,-0.0841,-1.3435,-1.1492,0.5192,-0.1524,-0.2355,
15.913210,-0.0841,-1.3435,-1.1492,0.5192,-0.1524,-0.2355,
15.915096,-0.6183,0.1026,-0.5835,0.5192,-0.1524,-0.2355,
15.945064,-0.6183,0.1026,-0.5835,0.3401,-0.4033,0.0021,
15.979129,-0.6183,0.1026,-0.5835,0.3401,-0.4033,0.0021,
15.980724,0.3976,-0.7722,-0.6655,0.3401,-0.4033,0.0021,
16.010103,0.3976,-0.7722,-0.6655,0.1729,-0.2543,-0.0611,
16.043021,0.3976,-0.7722,-0.6655,0.1729,-0.2543,-0.0611,
16.044894,0.9008,-0.1680,-0.1667,0.1729,-0.2543,-0.0611,
16.075288,0.9008,-0.1680,-0.1667,0.0217,-0.1112,-0.1891,
16.108369,0.9008,-0.1680,-0.1667,0.0217,-0.1112,-0.1891,
16.109918,0.4948,-0.1846,-0.2133,0.0217,-0.1112,-0.1891,
16.140954,0.4948,-0.1846,-0.2133,-0.0409,0.0321,-0.0628,
16.173613,0.4948,-0.1846,-0.2133,-0.0409,0.0321,-0.0628,
16.175120,0.9747,-0.9833,0.0118,-0.0409,0.0321,-0.0628,
16.207169,0.9747,-0.9833,0.0118,0.0576,-0.0388,-0.2653,
16.239514,0.9747,-0.9833,0.0118,0.0576,-0.0388,-0.2653,
16.240983,0.9568,0.1260,-0.1918,0.0576,-0.0388,-0.2653,
16.272161,0.9568,0.1260,-0.1918,-0.0857,-0.1607,-0.0725,
16.304679,0.9568,0.1260,-0.1918,-0.0857,-0.1607,-0.0725,
16.306165,1.0037,-1.8901,-0.3082,-0.0857,-0.1607,-0.0725,
16.337545,1.0037,-1.8901,-0.3082,-0.0562,-0.1988,0.0770,
16.370330,1.0037,-1.8901,-0.3082,-0.0562,-0.1988,0.0770,
16.372273,0.2791,-3.4440,-1.3455,-0.0562,-0.1988,0.0770,
16.402467,0.2791,-3.4440,-1.3455,-0.5037,0.2938,0.3942,
16.435632,0.2791,-3.4440,-1.3455,-0.5037,0.2938,0.3942,
16.437264,-3.2669,9.3249,-0.1082,-0.5037,0.2938,0.3942,
16.469607,-3.2669,9.3249,-0.1082,-0.5429,-0.5267,0.5614,
16.502675,-3.2669,9.3249,-0.1082,-0.5429,-0.5267,0.5614,
16.505609,0.4361,0.8454,-0.3263,-0.5429,-0.5267,0.5614,
16.532930,0.4361,0.8454,-0.3263,-0.8697,0.4162,0.2582,
16.566453,0.4361,0.8454,-0.3263,-0.8697,0.4162,0.2582,
16.567984,1.4574,-1.0158,0.1783,-0.8697,0.4162,0.2582,
16.599133,1.4574,-1.0158,0.1783,-0.6228,1.3141,-0.1023,
16.632752,1.4574,-1.0158,0.1783,-0.6228,1.3141,-0.1023,
16.635285,-1.8052,0.2704,-0.2020,-0.6228,1.3141,-0.1023,
16.666623,-1.8052,0.2704,-0.2020,-0.5545,0.5237,0.1087,
16.698359,-1.8052,0.2704,-0.2020,-0.5545,0.5237,0.1087,
16.699678,-1.8220,-1.1012,-0.0821,-0.5545,0.5237,0.1087,
16.730748,-1.8220,-1.1012,-0.0821,-0.5003,0.0495,-0.0139,
16.764477,-1.8220,-1.1012,-0.0821,-0.5003,0.0495,-0.0139,
16.766230,0.5733,-0.3777,0.0433,-0.5003,0.0495,-0.0139,
16.796250,0.5733,-0.3777,0.0433,-0.2059,0.2584,-0.0081,
16.829347,0.5733,-0.3777,0.0433,-0.2059,0.2584,-0.0081,
16.831168,0.6760,-0.9830,0.5403,-0.2059,0.2584,-0.0081,
16.861452,0.6760,-0.9830,0.5403,-0.0525,0.3450,-0.0388,
16.893497,0.6760,-0.9830,0.5403,-0.0525,0.3450,-0.0388,
16.895236,0.4394,-1.1611,0.9862,-0.0525,0.3450,-0.0388,
16.927465,0.4394,-1.1611,0.9862,0.1654,0.3319,0.0237,
16.959151,0.4394,-1.1611,0.9862,0.1654,0.3319,0.0237,
16.960761,0.7070,-0.7743,0.8137,0.1654,0.3319,0.0237,
16.991794,0.7070,-0.7743,0.8137,0.0698,0.3853,0.2199,
17.024881,0.7070,-0.7743,0.8137,0.0698,0.3853,0.2199,
17.026464,0.2444,0.5659,0.7204,0.0698,0.3853,0.2199,
17.057662,0.2444,0.5659,0.7204,0.0530,0.4817,0.2114,
17.091472,0.2444,0.5659,0.7204,0.0530,0.4817,0.2114,
17.093378,0.1636,0.0866,0.8772,0.0530,0.4817,0.2114,
17.123918,0.1636,0.0866,0.8772,0.2622,0.4843,-0.0224,
17.156159,0.1636,0.0866,0.8772,0.2622,0.4843,-0.0224,
17.157947,-1.0365,1.2291,1.0372,0.2622,0.4843,-0.0224,
17.189191,-1.0365,1.2291,1.0372,0.6735,-0.1486,-0.1327,
17.221031,-1.0365,1.2291,1.0372,0.6735,-0.1486,-0.1327,
17.222671,-1.0593,1.1726,0.1695,0.6735,-0.1486,-0.1327,
17.253458,-1.0593,1.1726,0.1695,0.9252,-0.4972,-0.1373,
17.287247,-1.0593,1.1726,0.1695,0.9252,-0.4972,-0.1373,
17.288926,-0.1234,0.4056,-1.2264,0.9252,-0.4972,-0.1373,
17.319249,-0.1234,0.4056,-1.2264,0.7462,-0.2483,-0.1675,
17.352418,-0.1234,0.4056,-1.2264,0.7462,-0.2483,-0.1675,
17.353932,-0.5152,-0.8960,-0.9919,0.7462,-0.2483,-0.1675,
17.384136,-0.5152,-0.8960,-0.9919,0.4392,-0.3259,-0.1481,
17.418602,-0.5152,-0.8960,-0.9919,0.4392,-0.3259,-0.1481,
17.420538,-0.0403,-1.1636,-0.3355,0.4392,-0.3259,-0.1481,
17.449951,-0.0403,-1.1636,-0.3355,0.2923,-0.4533,-0.0386,
17.483198,-0.0403,-1.1636,-0.3355,0.2923,-0.4533,-0.0386,
17.484649,1.6058,-0.4852,-0.9660,0.2923,-0.4533,-0.0386,
17.515394,1.6058,-0.4852,-0.9660,0.1623,0.1907,-0.0267,
17.548979,1.6058,-0.4852,-0.9660,0.1623,0.1907,-0.0267,
17.551106,1.0501,-0.4965,-0.4272,0.1623,0.1907,-0.0267,
17.580793,1.0501,-0.4965,-0.4272,0.0163,0.4360,-0.1961,
17.614109,1.0501,-0.4965,-0.4272,0.0163,0.4360,-0.1961,
17.615964,0.3749,-0.7120,-0.1597,0.0163,0.4360,-0.1961,
17.646477,0.3749,-0.7120,-0.1597,-0.0057,0.2587,-0.2269,
17.680141,0.3749,-0.7120,-0.1597,-0.0057,0.2587,-0.2269,
17.681712,0.0628,-0.5131,-0.5500,-0.0057,0.2587,-0.2269,
17.712618,0.0628,-0.5131,-0.5500,-0.0457,-0.0189,-0.2019,
17.744570,0.0628,-0.5131,-0.5500,-0.0457,-0.0189,-0.2019,
17.746178,0.7462,-1.4287,-0.1184,-0.0457,-0.0189,-0.2019,
17.777164,0.7462,-1.4287,-0.1184,-0.1468,-0.2666,-0.2896,
17.810659,0.7462,-1.4287,-0.1184,-0.1468,-0.2666,-0.2896,
17.812489,0.7623,-1.3220,-1.9242,-0.1468,-0.2666,-0.2896,
17.843304,0.7623,-1.3220,-1.9242,-0.6981,0.1704,0.1575,
17.875636,0.7623,-1.3220,-1.9242,-0.6981,0.1704,0.1575,
17.876633,-1.6021,6.7360,0.2535,-0.6981,0.1704,0.1575,
17.908699,-1.6021,6.7360,0.2535,-0.5554,-0.0556,0.2363,
17.941374,-1.6021,6.7360,0.2535,-0.5554,-0.0556,0.2363,
17.942342,0.2558,1.1257,0.0127,-0.5554,-0.0556,0.2363,
17.973237,0.2558,1.1257,0.0127,-0.8390,0.3680,0.3711,
18.008155,0.2558,1.1257,0.0127,-0.8390,0.3680,0.3711,
18.008792,0.3610,-2.0614,0.5142,-0.8390,0.3680,0.3711,
18.040389,0.3610,-2.0614,0.5142,-0.8102,0.8931,0.1129,
18.072714,0.3610,-2.0614,0.5142,-0.8102,0.8931,0.1129,
18.074676,-1.3123,0.3555,-0.0693,-0.8102,0.8931,0.1129,
18.105062,-1.3123,0.3555,-0.0693,-0.4843,0.2908,0.2462,
18.137758,-1.3123,0.3555,-0.0693,-0.4843,0.2908,0.2462,
18.139627,-0.9939,-1.0183,0.0007,-0.4843,0.2908,0.2462,
18.170667,-0.9939,-1.0183,0.0007,-0.4736,0.1524,0.1797,
18.204044,-0.9939,-1.0183,0.0007,-0.4736,0.1524,0.1797,
18.205604,0.3976,-0.7766,0.1784,-0.4736,0.1524,0.1797,
18.235614,0.3976,-0.7766,0.1784,-0.2250,0.2534,0.1856,
18.268754,0.3976,-0.7766,0.1784,-0.2250,0.2534,0.1856,
18.270476,0.1841,-1.0078,0.3897,-0.2250,0.2534,0.1856,
18.300830,0.1841,-1.0078,0.3897,0.0157,0.2039,0.2564,
18.334005,0.1841,-1.0078,0.3897,0.0157,0.2039,0.2564,
18.335981,0.4492,-0.7088,0.7453,0.0157,0.2039,0.2564,
18.366593,0.4492,-0.7088,0.7453,0.1481,0.1753,0.2552,
18.399627,0.4492,-0.7088,0.7453,0.1481,0.1753,0.2552,
18.401265,1.0840,-0.8328,0.7251,0.1481,0.1753,0.2552,
18.433197,1.0840,-0.8328,0.7251,0.2454,0.5148,0.2848,
18.464385,1.0840,-0.8328,0.7251,0.2454,0.5148,0.2848,
18.465849,-0.0290,0.6614,1.0239,0.2454,0.5148,0.2848,
18.497108,-0.0290,0.6614,1.0239,0.1823,0.5211,0.2650,
18.530693,-0.0290,0.6614,1.0239,0.1823,0.5211,0.2650,
18.532453,-0.3427,1.3857,1.2344,0.1823,0.5211,0.2650,
18.564335,-0.3427,1.3857,1.2344,0.3738,0.2222,0.0718,
18.595812,-0.3427,1.3857,1.2344,0.3738,0.2222,0.0718,
18.597409,-0.8291,0.9383,0.6605,0.3738,0.2222,0.0718,
18.632878,-0.8291,0.9383,0.6605,0.8392,-0.2987,-0.1828,
18.661748,-0.8291,0.9383,0.6605,0.8392,-0.2987,-0.1828,
18.663499,-0.3979,0.4688,-0.8390,0.8392,-0.2987,-0.1828,
18.693907,-0.3979,0.4688,-0.8390,0.7986,-0.2359,-0.1994,
18.727458,-0.3979,0.4688,-0.8390,0.7986,-0.2359,-0.1994,
18.729119,-0.0515,-1.3139,-1.3063,0.7986,-0.2359,-0.1994,
18.760326,-0.0515,-1.3139,-1.3063,0.6391,0.2204,-0.1217,
18.793909,-0.0515,-1.3139,-1.3063,0.6391,0.2204,-0.1217,
18.795856,-0.1074,-0.2179,-0.9513,0.6391,0.2204,-0.1217,
18.826287,-0.1074,-0.2179,-0.9513,0.4835,0.3109,-0.0586,
18.857607,-0.1074,-0.2179,-0.9513,0.4835,0.3109,-0.0586,
18.858675,-0.2880,-0.2789,-0.4617,0.4835,0.3109,-0.0586,
18.890360,-0.2880,-0.2789,-0.4617,0.3651,0.0826,-0.1585,
18.924613,-0.2880,-0.2789,-0.4617,0.3651,0.0826,-0.1585,
18.926095,0.5108,-0.6401,-0.4644,0.3651,0.0826,-0.1585,
18.956410,0.5108,-0.6401,-0.4644,0.2198,0.1182,-0.2292,
18.990071,0.5108,-0.6401,-0.4644,0.2198,0.1182,-0.2292,
18.991859,0.9523,-0.3969,-0.3914,0.2198,0.1182,-0.2292,
19.021611,0.9523,-0.3969,-0.3914,0.0704,0.3206,-0.2243,
19.055581,0.9523,-0.3969,-0.3914,0.0704,0.3206,-0.2243,
19.057168,0.6501,-0.2793,0.1690,0.0704,0.3206,-0.2243,
19.086962,0.6501,-0.2793,0.1690,-0.1187,0.2839,-0.1872,
19.120441,0.6501,-0.2793,0.1690,-0.1187,0.2839,-0.1872,
19.122137,0.8046,-1.2504,-0.2913,-0.1187,0.2839,-0.1872,
19.152971,0.8046,-1.2504,-0.2913,-0.1851,0.1776,-0.1976,
19.185706,0.8046,-1.2504,-0.2913,-0.1851,0.1776,-0.1976,
19.186628,1.0109,-1.8307,-0.3928,-0.1851,0.1776,-0.1976,
19.218308,1.0109,-1.8307,-0.3928,-0.3661,-0.0938,-0.2214,
19.250531,1.0109,-1.8307,-0.3928,-0.3661,-0.0938,-0.2214,
19.251989,-2.3212,-0.6119,-3.1562,-0.3661,-0.0938,-0.2214,
19.285097,-2.3212,-0.6119,-3.1562,-0.7730,0.3563,0.3422,
19.317074,-2.3212,-0.6119,-3.1562,-0.7730,0.3563,0.3422,
19.319080,-0.6580,5.8751,0.7109,-0.7730,0.3563,0.3422,
19.349605,-0.6580,5.8751,0.7109,-0.5994,-0.3500,0.4276,
19.382529,-0.6580,5.8751,0.7109,-0.5994,-0.3500,0.4276,
19.384390,0.4629,0.5284,0.0161,-0.5994,-0.3500,0.4276,
19.414707,0.4629,0.5284,0.0161,-0.8028,0.6581,0.2944,
19.448654,0.4629,0.5284,0.0161,-0.8028,0.6581,0.2944,
19.450362,0.3590,-0.2540,0.4658,-0.8028,0.6581,0.2944,
19.481489,0.3590,-0.2540,0.4658,-0.6306,0.8270,0.1110,
19.513403,0.3590,-0.2540,0.4658,-0.6306,0.8270,0.1110,
19.515120,-1.4350,-0.5117,-0.2829,-0.6306,0.8270,0.1110,
19.546384,-1.4350,-0.5117,-0.2829,-0.4299,0.5308,0.2385,
19.579534,-1.4350,-0.5117,-0.2829,-0.4299,0.5308,0.2385,
19.581343,-0.3879,-1.0913,-0.3640,-0.4299,0.5308,0.2385,
19.611193,-0.3879,-1.0913,-0.3640,-0.4950,0.5767,0.1817,
19.643984,-0.3879,-1.0913,-0.3640,-0.4950,0.5767,0.1817,
19.645573,0.1417,-0.8727,0.2522,-0.4950,0.5767,0.1817,
19.676858,0.1417,-0.8727,0.2522,-0.1607,0.6304,0.1258,
19.710597,0.1417,-0.8727,0.2522,-0.1607,0.6304,0.1258,
19.712595,0.3976,-1.0652,0.4117,-0.1607,0.6304,0.1258,
19.743229,0.3976,-1.0652,0.4117,0.0331,0.6495,0.1385,
19.775453,0.3976,-1.0652,0.4117,0.0331,0.6495,0.1385,
19.777715,0.5777,-1.0162,0.8466,0.0331,0.6495,0.1385,
19.808290,0.5777,-1.0162,0.8466,0.1323,0.5414,0.2159,
19.840155,0.5777,-1.0162,0.8466,0.1323,0.5414,0.2159,
19.841879,0.3531,0.0293,0.6944,0.1323,0.5414,0.2159,
19.872612,0.3531,0.0293,0.6944,0.0632,0.4291,0.3997,
19.906154,0.3531,0.0293,0.6944,0.0632,0.4291,0.3997,
19.907860,-0.2730,0.6730,0.7327,0.0632,0.4291,0.3997,
19.937941,-0.2730,0.6730,0.7327,0.2863,0.2489,0.1936,
19.972055,-0.2730,0.6730,0.7327,0.2863,0.2489,0.1936,
19.973642,-1.3041,1.2770,1.0706,0.2863,0.2489,0.1936,
20.003653,-1.3041,1.2770,1.0706,0.6715,-0.4187,0.1005,
20.035954,-1.3041,1.2770,1.0706,0.6715,-0.4187,0.1005,
20.036937,-0.6669,1.3631,-0.3799,0.6715,-0.4187,0.1005,
20.068715,-0.6669,1.3631,-0.3799,0.8008,-0.3571,-0.0064,
20.101286,-0.6669,1.3631,-0.3799,0.8008,-0.3571,-0.0064,
20.102935,0.4554,-0.1203,-1.7297,0.8008,-0.3571,-0.0064,
20.135132,0.4554,-0.1203,-1.7297,0.6588,0.1075,-0.0811,
20.168430,0.4554,-0.1203,-1.7297,0.6588,0.1075,-0.0811,
20.169431,-0.3844,-0.4162,-1.0612,0.6588,0.1075,-0.0811,
20.200209,-0.3844,-0.4162,-1.0612,0.5866,0.1271,-0.1138,
20.232512,-0.3844,-0.4162,-1.0612,0.5866,0.1271,-0.1138,
20.234326,-0.3828,-0.5003,-0.7210,0.5866,0.1271,-0.1138,
20.265977,-0.3828,-0.5003,-0.7210,0.4320,-0.0644,0.0228,
20.299341,-0.3828,-0.5003,-0.7210,0.4320,-0.0644,0.0228,
20.300788,0.7893,-0.8870,-0.7546,0.4320,-0.0644,0.0228,
20.330316,0.7893,-0.8870,-0.7546,0.2326,0.1836,-0.0292,
20.364323,0.7893,-0.8870,-0.7546,0.2326,0.1836,-0.0292,
20.365703,0.8965,-0.2421,-0.8492,0.2326,0.1836,-0.0292,
20.396325,0.8965,-0.2421,-0.8492,0.0791,0.3239,-0.1237,
20.428658,0.8965,-0.2421,-0.8492,0.0791,0.3239,-0.1237,
20.429407,-0.0317,-0.5804,-0.2826,0.0791,0.3239,-0.1237,
20.460809,-0.0317,-0.5804,-0.2826,-0.0589,0.1217,-0.1109,
20.495153,-0.0317,-0.5804,-0.2826,-0.0589,0.1217,-0.1109,
20.496767,0.2812,-0.2871,-0.0546,-0.0589,0.1217,-0.1109,
20.527284,0.2812,-0.2871,-0.0546,-0.2408,-0.0356,-0.1545,
20.561452,0.2812,-0.2871,-0.0546,-0.2408,-0.0356,-0.1545,
20.563164,0.8548,-1.1548,-0.2949,-0.2408,-0.0356,-0.1545,
20.593917,0.8548,-1.1548,-0.2949,-0.2824,0.0188,-0.2558,
20.625836,0.8548,-1.1548,-0.2949,-0.2824,0.0188,-0.2558,
20.627684,1.4623,-1.6071,-0.2985,-0.2824,0.0188,-0.2558,
20.658688,1.4623,-1.6071,-0.2985,-0.4068,0.2388,-0.2726,
20.691245,1.4623,-1.6071,-0.2985,-0.4068,0.2388,-0.2726,
20.692988,-2.0907,0.0446,-2.6258,-0.4068,0.2388,-0.2726,
20.724129,-2.0907,0.0446,-2.6258,-0.8030,0.6513,0.1730,
20.757146,-2.0907,0.0446,-2.6258,-0.8030,0.6513,0.1730,
20.759197,-0.5233,6.1944,-0.5490,-0.8030,0.6513,0.1730,
20.790139,-0.5233,6.1944,-0.5490,-0.8995,0.1926,0.1788,
20.823594,-0.5233,6.1944,-0.5490,-0.8995,0.1926,0.1788,
20.825202,0.3503,-0.0847,0.6867,-0.8995,0.1926,0.1788,
20.854733,0.3503,-0.0847,0.6867,-0.8607,0.8554,-0.1703,
20.887131,0.3503,-0.0847,0.6867,-0.8607,0.8554,-0.1703,
20.888570,0.4172,0.1801,0.4225,-0.8607,0.8554,-0.1703,
20.919434,0.4172,0.1801,0.4225,-0.6472,0.7898,-0.2207,
20.952570,0.4172,0.1801,0.4225,-0.6472,0.7898,-0.2207,
20.953970,-0.4556,-0.8136,-0.1097,-0.6472,0.7898,-0.2207,
20.985999,-0.4556,-0.8136,-0.1097,-0.4042,0.5939,-0.0032,
21.020710,-0.4556,-0.8136,-0.1097,-0.4042,0.5939,-0.0032,
21.022967,-0.1869,-1.0718,-0.1342,-0.4042,0.5939,-0.0032,
21.052975,-0.1869,-1.0718,-0.1342,-0.4088,0.4316,0.0373,
21.085468,-0.1869,-1.0718,-0.1342,-0.4088,0.4316,0.0373,
21.087937,-0.0098,-0.9076,-0.0522,-0.4088,0.4316,0.0373,
21.117946,-0.0098,-0.9076,-0.0522,-0.1652,0.3746,0.1562,
21.150076,-0.0098,-0.9076,-0.0522,-0.1652,0.3746,0.1562,
21.151894,0.0526,-0.8823,0.2351,-0.1652,0.3746,0.1562,
21.183291,0.0526,-0.8823,0.2351,-0.0252,0.2388,0.2512,
21.215355,0.0526,-0.8823,0.2351,-0.0252,0.2388,0.2512,
21.217085,0.4227,-1.1022,0.3594,-0.0252,0.2388,0.2512,
21.249128,0.4227,-1.1022,0.3594,0.2020,0.1764,0.3346,
21.281514,0.4227,-1.1022,0.3594,0.2020,0.1764,0.3346,
21.283626,0.4580,-0.6464,0.7123,0.2020,0.1764,0.3346,
21.314716,0.4580,-0.6464,0.7123,0.3167,0.2129,0.4444,
21.346705,0.4580,-0.6464,0.7123,0.3167,0.2129,0.4444,
21.348292,0.5639,-0.2856,0.8221,0.3167,0.2129,0.4444,
21.378412,0.5639,-0.2856,0.8221,0.1113,0.3532,0.6408,
21.411501,0.5639,-0.2856,0.8221,0.1113,0.3532,0.6408,
21.413262,-0.3663,1.1245,1.1897,0.1113,0.3532,0.6408,
21.445363,-0.3663,1.1245,1.1897,0.2689,0.3845,0.5719,
21.476561,-0.3663,1.1245,1.1897,0.2689,0.3845,0.5719,
21.477692,-1.2504,0.6679,0.9540,0.2689,0.3845,0.5719,
21.509308,-1.2504,0.6679,0.9540,0.5551,0.1645,0.4488,
21.543559,-1.2504,0.6679,0.9540,0.5551,0.1645,0.4488,
21.545069,-0.6187,0.2481,0.2440,0.5551,0.1645,0.4488,
21.574927,-0.6187,0.2481,0.2440,0.9551,-0.0166,0.4276,
21.608234,-0.6187,0.2481,0.2440,0.9551,-0.0166,0.4276,
21.609895,-0.3833,-0.2729,-1.0192,0.9551,-0.0166,0.4276,
21.641628,-0.3833,-0.2729,-1.0192,1.0385,0.1941,0.4270,
21.673748,-0.3833,-0.2729,-1.0192,1.0385,0.1941,0.4270,
21.675103,-0.4100,-0.6321,-1.9759,1.0385,0.1941,0.4270,
21.706197,-0.4100,-0.6321,-1.9759,0.6697,0.5855,0.2613,
21.739027,-0.4100,-0.6321,-1.9759,0.6697,0.5855,0.2613,
21.740067,-1.3680,-1.8675,-3.1063,0.6697,0.5855,0.2613,
21.771933,-1.3680,-1.8675,-3.1063,0.3093,-0.1772,-0.2453,
21.805870,-1.3680,-1.8675,-3.1063,0.3093,-0.1772,-0.2453,
21.807438,-1.7472,-1.7222,-4.2810,0.3093,-0.1772,-0.2453,
21.839116,-1.7472,-1.7222,-4.2810,-0.7862,-1.3473,0.1976,
21.870540,-1.7472,-1.7222,-4.2810,-0.7862,-1.3473,0.1976,
21.871869,-1.7814,-4.8163,3.1733,-0.7862,-1.3473,0.1976,
21.903574,-1.7814,-4.8163,3.1733,-1.4258,-1.9629,0.2407,
21.935080,-1.7814,-4.8163,3.1733,-1.4258,-1.9629,0.2407,
21.936247,-1.5173,4.4553,-1.8508,-1.4258,-1.9629,0.2407,
21.967375,-1.5173,4.4553,-1.8508,-2.6576,-0.3166,0.2459,
22.000088,-1.5173,4.4553,-1.8508,-2.6576,-0.3166,0.2459,
22.001558,2.3637,-1.8811,7.9956,-2.6576,-0.3166,0.2459,
22.034125,2.3637,-1.8811,7.9956,1.4018,-0.5964,-0.6532,
22.066529,2.3637,-1.8811,7.9956,1.4018,-0.5964,-0.6532,
22.068340,-0.8311,9.7427,2.3039,1.4018,-0.5964,-0.6532,
22.098647,-0.8311,9.7427,2.3039,0.9598,0.4441,0.4224,
22.131722,-0.8311,9.7427,2.3039,0.9598,0.4441,0.4224,
22.133438,3.7223,0.4699,-1.5384,0.9598,0.4441,0.4224,
22.164566,3.7223,0.4699,-1.5384,0.9907,2.3300,0.7408,
22.197732,3.7223,0.4699,-1.5384,0.9907,2.3300,0.7408,
22.199418,3.3283,4.1151,-5.3969,0.9907,2.3300,0.7408,
22.230405,3.3283,4.1151,-5.3969,0.4499,2.1611,0.1926,
22.263702,3.3283,4.1151,-5.3969,0.4499,2.1611,0.1926,
22.265327,-3.1247,-3.7272,-2.3278,0.4499,2.1611,0.1926,
22.295756,-3.1247,-3.7272,-2.3278,0.0971,-0.0797,-0.4951,
22.328795,-3.1247,-3.7272,-2.3278,0.0971,-0.0797,-0.4951,
22.330626,-2.1422,-2.7433,-0.9560,0.0971,-0.0797,-0.4951,
22.361156,-2.1422,-2.7433,-0.9560,-0.4172,-0.6393,0.3042,
22.394391,-2.1422,-2.7433,-0.9560,-0.4172,-0.6393,0.3042,
22.396059,1.3456,2.6852,0.5333,-0.4172,-0.6393,0.3042,
22.426614,1.3456,2.6852,0.5333,-0.6405,0.7802,0.3552,
22.458635,1.3456,2.6852,0.5333,-0.6405,0.7802,0.3552,
22.460264,0.4461,2.6291,-0.6130,-0.6405,0.7802,0.3552,
22.491790,0.4461,2.6291,-0.6130,-0.7425,1.2572,-0.5406,
22.526306,0.4461,2.6291,-0.6130,-0.7425,1.2572,-0.5406,
22.528307,-4.8357,0.7228,1.8676,-0.7425,1.2572,-0.5406,
22.557126,-4.8357,0.7228,1.8676,-0.2508,-0.5631,-0.4953,
22.590127,-4.8357,0.7228,1.8676,-0.2508,-0.5631,-0.4953,
22.591794,-1.4199,-1.1760,1.6643,-0.2508,-0.5631,-0.4953,
22.623820,-1.4199,-1.1760,1.6643,0.3948,-1.0965,-0.2850,
22.655131,-1.4199,-1.1760,1.6643,0.3948,-1.0965,-0.2850,
22.656923,2.2777,-1.1905,1.7196,0.3948,-1.0965,-0.2850,
22.689351,2.2777,-1.1905,1.7196,0.3093,0.0093,-0.3477,
22.721668,2.2777,-1.1905,1.7196,0.3093,0.0093,-0.3477,
22.723406,4.6708,-0.6204,1.7617,0.3093,0.0093,-0.3477,
22.754050,4.6708,-0.6204,1.7617,-0.0838,1.2381,-0.0565,
22.786638,4.6708,-0.6204,1.7617,-0.0838,1.2381,-0.0565,
22.788499,1.1209,1.4546,-0.1978,-0.0838,1.2381,-0.0565,
22.820281,1.1209,1.4546,-0.1978,0.3282,1.1564,-0.1396,
22.851875,1.1209,1.4546,-0.1978,0.3282,1.1564,-0.1396,
22.854042,-1.1197,-1.1450,-1.0242,0.3282,1.1564,-0.1396,
22.884383,-1.1197,-1.1450,-1.0242,0.1356,0.2983,-0.4223,
22.917819,-1.1197,-1.1450,-1.0242,0.1356,0.2983,-0.4223,
22.919824,-2.2052,-0.2505,-0.9688,0.1356,0.2983,-0.4223,
22.950313,-2.2052,-0.2505,-0.9688,0.3103,-0.5938,-0.4023,
22.983692,-2.2052,-0.2505,-0.9688,0.3103,-0.5938,-0.4023,
22.985178,-1.3888,0.9823,-0.8987,0.3103,-0.5938,-0.4023,
23.016200,-1.3888,0.9823,-0.8987,0.5860,-1.0356,0.1472,
23.047541,-1.3888,0.9823,-0.8987,0.5860,-1.0356,0.1472,
23.049619,1.0736,-0.5744,-1.8292,0.5860,-1.0356,0.1472,
23.083337,1.0736,-0.5744,-1.8292,0.4858,-0.4872,0.1834,
23.113814,1.0736,-0.5744,-1.8292,0.4858,-0.4872,0.1834,
23.115764,1.4560,-0.9068,-1.5357,0.4858,-0.4872,0.1834,
23.146105,1.4560,-0.9068,-1.5357,0.4229,-0.0687,-0.0202,
23.180070,1.4560,-0.9068,-1.5357,0.4229,-0.0687,-0.0202,
23.181089,0.2000,-0.7615,-0.2846,0.4229,-0.0687,-0.0202,
23.212389,0.2000,-0.7615,-0.2846,0.3224,-0.3216,0.0428,
23.246002,0.2000,-0.7615,-0.2846,0.3224,-0.3216,0.0428,
23.248091,1.1111,0.3752,-0.2042,0.3224,-0.3216,0.0428,
23.278055,1.1111,0.3752,-0.2042,0.2563,-0.2949,0.1217,
23.310719,1.1111,0.3752,-0.2042,0.2563,-0.2949,0.1217,
23.312448,1.9821,-0.2961,-0.3424,0.2563,-0.2949,0.1217,
23.344476,1.9821,-0.2961,-0.3424,0.1987,0.1611,-0.0417,
23.375705,1.9821,-0.2961,-0.3424,0.1987,0.1611,-0.0417,
23.377129,1.8190,-0.3149,-0.3236,0.1987,0.1611,-0.0417,
23.408843,1.8190,-0.3149,-0.3236,0.0154,0.3954,-0.1410,
23.442221,1.8190,-0.3149,-0.3236,0.0154,0.3954,-0.1410,
23.444169,1.5167,-0.4206,-0.3829,0.0154,0.3954,-0.1410,
23.473528,1.5167,-0.4206,-0.3829,-0.1733,0.4719,-0.1472,
23.507124,1.5167,-0.4206,-0.3829,-0.1733,0.4719,-0.1472,
23.508868,1.5061,-0.5832,-0.5014,-0.1733,0.4719,-0.1472,
23.539634,1.5061,-0.5832,-0.5014,-0.2506,0.4074,-0.1159,
23.571658,1.5061,-0.5832,-0.5014,-0.2506,0.4074,-0.1159,
23.573176,2.2416,-1.3191,-0.2176,-0.2506,0.4074,-0.1159,
23.606060,2.2416,-1.3191,-0.2176,-0.3720,0.5189,0.0165,
23.638158,2.2416,-1.3191,-0.2176,-0.3720,0.5189,0.0165,
23.641555,-0.3853,1.2081,-1.4484,-0.3720,0.5189,0.0165,
23.670838,-0.3853,1.2081,-1.4484,-0.7402,1.1003,0.6912,
23.704323,-0.3853,1.2081,-1.4484,-0.7402,1.1003,0.6912,
23.706355,-0.9111,3.9386,-0.4674,-0.7402,1.1003,0.6912,
23.735637,-0.9111,3.9386,-0.4674,-0.8097,1.1723,0.4557,
23.769518,-0.9111,3.9386,-0.4674,-0.8097,1.1723,0.4557,
23.771519,-1.3883,0.3533,0.3624,-0.8097,1.1723,0.4557,
23.802152,-1.3883,0.3533,0.3624,-0.9106,1.5026,-0.0505,
23.834547,-1.3883,0.3533,0.3624,-0.9106,1.5026,-0.0505,
23.836486,-0.4572,0.2339,0.6624,-0.9106,1.5026,-0.0505,
23.867131,-0.4572,0.2339,0.6624,-0.7112,1.2051,0.0383,
23.901932,-0.4572,0.2339,0.6624,-0.7112,1.2051,0.0383,
23.903628,-1.3494,0.1565,-0.5212,-0.7112,1.2051,0.0383,
23.931915,-1.3494,0.1565,-0.5212,-0.5359,0.9598,0.2566,
23.964711,-1.3494,0.1565,-0.5212,-0.5359,0.9598,0.2566,
23.965651,-0.8834,-1.7223,-0.4606,-0.5359,0.9598,0.2566,
23.997590,-0.8834,-1.7223,-0.4606,-0.4939,0.7682,-0.0003,
24.030940,-0.8834,-1.7223,-0.4606,-0.4939,0.7682,-0.0003,
24.032699,-0.7223,-0.2999,-0.2288,-0.4939,0.7682,-0.0003,
24.063583,-0.7223,-0.2999,-0.2288,-0.2998,0.5409,0.1491,
24.096537,-0.7223,-0.2999,-0.2288,-0.2998,0.5409,0.1491,
24.098288,-0.4519,-0.8662,-0.2032,-0.2998,0.5409,0.1491,
24.129273,-0.4519,-0.8662,-0.2032,-0.0741,0.4369,0.2094,
24.163324,-0.4519,-0.8662,-0.2032,-0.0741,0.4369,0.2094,
24.165982,-0.3186,-1.0127,0.1609,-0.0741,0.4369,0.2094,
24.194172,-0.3186,-1.0127,0.1609,0.0321,0.4275,0.1703,
24.229263,-0.3186,-1.0127,0.1609,0.0321,0.4275,0.1703,
24.231159,-0.0235,-0.6304,0.5257,0.0321,0.4275,0.1703,
24.261361,-0.0235,-0.6304,0.5257,0.0945,0.3331,0.2757,
24.292950,-0.0235,-0.6304,0.5257,0.0945,0.3331,0.2757,
24.294481,-0.0339,-1.0867,0.8992,0.0945,0.3331,0.2757,
24.325384,-0.0339,-1.0867,0.8992,0.2286,0.2191,0.2419,
24.358150,-0.0339,-1.0867,0.8992,0.2286,0.2191,0.2419,
24.359889,-0.6147,-0.3049,1.0872,0.2286,0.2191,0.2419,
24.389904,-0.6147,-0.3049,1.0872,0.2282,0.0976,0.3419,
24.424244,-0.6147,-0.3049,1.0872,0.2282,0.0976,0.3419,
24.425846,-0.6833,0.3837,0.8718,0.2282,0.0976,0.3419,
24.456008,-0.6833,0.3837,0.8718,0.0661,0.0889,0.1822,
24.490356,-0.6833,0.3837,0.8718,0.0661,0.0889,0.1822,
24.492648,-0.5997,1.1630,1.5189,0.0661,0.0889,0.1822,
24.522418,-0.5997,1.1630,1.5189,0.3726,-0.1544,0.1355,
24.556047,-0.5997,1.1630,1.5189,0.3726,-0.1544,0.1355,
24.557672,-0.5463,1.6299,0.5660,0.3726,-0.1544,0.1355,
24.588857,-0.5463,1.6299,0.5660,0.8592,-0.2332,0.3082,
24.621877,-0.5463,1.6299,0.5660,0.8592,-0.2332,0.3082,
24.623581,0.4543,0.1656,-1.2992,0.8592,-0.2332,0.3082,
24.653000,0.4543,0.1656,-1.2992,1.0479,-0.1451,0.2676,
24.685427,0.4543,0.1656,-1.2992,1.0479,-0.1451,0.2676,
24.687404,0.3032,-0.2715,-1.6482,1.0479,-0.1451,0.2676,
24.719436,0.3032,-0.2715,-1.6482,0.7937,-0.1961,0.3141,
24.751628,0.3032,-0.2715,-1.6482,0.7937,-0.1961,0.3141,
24.753249,-0.5233,-1.0622,-0.9204,0.7937,-0.1961,0.3141,
24.783759,-0.5233,-1.0622,-0.9204,0.5785,-0.3561,0.2821,
24.815913,-0.5233,-1.0622,-0.9204,0.5785,-0.3561,0.2821,
24.818033,0.3421,-1.2544,-0.7424,0.5785,-0.3561,0.2821,
24.850244,0.3421,-1.2544,-0.7424,0.4572,-0.3731,0.0301,
24.881748,0.3421,-1.2544,-0.7424,0.4572,-0.3731,0.0301,
24.882673,0.3725,-0.2532,-0.6832,0.4572,-0.3731,0.0301,
24.914599,0.3725,-0.2532,-0.6832,0.2398,-0.3413,-0.0130,
24.947995,0.3725,-0.2532,-0.6832,0.2398,-0.3413,-0.0130,
24.949152,0.8447,-0.1080,-0.6116,0.2398,-0.3413,-0.0130,
24.979926,0.8447,-0.1080,-0.6116,0.0875,-0.2443,-0.1014,
25.013321,0.8447,-0.1080,-0.6116,0.0875,-0.2443,-0.1014,
25.014602,1.1574,-0.1955,-0.2641,0.0875,-0.2443,-0.1014,
25.047921,1.1574,-0.1955,-0.2641,-0.0058,-0.1524,-0.1891,
25.080886,1.1574,-0.1955,-0.2641,-0.0058,-0.1524,-0.1891,
25.083244,1.3122,0.2413,-0.2464,-0.0058,-0.1524,-0.1891,
25.110711,1.3122,0.2413,-0.2464,-0.1000,-0.1312,-0.1865,
25.143578,1.3122,0.2413,-0.2464,-0.1000,-0.1312,-0.1865,
25.145014,1.8995,-0.3494,0.0439,-0.1000,-0.1312,-0.1865,
25.177347,1.8995,-0.3494,0.0439,-0.2169,-0.1391,-0.3283,
25.209707,1.8995,-0.3494,0.0439,-0.2169,-0.1391,-0.3283,
25.211794,2.2911,-0.6911,0.1635,-0.2169,-0.1391,-0.3283,
25.241734,2.2911,-0.6911,0.1635,-0.3836,-0.0782,-0.4302,
25.275500,2.2911,-0.6911,0.1635,-0.3836,-0.0782,-0.4302,
25.276946,2.2643,-0.8780,-0.2962,-0.3836,-0.0782,-0.4302,
25.307575,2.2643,-0.8780,-0.2962,-0.6461,0.1185,-0.2195,
25.340016,2.2643,-0.8780,-0.2962,-0.6461,0.1185,-0.2195,
25.341879,-3.4103,-0.3255,-2.0748,-0.6461,0.1185,-0.2195,
25.373160,-3.4103,-0.3255,-2.0748,-1.1498,0.4946,0.5675,
25.406486,-3.4103,-0.3255,-2.0748,-1.1498,0.4946,0.5675,
25.408427,-1.5396,6.9291,1.4269,-1.1498,0.4946,0.5675,
25.438005,-1.5396,6.9291,1.4269,-1.0612,0.0811,-0.0712,
25.471741,-1.5396,6.9291,1.4269,-1.0612,0.0811,-0.0712,
25.473721,1.5076,0.1769,-1.4776,-1.0612,0.0811,-0.0712,
25.504532,1.5076,0.1769,-1.4776,-1.2026,1.7271,-0.1481,
25.537494,1.5076,0.1769,-1.4776,-1.2026,1.7271,-0.1481,
25.538634,0.5855,-2.0573,0.0433,-1.2026,1.7271,-0.1481,
25.569823,0.5855,-2.0573,0.0433,-0.8867,1.6577,-0.0629,
25.602142,0.5855,-2.0573,0.0433,-0.8867,1.6577,-0.0629,
25.603948,-2.5469,-0.5754,0.1660,-0.8867,1.6577,-0.0629,
25.634481,-2.5469,-0.5754,0.1660,-0.4285,0.6449,0.0559,
25.667690,-2.5469,-0.5754,0.1660,-0.4285,0.6449,0.0559,
25.669320,-1.0510,-1.3841,-0.2673,-0.4285,0.6449,0.0559,
25.701067,-1.0510,-1.3841,-0.2673,-0.4209,0.3329,0.0533,
25.732888,-1.0510,-1.3841,-0.2673,-0.4209,0.3329,0.0533,
25.734516,0.2435,-0.9899,0.0700,-0.4209,0.3329,0.0533,
25.766263,0.2435,-0.9899,0.0700,-0.0597,0.6025,0.2575,
25.798188,0.2435,-0.9899,0.0700,-0.0597,0.6025,0.2575,
25.800193,0.3808,-0.8651,0.2417,-0.0597,0.6025,0.2575,
25.830871,0.3808,-0.8651,0.2417,0.0313,0.7567,0.3764,
25.863221,0.3808,-0.8651,0.2417,0.0313,0.7567,0.3764,
25.864732,-0.2955,-1.2194,0.5254,0.0313,0.7567,0.3764,
25.895624,-0.2955,-1.2194,0.5254,0.1866,0.6141,0.4142,
25.929407,-0.2955,-1.2194,0.5254,0.1866,0.6141,0.4142,
25.931424,-0.3227,-1.1225,0.9612,0.1866,0.6141,0.4142,
25.961250,-0.3227,-1.1225,0.9612,0.3905,0.4071,0.5032,
25.994865,-0.3227,-1.1225,0.9612,0.3905,0.4071,0.5032,
25.995929,-0.2763,-0.6596,1.1638,0.3905,0.4071,0.5032,
26.027206,-0.2763,-0.6596,1.1638,0.3859,0.2146,0.5522,
26.060540,-0.2763,-0.6596,1.1638,0.3859,0.2146,0.5522,
26.062082,-1.7318,2.4632,0.0083,0.3859,0.2146,0.5522,
26.093139,-1.7318,2.4632,0.0083,0.1242,-0.0026,0.4158,
26.125825,-1.7318,2.4632,0.0083,0.1242,-0.0026,0.4158,
26.127683,-1.1769,0.8381,0.5893,0.1242,-0.0026,0.4158,
26.158509,-1.1769,0.8381,0.5893,0.2805,-0.3176,0.2796,
26.192584,-1.1769,0.8381,0.5893,0.2805,-0.3176,0.2796,
26.194175,-0.4665,0.1335,-0.6655,0.2805,-0.3176,0.2796,
26.223372,-0.4665,0.1335,-0.6655,0.5848,-0.3926,0.0791,
26.257187,-0.4665,0.1335,-0.6655,0.5848,-0.3926,0.0791,
26.259061,-0.1786,0.4522,-0.8471,0.5848,-0.3926,0.0791,
26.289095,-0.1786,0.4522,-0.8471,0.6410,-0.3638,0.1110,
26.323883,-0.1786,0.4522,-0.8471,0.6410,-0.3638,0.1110,
26.326992,0.2469,-0.4356,-0.6341,0.6410,-0.3638,0.1110,
26.354667,0.2469,-0.4356,-0.6341,0.6836,-0.2332,-0.0212,
26.387438,0.2469,-0.4356,-0.6341,0.6836,-0.2332,-0.0212,
26.388662,0.0348,-0.3365,-1.3580,0.6836,-0.2332,-0.0212,
26.420488,0.0348,-0.3365,-1.3580,0.4795,-0.0641,0.0194,
26.453831,0.0348,-0.3365,-1.3580,0.4795,-0.0641,0.0194,
26.454351,-0.2904,-0.6228,-1.1799,0.4795,-0.0641,0.0194,
26.485954,-0.2904,-0.6228,-1.1799,0.3789,-0.1454,0.0820,
26.518517,-0.2904,-0.6228,-1.1799,0.3789,-0.1454,0.0820,
26.519649,-0.2883,-0.1872,-0.8525,0.3789,-0.1454,0.0820,
26.550207,-0.2883,-0.1872,-0.8525,0.3557,-0.4395,0.1810,
26.584001,-0.2883,-0.1872,-0.8525,0.3557,-0.4395,0.1810,
26.585088,0.1143,-0.0574,-0.4358,0.3557,-0.4395,0.1810,
26.617008,0.1143,-0.0574,-0.4358,0.3461,-0.4956,0.2324,
26.649412,0.1143,-0.0574,-0.4358,0.3461,-0.4956,0.2324,
26.651691,0.5497,0.1899,-0.3996,0.3461,-0.4956,0.2324,
26.683709,0.5497,0.1899,-0.3996,0.2560,-0.3267,0.0632,
26.715021,0.5497,0.1899,-0.3996,0.2560,-0.3267,0.0632,
26.717059,0.3952,0.1637,0.0246,0.2560,-0.3267,0.0632,
26.748214,0.3952,0.1637,0.0246,0.1772,-0.2366,-0.0623,
26.780219,0.3952,0.1637,0.0246,0.1772,-0.2366,-0.0623,
26.781686,0.4363,0.0422,-0.0262,0.1772,-0.2366,-0.0623,
26.812874,0.4363,0.0422,-0.0262,0.1571,-0.2443,-0.1060,
26.845674,0.4363,0.0422,-0.0262,0.1571,-0.2443,-0.1060,
26.847625,0.5034,-0.1036,-0.0144,0.1571,-0.2443,-0.1060,
26.878440,0.5034,-0.1036,-0.0144,0.1115,-0.3120,-0.1568,
26.911138,0.5034,-0.1036,-0.0144,0.1115,-0.3120,-0.1568,
26.912005,0.6507,-0.1505,0.1011,0.1115,-0.3120,-0.1568,
26.944051,0.6507,-0.1505,0.1011,0.0495,-0.3919,-0.1662,
26.977017,0.6507,-0.1505,0.1011,0.0495,-0.3919,-0.1662,
26.978353,1.1713,-0.2121,0.2050,0.0495,-0.3919,-0.1662,
27.008918,1.1713,-0.2121,0.2050,-0.0044,-0.3535,-0.1345,
27.042190,1.1713,-0.2121,0.2050,-0.0044,-0.3535,-0.1345,
27.044149,1.5189,-0.2349,0.1437,-0.0044,-0.3535,-0.1345,
27.075332,1.5189,-0.2349,0.1437,-0.1133,-0.2410,-0.1594,
27.108492,1.5189,-0.2349,0.1437,-0.1133,-0.2410,-0.1594,
27.110158,1.8459,-0.6911,0.4487,-0.1133,-0.2410,-0.1594,
27.141778,1.8459,-0.6911,0.4487,-0.1680,-0.1362,-0.2166,
27.174212,1.8459,-0.6911,0.4487,-0.1680,-0.1362,-0.2166,
27.176871,2.4006,-0.9097,0.2374,-0.1680,-0.1362,-0.2166,
27.206492,2.4006,-0.9097,0.2374,-0.2188,0.1371,-0.2633,
27.238415,2.4006,-0.9097,0.2374,-0.2188,0.1371,-0.2633,
27.240279,2.5095,-1.8793,-0.3922,-0.2188,0.1371,-0.2633,
27.271555,2.5095,-1.8793,-0.3922,-0.2011,0.5347,-0.1428,
27.305369,2.5095,-1.8793,-0.3922,-0.2011,0.5347,-0.1428,
27.307296,-3.7260,1.9161,-1.0888,-0.2011,0.5347,-0.1428,
27.337945,-3.7260,1.9161,-1.0888,-0.6200,0.5814,0.2750,
27.372036,-3.7260,1.9161,-1.0888,-0.6200,0.5814,0.2750,
27.374520,-2.3960,5.6553,0.2118,-0.6200,0.5814,0.2750,
27.402399,-2.3960,5.6553,0.2118,-1.1055,0.1103,0.0484,
27.436099,-2.3960,5.6553,0.2118,-1.1055,0.1103,0.0484,
27.442547,-0.2271,0.4826,-0.3597,-1.1055,0.1103,0.0484,
27.467999,-0.2271,0.4826,-0.3597,-1.2584,0.9352,-0.2057,
27.502394,-0.2271,0.4826,-0.3597,-1.2584,0.9352,-0.2057,
27.504335,-0.4062,-0.3034,0.1879,-1.2584,0.9352,-0.2057,
27.533877,-0.4062,-0.3034,0.1879,-0.8002,0.6147,-0.1200,
27.567420,-0.4062,-0.3034,0.1879,-0.8002,0.6147,-0.1200,
27.570525,-1.2430,-1.3965,-0.1871,-0.8002,0.6147,-0.1200,
27.600128,-1.2430,-1.3965,-0.1871,-0.4855,0.2781,-0.0411,
27.632387,-1.2430,-1.3965,-0.1871,-0.4855,0.2781,-0.0411,
27.634254,-1.2471,-1.6268,0.2896,-0.4855,0.2781,-0.0411,
27.665198,-1.2471,-1.6268,0.2896,-0.3526,-0.1095,-0.0577,
27.698434,-1.2471,-1.6268,0.2896,-0.3526,-0.1095,-0.0577,
27.700318,0.0068,-1.4649,0.5436,-0.3526,-0.1095,-0.0577,
27.730169,0.0068,-1.4649,0.5436,0.0252,-0.1013,0.1289,
27.764193,0.0068,-1.4649,0.5436,0.0252,-0.1013,0.1289,
27.766350,0.6600,-1.2460,0.6175,0.0252,-0.1013,0.1289,
27.795605,0.6600,-1.2460,0.6175,0.1819,0.2187,0.2275,
27.829306,0.6600,-1.2460,0.6175,0.1819,0.2187,0.2275,
27.831356,0.5879,-1.3359,1.1828,0.1819,0.2187,0.2275,
27.860479,0.5879,-1.3359,1.1828,0.3302,0.2689,0.3514,
27.895394,0.5879,-1.3359,1.1828,0.3302,0.2689,0.3514,
27.897223,-0.9088,-0.0874,0.7538,0.3302,0.2689,0.3514,
27.927597,-0.9088,-0.0874,0.7538,0.1048,0.0104,0.4504,
27.958751,-0.9088,-0.0874,0.7538,0.1048,0.0104,0.4504,
27.961000,-1.6869,2.5187,0.8365,0.1048,0.0104,0.4504,
27.992183,-1.6869,2.5187,0.8365,0.3135,-0.4528,0.2236,
28.025658,-1.6869,2.5187,0.8365,0.3135,-0.4528,0.2236,
28.027414,-0.2536,0.7976,0.6535,0.3135,-0.4528,0.2236,
28.058158,-0.2536,0.7976,0.6535,0.9281,-0.4924,0.2417,
28.091536,-0.2536,0.7976,0.6535,0.9281,-0.4924,0.2417,
28.093091,-0.6826,-0.1157,-1.3206,0.9281,-0.4924,0.2417,
28.123185,-0.6826,-0.1157,-1.3206,1.0849,-0.4922,0.1329,
28.156400,-0.6826,-0.1157,-1.3206,1.0849,-0.4922,0.1329,
28.158711,-0.5356,-0.5548,-1.7371,1.0849,-0.4922,0.1329,
28.190341,-0.5356,-0.5548,-1.7371,0.6306,-0.3155,0.1998,
28.222332,-0.5356,-0.5548,-1.7371,0.6306,-0.3155,0.1998,
28.223238,-0.6434,-0.4666,-0.6845,0.6306,-0.3155,0.1998,
28.252957,-0.6434,-0.4666,-0.6845,0.4956,-0.4850,0.0041,
28.286061,-0.6434,-0.4666,-0.6845,0.4956,-0.4850,0.0041,
28.286993,-0.2315,-0.3542,-0.6052,0.4956,-0.4850,0.0041,
28.318899,-0.2315,-0.3542,-0.6052,0.2706,-0.5333,0.0014,
28.351285,-0.2315,-0.3542,-0.6052,0.2706,-0.5333,0.0014,
28.352076,0.2714,-0.2883,-0.5798,0.2706,-0.5333,0.0014,
28.385219,0.2714,-0.2883,-0.5798,0.2147,-0.3590,-0.0843,
28.416909,0.2714,-0.2883,-0.5798,0.2147,-0.3590,-0.0843,
28.417888,0.0111,0.0247,-0.2771,0.2147,-0.3590,-0.0843,
28.450075,0.0111,0.0247,-0.2771,0.1379,-0.3969,-0.1521,
28.482312,0.0111,0.0247,-0.2771,0.1379,-0.3969,-0.1521,
28.483115,0.1842,-0.2965,-0.0924,0.1379,-0.3969,-0.1521,
28.515812,0.1842,-0.2965,-0.0924,0.0922,-0.4027,-0.1290,
28.548241,0.1842,-0.2965,-0.0924,0.0922,-0.4027,-0.1290,
28.548866,0.9355,-0.1189,-0.2195,0.0922,-0.4027,-0.1290,
28.582065,0.9355,-0.1189,-0.2195,0.0591,-0.2408,-0.1663,
28.614608,0.9355,-0.1189,-0.2195,0.0591,-0.2408,-0.1663,
28.615999,1.1047,-0.1951,-0.0119,0.0591,-0.2408,-0.1663,
28.647507,1.1047,-0.1951,-0.0119,0.0229,-0.1022,-0.2396,
28.679165,1.1047,-0.1951,-0.0119,0.0229,-0.1022,-0.2396,
28.680042,1.0743,-0.1856,0.2231,0.0229,-0.1022,-0.2396,
28.711452,1.0743,-0.1856,0.2231,-0.0200,-0.1417,-0.2781,
28.744739,1.0743,-0.1856,0.2231,-0.0200,-0.1417,-0.2781,
28.745856,1.3806,-0.4011,0.3403,-0.0200,-0.1417,-0.2781,
28.778353,1.3806,-0.4011,0.3403,-0.1002,-0.2126,-0.2642,
28.811225,1.3806,-0.4011,0.3403,-0.1002,-0.2126,-0.2642,
28.812745,1.8287,-0.5842,0.5887,-0.1002,-0.2126,-0.2642,
28.843654,1.8287,-0.5842,0.5887,-0.2179,-0.1796,-0.2660,
28.875526,1.8287,-0.5842,0.5887,-0.2179,-0.1796,-0.2660,
28.877269,2.3723,-1.7779,0.1114,-0.2179,-0.1796,-0.2660,
28.909206,2.3723,-1.7779,0.1114,-0.1616,0.1889,-0.1994,
28.942089,2.3723,-1.7779,0.1114,-0.1616,0.1889,-0.1994,
28.943991,-0.6694,-2.0716,-2.0646,-0.1616,0.1889,-0.1994,
28.973801,-0.6694,-2.0716,-2.0646,-0.8990,0.5928,0.3337,
29.007332,-0.6694,-2.0716,-2.0646,-0.8990,0.5928,0.3337,
29.009047,-3.6214,9.1352,0.4824,-0.8990,0.5928,0.3337,
29.039167,-3.6214,9.1352,0.4824,-0.9479,0.0435,0.2666,
29.073660,-3.6214,9.1352,0.4824,-0.9479,0.0435,0.2666,
29.075276,-0.6353,2.0494,0.1065,-0.9479,0.0435,0.2666,
29.105359,-0.6353,2.0494,0.1065,-1.1558,0.3850,-0.2251,
29.138374,-0.6353,2.0494,0.1065,-1.1558,0.3850,-0.2251,
29.140185,0.7740,-2.3833,-0.5502,-1.1558,0.3850,-0.2251,
29.171172,0.7740,-2.3833,-0.5502,-0.8569,0.9626,-0.2865,
29.203221,0.7740,-2.3833,-0.5502,-0.8569,0.9626,-0.2865,
29.204352,-1.0811,-1.6754,-0.1081,-0.8569,0.9626,-0.2865,
29.235449,-1.0811,-1.6754,-0.1081,-0.4166,0.4603,-0.0536,
29.268685,-1.0811,-1.6754,-0.1081,-0.4166,0.4603,-0.0536,
29.270123,-1.6809,-0.9511,0.9328,-0.4166,0.4603,-0.0536,
29.301551,-1.6809,-0.9511,0.9328,-0.3583,-0.2289,-0.0673,
29.334242,-1.6809,-0.9511,0.9328,-0.3583,-0.2289,-0.0673,
29.335883,0.1316,-1.1943,0.4038,-0.3583,-0.2289,-0.0673,
29.367399,0.1316,-1.1943,0.4038,-0.0536,0.0400,0.0014,
29.399442,0.1316,-1.1943,0.4038,-0.0536,0.0400,0.0014,
29.401298,0.3987,-1.0387,0.7760,-0.0536,0.0400,0.0014,
29.433186,0.3987,-1.0387,0.7760,0.1856,0.2941,0.1504,
29.467073,0.3987,-1.0387,0.7760,0.1856,0.2941,0.1504,
29.468685,-0.4384,-1.0794,1.2206,0.1856,0.2941,0.1504,
29.498116,-0.4384,-1.0794,1.2206,0.3732,0.2789,0.2578,
29.531677,-0.4384,-1.0794,1.2206,0.3732,0.2789,0.2578,
29.533254,-0.9701,-0.0509,0.9478,0.3732,0.2789,0.2578,
29.565533,-0.9701,-0.0509,0.9478,0.1200,0.0312,0.5035,
29.596309,-0.9701,-0.0509,0.9478,0.1200,0.0312,0.5035,
29.598062,-0.9134,1.2769,1.0052,0.1200,0.0312,0.5035,
29.628637,-0.9134,1.2769,1.0052,0.2370,-0.0255,0.2615,
29.661847,-0.9134,1.2769,1.0052,0.2370,-0.0255,0.2615,
29.662898,-1.0743,0.8348,0.7280,0.2370,-0.0255,0.2615,
29.694751,-1.0743,0.8348,0.7280,0.6658,-0.3806,0.2239,
29.727242,-1.0743,0.8348,0.7280,0.6658,-0.3806,0.2239,
29.728980,-0.4699,-0.1106,-1.2560,0.6658,-0.3806,0.2239,
29.760554,-0.4699,-0.1106,-1.2560,0.8607,-0.4884,0.1570,
29.792218,-0.4699,-0.1106,-1.2560,0.8607,-0.4884,0.1570,
29.793704,-0.3002,0.1379,-2.2744,0.8607,-0.4884,0.1570,
29.825288,-0.3002,0.1379,-2.2744,0.5585,-0.2647,0.2014,
29.857999,-0.3002,0.1379,-2.2744,0.5585,-0.2647,0.2014,
29.859725,-0.2017,-0.4224,-1.1691,0.5585,-0.2647,0.2014,
29.891275,-0.2017,-0.4224,-1.1691,0.4719,-0.3300,0.0681,
29.923051,-0.2017,-0.4224,-1.1691,0.4719,-0.3300,0.0681,
29.924457,0.1021,-0.4015,-1.2484,0.4719,-0.3300,0.0681,
29.956453,0.1021,-0.4015,-1.2484,0.3015,-0.1994,-0.0237,
29.988701,0.1021,-0.4015,-1.2484,0.3015,-0.1994,-0.0237,
29.990203,0.4374,-0.0291,-0.5967,0.3015,-0.1994,-0.0237,
30.020991,0.4374,-0.0291,-0.5967,0.3074,-0.1784,-0.0689,
30.054338,0.4374,-0.0291,-0.5967,0.3074,-0.1784,-0.0689,
30.055956,0.9089,0.1030,-0.6245,0.3074,-0.1784,-0.0689,
30.087772,0.9089,0.1030,-0.6245,0.2004,-0.0015,-0.2022,
30.121458,0.9089,0.1030,-0.6245,0.2004,-0.0015,-0.2022,
30.123226,0.9633,-0.3991,-0.4523,0.2004,-0.0015,-0.2022,
30.152213,0.9633,-0.3991,-0.4523,0.1203,0.2289,-0.2572,
30.185131,0.9633,-0.3991,-0.4523,0.1203,0.2289,-0.2572,
30.186966,0.7539,-0.1902,-0.1452,0.1203,0.2289,-0.2572,
30.218373,0.7539,-0.1902,-0.1452,0.1344,0.1900,-0.2138,
30.250725,0.7539,-0.1902,-0.1452,0.1344,0.1900,-0.2138,
30.252433,0.6256,0.0502,-0.3446,0.1344,0.1900,-0.2138,
30.283957,0.6256,0.0502,-0.3446,0.0521,0.0681,-0.1898,
30.316277,0.6256,0.0502,-0.3446,0.0521,0.0681,-0.1898,
30.318377,0.5247,-0.2566,0.1194,0.0521,0.0681,-0.1898,
30.349044,0.5247,-0.2566,0.1194,-0.0246,-0.2677,-0.1756,
30.382923,0.5247,-0.2566,0.1194,-0.0246,-0.2677,-0.1756,
30.384503,1.2563,-0.5154,0.2781,-0.0246,-0.2677,-0.1756,
30.415309,1.2563,-0.5154,0.2781,-0.1863,-0.3983,-0.1947,
30.447613,1.2563,-0.5154,0.2781,-0.1863,-0.3983,-0.1947,
30.449165,2.0933,-1.2862,-0.1360,-0.1863,-0.3983,-0.1947,
30.480655,2.0933,-1.2862,-0.1360,-0.3786,-0.2277,-0.1535,
30.513339,2.0933,-1.2862,-0.1360,-0.3786,-0.2277,-0.1535,
30.515263,0.8684,-1.5988,-1.9851,-0.3786,-0.2277,-0.1535,
30.545040,0.8684,-1.5988,-1.9851,-1.1306,0.4708,0.2514,
30.578509,0.8684,-1.5988,-1.9851,-1.1306,0.4708,0.2514,
30.580474,-3.1730,5.8991,1.5697,-1.1306,0.4708,0.2514,
30.611338,-3.1730,5.8991,1.5697,-1.0571,0.2178,0.1199,
30.644026,-3.1730,5.8991,1.5697,-1.0571,0.2178,0.1199,
30.645471,0.0673,3.2024,0.6687,-1.0571,0.2178,0.1199,
30.677659,0.0673,3.2024,0.6687,-1.1064,0.6952,0.2688,
30.711082,0.0673,3.2024,0.6687,-1.1064,0.6952,0.2688,
30.712658,1.2012,-1.7791,-0.4765,-1.1064,0.6952,0.2688,
30.742726,1.2012,-1.7791,-0.4765,-0.8709,1.4765,0.0333,
30.776209,1.2012,-1.7791,-0.4765,-0.8709,1.4765,0.0333,
30.777939,-0.6217,-1.0450,-0.6412,-0.8709,1.4765,0.0333,
30.807377,-0.6217,-1.0450,-0.6412,-0.5522,1.2585,-0.1000,
30.840694,-0.6217,-1.0450,-0.6412,-0.5522,1.2585,-0.1000,
30.842356,-1.7109,-0.8598,-0.0425,-0.5522,1.2585,-0.1000,
30.874126,-1.7109,-0.8598,-0.0425,-0.4577,0.5099,0.1303,
30.905390,-1.7109,-0.8598,-0.0425,-0.4577,0.5099,0.1303,
30.906988,-0.5562,-1.2345,0.0811,-0.4577,0.5099,0.1303,
30.937823,-0.5562,-1.2345,0.0811,-0.1817,0.4131,0.0684,
30.971594,-0.5562,-1.2345,0.0811,-0.1817,0.4131,0.0684,
30.973358,0.6387,-0.8479,0.0039,-0.1817,0.4131,0.0684,
31.003642,0.6387,-0.8479,0.0039,0.0104,0.5783,0.2214,
31.037803,0.6387,-0.8479,0.0039,0.0104,0.5783,0.2214,
31.039636,-0.0503,-1.0976,0.3748,0.0104,0.5783,0.2214,
31.069188,-0.0503,-1.0976,0.3748,0.1509,0.5373,0.3354,
31.103410,-0.0503,-1.0976,0.3748,0.1509,0.5373,0.3354,
31.104567,-0.1035,-0.7913,0.5976,0.1509,0.5373,0.3354,
31.134874,-0.1035,-0.7913,0.5976,0.3279,0.4595,0.4050,
31.167926,-0.1035,-0.7913,0.5976,0.3279,0.4595,0.4050,
31.169882,-0.4748,-0.4207,0.6594,0.3279,0.4595,0.4050,
31.200358,-0.4748,-0.4207,0.6594,0.1067,0.3329,0.4652,
31.234284,-0.4748,-0.4207,0.6594,0.1067,0.3329,0.4652,
31.236757,-1.1975,1.3343,0.3783,0.1067,0.3329,0.4652,
31.265043,-1.1975,1.3343,0.3783,-0.0254,0.2257,0.2621,
31.298165,-1.1975,1.3343,0.3783,-0.0254,0.2257,0.2621,
31.300030,-0.7808,0.4011,1.0486,-0.0254,0.2257,0.2621,
31.332022,-0.7808,0.4011,1.0486,0.2275,-0.0075,0.3496,
31.364509,-0.7808,0.4011,1.0486,0.2275,-0.0075,0.3496,
31.366111,-0.7399,0.8805,0.7686,0.2275,-0.0075,0.3496,
31.396649,-0.7399,0.8805,0.7686,0.5751,-0.3193,0.2668,
31.430228,-0.7399,0.8805,0.7686,0.5751,-0.3193,0.2668,
31.432410,-0.5219,0.1707,-0.1360,0.5751,-0.3193,0.2668,
31.462407,-0.5219,0.1707,-0.1360,0.8526,-0.4980,0.2040,
31.494850,-0.5219,0.1707,-0.1360,0.8526,-0.4980,0.2040,
31.496306,0.0931,-0.7112,-1.6239,0.8526,-0.4980,0.2040,
31.528142,0.0931,-0.7112,-1.6239,0.7906,-0.2734,0.1658,
31.562908,0.0931,-0.7112,-1.6239,0.7906,-0.2734,0.1658,
31.563896,0.5341,-0.3901,-1.9277,0.7906,-0.2734,0.1658,
31.594406,0.5341,-0.3901,-1.9277,0.5950,-0.0018,0.1891,
31.626141,0.5341,-0.3901,-1.9277,0.5950,-0.0018,0.1891,
31.626861,0.3924,-0.2709,-1.3419,0.5950,-0.0018,0.1891,
31.658441,0.3924,-0.2709,-1.3419,0.3807,0.0845,0.0121,
31.691446,0.3924,-0.2709,-1.3419,0.3807,0.0845,0.0121,
31.692361,0.1690,0.1576,-0.5630,0.3807,0.0845,0.0121,
31.723606,0.1690,0.1576,-0.5630,0.2471,-0.0414,-0.1368,
31.757252,0.1690,0.1576,-0.5630,0.2471,-0.0414,-0.1368,
31.761768,0.9859,0.0965,-0.3751,0.2471,-0.0414,-0.1368,
31.789506,0.9859,0.0965,-0.3751,0.2317,0.0999,-0.1585,
31.822914,0.9859,0.0965,-0.3751,0.2317,0.0999,-0.1585,
31.823962,1.2252,0.0272,-0.4169,0.2317,0.0999,-0.1585,
31.855019,1.2252,0.0272,-0.4169,0.2227,0.2237,-0.1961,
31.887458,1.2252,0.0272,-0.4169,0.2227,0.2237,-0.1961,
31.888607,0.7146,-0.1713,-0.1327,0.2227,0.2237,-0.1961,
31.920246,0.7146,-0.1713,-0.1327,0.1321,0.0370,-0.2506,
31.953384,0.7146,-0.1713,-0.1327,0.1321,0.0370,-0.2506,
31.955112,1.0307,-0.4259,-0.3432,0.1321,0.0370,-0.2506,
31.985861,1.0307,-0.4259,-0.3432,0.0269,-0.1587,-0.2694,
32.018041,1.0307,-0.4259,-0.3432,0.0269,-0.1587,-0.2694,
32.020017,1.5693,-0.4952,-0.1499,0.0269,-0.1587,-0.2694,
32.052159,1.5693,-0.4952,-0.1499,-0.1177,-0.3089,-0.2152,
32.083873,1.5693,-0.4952,-0.1499,-0.1177,-0.3089,-0.2152,
32.085680,2.4128,-0.9909,-0.0649,-0.1177,-0.3089,-0.2152,
32.117602,2.4128,-0.9909,-0.0649,-0.2511,-0.1411,-0.1307,
32.149802,2.4128,-0.9909,-0.0649,-0.2511,-0.1411,-0.1307,
32.152068,1.2487,-2.6698,-1.5562,-0.2511,-0.1411,-0.1307,
32.183194,1.2487,-2.6698,-1.5562,-0.7181,0.4690,0.4096,
32.214386,1.2487,-2.6698,-1.5562,-0.7181,0.4690,0.4096,
32.216182,-4.4478,5.1303,0.8361,-0.7181,0.4690,0.4096,
32.248045,-4.4478,5.1303,0.8361,-0.7946,0.0171,0.4154,
32.280085,-4.4478,5.1303,0.8361,-0.7946,0.0171,0.4154,
32.281350,-0.5530,4.4394,0.8929,-0.7946,0.0171,0.4154,
32.312451,-0.5530,4.4394,0.8929,-1.0241,0.2358,0.2246,
32.345983,-0.5530,4.4394,0.8929,-1.0241,0.2358,0.2246,
32.347316,0.8156,-0.9877,-0.7725,-1.0241,0.2358,0.2246,
32.378372,0.8156,-0.9877,-0.7725,-0.8937,1.3728,-0.0556,
32.411917,0.8156,-0.9877,-0.7725,-0.8937,1.3728,-0.0556,
32.413039,-1.0333,-0.6944,0.0104,-0.8937,1.3728,-0.0556,
32.445444,-1.0333,-0.6944,0.0104,-0.4872,0.8712,-0.0971,
32.477142,-1.0333,-0.6944,0.0104,-0.4872,0.8712,-0.0971,
32.478975,-1.4051,-1.2574,-0.1850,-0.4872,0.8712,-0.0971,
32.510748,-1.4051,-1.2574,-0.1850,-0.3537,0.3532,0.0507,
32.542245,-1.4051,-1.2574,-0.1850,-0.3537,0.3532,0.0507,
32.543976,-0.5319,-1.1398,0.0774,-0.3537,0.3532,0.0507,
32.576167,-0.5319,-1.1398,0.0774,-0.1613,0.2297,0.0796,
32.608891,-0.5319,-1.1398,0.0774,-0.1613,0.2297,0.0796,
32.610370,0.5190,-0.7334,0.3081,-0.1613,0.2297,0.0796,
32.640587,0.5190,-0.7334,0.3081,0.0420,0.4180,0.2601,
32.674011,0.5190,-0.7334,0.3081,0.0420,0.4180,0.2601,
32.676027,0.3467,-1.0922,0.2630,0.0420,0.4180,0.2601,
32.705854,0.3467,-1.0922,0.2630,0.1692,0.6162,0.2926,
32.739438,0.3467,-1.0922,0.2630,0.1692,0.6162,0.2926,
32.741036,0.3231,-0.8666,0.7219,0.1692,0.6162,0.2926,
32.770932,0.3231,-0.8666,0.7219,0.2923,0.6176,0.3230,
32.804797,0.3231,-0.8666,0.7219,0.2923,0.6176,0.3230,
32.806261,-0.0345,-0.4485,0.7393,0.2923,0.6176,0.3230,
32.836464,-0.0345,-0.4485,0.7393,0.2236,0.5324,0.4264,
32.870097,-0.0345,-0.4485,0.7393,0.2236,0.5324,0.4264,
32.872952,-1.0741,1.7119,0.4432,0.2236,0.5324,0.4264,
32.903303,-1.0741,1.7119,0.4432,0.1223,0.3372,0.1084,
32.936455,-1.0741,1.7119,0.4432,0.1223,0.3372,0.1084,
32.938004,-0.4777,0.2692,0.6130,0.1223,0.3372,0.1084,
32.968245,-0.4777,0.2692,0.6130,0.2518,0.2382,0.1521,
33.000837,-0.4777,0.2692,0.6130,0.2518,0.2382,0.1521,
33.003229,-0.2961,0.7377,0.0380,0.2518,0.2382,0.1521,
33.033084,-0.2961,0.7377,0.0380,0.5736,0.1762,0.0254,
33.067058,-0.2961,0.7377,0.0380,0.5736,0.1762,0.0254,
33.069302,-0.6498,0.9741,-0.6105,0.5736,0.1762,0.0254,
33.100328,-0.6498,0.9741,-0.6105,0.6402,-0.0751,0.0070,
33.131973,-0.6498,0.9741,-0.6105,0.6402,-0.0751,0.0070,
33.133648,-0.6212,-0.8973,-1.3092,0.6402,-0.0751,0.0070,
33.165421,-0.6212,-0.8973,-1.3092,0.6161,-0.2243,0.0719,
33.197455,-0.6212,-0.8973,-1.3092,0.6161,-0.2243,0.0719,
33.198502,-0.1923,-0.3645,-1.6789,0.6161,-0.2243,0.0719,
33.228809,-0.1923,-0.3645,-1.6789,0.4056,-0.3517,0.1139,
33.263619,-0.1923,-0.3645,-1.6789,0.4056,-0.3517,0.1139,
33.265044,-0.1809,-0.7423,-0.8554,0.4056,-0.3517,0.1139,
33.295641,-0.1809,-0.7423,-0.8554,0.3595,-0.3977,0.1811,
33.328231,-0.1809,-0.7423,-0.8554,0.3595,-0.3977,0.1811,
33.329257,0.3772,-0.2389,-0.3685,0.3595,-0.3977,0.1811,
33.360508,0.3772,-0.2389,-0.3685,0.3517,-0.2518,0.1026,
33.393615,0.3772,-0.2389,-0.3685,0.3517,-0.2518,0.1026,
33.394613,0.3824,0.1897,-0.3288,0.3517,-0.2518,0.1026,
33.426101,0.3824,0.1897,-0.3288,0.2576,-0.0599,-0.0163,
33.458644,0.3824,0.1897,-0.3288,0.2576,-0.0599,-0.0163,
33.460512,0.2491,0.0416,0.0558,0.2576,-0.0599,-0.0163,
33.491754,0.2491,0.0416,0.0558,0.1579,-0.0202,-0.0386,
33.525453,0.2491,0.0416,0.0558,0.1579,-0.0202,-0.0386,
33.527526,0.3530,-0.1177,0.0599,0.1579,-0.0202,-0.0386,
33.557456,0.3530,-0.1177,0.0599,0.1087,-0.0324,-0.0901,
33.591570,0.3530,-0.1177,0.0599,0.1087,-0.0324,-0.0901,
33.593366,0.6200,-0.0902,-0.0936,0.1087,-0.0324,-0.0901,
33.623271,0.6200,-0.0902,-0.0936,0.0507,-0.0458,-0.1489,
33.655543,0.6200,-0.0902,-0.0936,0.0507,-0.0458,-0.1489,
33.657229,0.8544,-0.1316,-0.1122,0.0507,-0.0458,-0.1489,
33.688249,0.8544,-0.1316,-0.1122,-0.0229,-0.0834,-0.1576,
33.721729,0.8544,-0.1316,-0.1122,-0.0229,-0.0834,-0.1576,
33.723647,1.0756,-0.4263,0.1459,-0.0229,-0.0834,-0.1576,
33.755384,1.0756,-0.4263,0.1459,-0.0777,-0.2092,-0.1431,
33.786650,1.0756,-0.4263,0.1459,-0.0777,-0.2092,-0.1431,
33.788635,1.6622,-0.8778,0.1863,-0.0777,-0.2092,-0.1431,
33.818128,1.6622,-0.8778,0.1863,-0.1707,-0.1707,-0.1303,
33.852155,1.6622,-0.8778,0.1863,-0.1707,-0.1707,-0.1303,
33.854597,2.1735,-1.5792,-0.0520,-0.1707,-0.1707,-0.1303,
33.883848,2.1735,-1.5792,-0.0520,-0.2421,0.1969,-0.0203,
33.917101,2.1735,-1.5792,-0.0520,-0.2421,0.1969,-0.0203,
33.918665,-1.3226,0.4992,-1.1987,-0.2421,0.1969,-0.0203,
33.950491,-1.3226,0.4992,-1.1987,-0.6087,0.6758,0.7848,
33.983408,-1.3226,0.4992,-1.1987,-0.6087,0.6758,0.7848,
33.985347,-2.9863,6.2192,0.2869,-0.6087,0.6758,0.7848,
34.015181,-2.9863,6.2192,0.2869,-0.9077,-0.3062,0.2653,
34.048554,-2.9863,6.2192,0.2869,-0.9077,-0.3062,0.2653,
34.049662,0.1137,0.2452,-0.4192,-0.9077,-0.3062,0.2653,
34.080677,0.1137,0.2452,-0.4192,-1.0629,0.5224,-0.1964,
34.115008,0.1137,0.2452,-0.4192,-1.0629,0.5224,-0.1964,
34.116822,0.4457,-0.8145,-0.1803,-1.0629,0.5224,-0.1964,
34.145962,0.4457,-0.8145,-0.1803,-0.8083,0.9809,-0.2301,
34.178896,0.4457,-0.8145,-0.1803,-0.8083,0.9809,-0.2301,
34.180523,-1.1104,-0.2464,-0.2226,-0.8083,0.9809,-0.2301,
34.210969,-1.1104,-0.2464,-0.2226,-0.5376,0.5710,0.0055,
34.246644,-1.1104,-0.2464,-0.2226,-0.5376,0.5710,0.0055,
34.248724,-1.2838,-1.1502,-0.1923,-0.5376,0.5710,0.0055,
34.277823,-1.2838,-1.1502,-0.1923,-0.4588,0.3227,-0.0823,
34.311251,-1.2838,-1.1502,-0.1923,-0.4588,0.3227,-0.0823,
34.312891,-0.2303,-0.4248,0.0772,-0.4588,0.3227,-0.0823,
34.342920,-0.2303,-0.4248,0.0772,-0.2472,0.3137,0.0162,
34.376416,-0.2303,-0.4248,0.0772,-0.2472,0.3137,0.0162,
34.378433,-0.0163,-0.8074,0.0882,-0.2472,0.3137,0.0162,
34.409606,-0.0163,-0.8074,0.0882,-0.0385,0.3740,0.0547,
34.443737,-0.0163,-0.8074,0.0882,-0.0385,0.3740,0.0547,
34.445230,-0.2511,-1.2151,0.3854,-0.0385,0.3740,0.0547,
34.476103,-0.2511,-1.2151,0.3854,0.1298,0.3271,0.0664,
34.507540,-0.2511,-1.2151,0.3854,0.1298,0.3271,0.0664,
34.509103,-0.1157,-0.9941,0.7258,0.1298,0.3271,0.0664,
34.540750,-0.1157,-0.9941,0.7258,0.2630,0.1985,0.1579,
34.574384,-0.1157,-0.9941,0.7258,0.2630,0.1985,0.1579,
34.576448,-0.1112,-0.6206,0.9382,0.2630,0.1985,0.1579,
34.604940,-0.1112,-0.6206,0.9382,0.2451,0.1958,0.2184,
34.637903,-0.1112,-0.6206,0.9382,0.2451,0.1958,0.2184,
34.639785,-0.5277,0.5855,0.8360,0.2451,0.1958,0.2184,
34.671310,-0.5277,0.5855,0.8360,0.1130,0.0942,0.1878,
34.703384,-0.5277,0.5855,0.8360,0.1130,0.0942,0.1878,
34.704921,-0.4534,0.7580,1.1789,0.1130,0.0942,0.1878,
34.735520,-0.4534,0.7580,1.1789,0.0732,0.0278,0.0677,
34.768032,-0.4534,0.7580,1.1789,0.0732,0.0278,0.0677,
34.769173,-0.0751,-0.0768,0.9398,0.0732,0.0278,0.0677,
34.801939,-0.0751,-0.0768,0.9398,0.5165,-0.2422,-0.0257,
34.835716,-0.0751,-0.0768,0.9398,0.5165,-0.2422,-0.0257,
34.837827,-0.7119,1.5613,-0.2393,0.5165,-0.2422,-0.0257,
34.867022,-0.7119,1.5613,-0.2393,0.7830,-0.6449,-0.1127,
34.899832,-0.7119,1.5613,-0.2393,0.7830,-0.6449,-0.1127,
34.901288,-0.1331,0.0303,-1.4909,0.7830,-0.6449,-0.1127,
34.933207,-0.1331,0.0303,-1.4909,0.8013,-0.6318,0.0794,
34.966381,-0.1331,0.0303,-1.4909,0.8013,-0.6318,0.0794,
34.968308,0.0459,-1.2008,-1.5499,0.8013,-0.6318,0.0794,
34.997773,0.0459,-1.2008,-1.5499,0.6808,-0.4152,0.2214,
35.031992,0.0459,-1.2008,-1.5499,0.6808,-0.4152,0.2214,
35.033278,-0.1006,-0.3830,-0.9371,0.6808,-0.4152,0.2214,
35.063028,-0.1006,-0.3830,-0.9371,0.4850,-0.3004,0.1593,
35.096543,-0.1006,-0.3830,-0.9371,0.4850,-0.3004,0.1593,
35.097756,0.1926,-0.3461,-0.4131,0.4850,-0.3004,0.1593,
35.128613,0.1926,-0.3461,-0.4131,0.4296,-0.1633,0.0640,
35.162118,0.1926,-0.3461,-0.4131,0.4296,-0.1633,0.0640,
35.163386,0.5372,-0.1015,-0.7551,0.4296,-0.1633,0.0640,
35.195248,0.5372,-0.1015,-0.7551,0.2644,0.0677,-0.0394,
35.227203,0.5372,-0.1015,-0.7551,0.2644,0.0677,-0.0394,
35.228729,0.3026,0.2357,-0.3163,0.2644,0.0677,-0.0394,
35.264607,0.3026,0.2357,-0.3163,0.0947,0.0643,-0.1219,
35.292900,0.3026,0.2357,-0.3163,0.0947,0.0643,-0.1219,
35.294065,0.4581,-0.1453,0.0449,0.0947,0.0643,-0.1219,
35.325499,0.4581,-0.1453,0.0449,0.0945,0.0099,-0.1732,
35.358489,0.4581,-0.1453,0.0449,0.0945,0.0099,-0.1732,
35.360121,0.9491,-0.1902,-0.3313,0.0945,0.0099,-0.1732,
35.391395,0.9491,-0.1902,-0.3313,0.0846,0.0272,-0.2178,
35.423823,0.9491,-0.1902,-0.3313,0.0846,0.0272,-0.2178,
35.425423,1.0433,-0.2148,-0.1185,0.0846,0.0272,-0.2178,
35.455826,1.0433,-0.2148,-0.1185,-0.0116,-0.0608,-0.2248,
35.488913,1.0433,-0.2148,-0.1185,-0.0116,-0.0608,-0.2248,
35.490571,1.3168,-0.6226,0.2871,-0.0116,-0.0608,-0.2248,
35.521256,1.3168,-0.6226,0.2871,-0.1248,-0.1536,-0.1854,
35.555353,1.3168,-0.6226,0.2871,-0.1248,-0.1536,-0.1854,
35.556887,2.2605,-1.0298,0.3439,-0.1248,-0.1536,-0.1854,
35.587489,2.2605,-1.0298,0.3439,-0.2668,0.1058,-0.1174,
35.620895,2.2605,-1.0298,0.3439,-0.2668,0.1058,-0.1174,
35.622360,2.3581,-1.8607,-0.5326,-0.2668,0.1058,-0.1174,
35.653509,2.3581,-1.8607,-0.5326,-0.3693,0.7242,0.1373,
35.685593,2.3581,-1.8607,-0.5326,-0.3693,0.7242,0.1373,
35.687515,-2.9806,3.2871,-1.4511,-0.3693,0.7242,0.1373,
35.717320,-2.9806,3.2871,-1.4511,-0.8219,0.9500,0.5231,
35.751641,-2.9806,3.2871,-1.4511,-0.8219,0.9500,0.5231,
35.753202,-2.2493,4.8414,0.7190,-0.8219,0.9500,0.5231,
35.782414,-2.2493,4.8414,0.7190,-1.0406,0.1956,0.2789,
35.815353,-2.2493,4.8414,0.7190,-1.0406,0.1956,0.2789,
35.817025,0.5058,-0.3538,-1.2381,-1.0406,0.1956,0.2789,
35.848857,0.5058,-0.3538,-1.2381,-1.1309,1.0812,-0.0116,
35.882529,0.5058,-0.3538,-1.2381,-1.1309,1.0812,-0.0116,
35.885111,-0.4976,-0.5266,0.0474,-1.1309,1.0812,-0.0116,
35.915195,-0.4976,-0.5266,0.0474,-0.7014,0.9475,0.0516,
35.948449,-0.4976,-0.5266,0.0474,-0.7014,0.9475,0.0516,
35.950490,-1.0876,-0.6988,-0.1972,-0.7014,0.9475,0.0516,
35.979938,-1.0876,-0.6988,-0.1972,-0.4462,0.5350,0.0414,
36.012544,-1.0876,-0.6988,-0.1972,-0.4462,0.5350,0.0414,
36.014535,-0.6584,-1.2286,-0.2154,-0.4462,0.5350,0.0414,
36.044824,-0.6584,-1.2286,-0.2154,-0.2356,0.4136,-0.0137,
36.079192,-0.6584,-1.2286,-0.2154,-0.2356,0.4136,-0.0137,
36.081508,-0.3342,-0.8632,0.1678,-0.2356,0.4136,-0.0137,
36.111530,-0.3342,-0.8632,0.1678,-0.0086,0.2975,0.1338,
36.143308,-0.3342,-0.8632,0.1678,-0.0086,0.2975,0.1338,
36.144760,-0.0845,-0.7243,0.3306,-0.0086,0.2975,0.1338,
36.177238,-0.0845,-0.7243,0.3306,0.0742,0.2425,0.2022,
36.207950,-0.0845,-0.7243,0.3306,0.0742,0.2425,0.2022,
36.208914,0.0955,-0.6889,0.4026,0.0742,0.2425,0.2022,
36.241015,0.0955,-0.6889,0.4026,0.1704,0.3152,0.2140,
36.273801,0.0955,-0.6889,0.4026,0.1704,0.3152,0.2140,
36.275438,0.1107,-0.7311,0.6965,0.1704,0.3152,0.2140,
36.306282,0.1107,-0.7311,0.6965,0.2821,0.3807,0.2263,
36.339367,0.1107,-0.7311,0.6965,0.2821,0.3807,0.2263,
36.340411,-0.1727,-0.1227,0.6674,0.2821,0.3807,0.2263,
36.371643,-0.1727,-0.1227,0.6674,0.2205,0.4117,0.2195,
36.404776,-0.1727,-0.1227,0.6674,0.2205,0.4117,0.2195,
36.406640,-0.3054,0.9096,1.0681,0.2205,0.4117,0.2195,
36.437124,-0.3054,0.9096,1.0681,0.1338,0.2080,0.1878,
36.470179,-0.3054,0.9096,1.0681,0.1338,0.2080,0.1878,
36.471761,-0.1620,0.1878,1.3030,0.1338,0.2080,0.1878,
36.502650,-0.1620,0.1878,1.3030,0.3855,-0.0539,0.0939,
36.535946,-0.1620,0.1878,1.3030,0.3855,-0.0539,0.0939,
36.537469,-0.8103,0.6168,0.3601,0.3855,-0.0539,0.0939,
36.568354,-0.8103,0.6168,0.3601,0.7868,-0.5932,-0.0078,
36.600561,-0.8103,0.6168,0.3601,0.7868,-0.5932,-0.0078,
36.601730,-0.1188,0.7395,-1.1808,0.7868,-0.5932,-0.0078,
36.633850,-0.1188,0.7395,-1.1808,0.8320,-0.6384,-0.0160,
36.666256,-0.1188,0.7395,-1.1808,0.8320,-0.6384,-0.0160,
36.667440,0.6882,0.1533,-2.2355,0.8320,-0.6384,-0.0160,
36.699176,0.6882,0.1533,-2.2355,0.5979,-0.1159,-0.0793,
36.732601,0.6882,0.1533,-2.2355,0.5979,-0.1159,-0.0793,
36.733733,-0.3044,-0.6670,-1.1774,0.5979,-0.1159,-0.0793,
36.764681,-0.3044,-0.6670,-1.1774,0.4424,-0.1472,-0.0860,
36.797152,-0.3044,-0.6670,-1.1774,0.4424,-0.1472,-0.0860,
36.798200,-0.6952,-0.5303,-0.3923,0.4424,-0.1472,-0.0860,
36.830211,-0.6952,-0.5303,-0.3923,0.4559,-0.3691,0.0338,
36.863136,-0.6952,-0.5303,-0.3923,0.4559,-0.3691,0.0338,
36.864625,0.2113,-0.5562,-0.4882,0.4559,-0.3691,0.0338,
36.896219,0.2113,-0.5562,-0.4882,0.3769,-0.2705,-0.0518,
36.929166,0.2113,-0.5562,-0.4882,0.3769,-0.2705,-0.0518,
36.930951,0.5954,-0.3884,-0.2898,0.3769,-0.2705,-0.0518,
36.961759,0.5954,-0.3884,-0.2898,0.2651,-0.1489,-0.2217,
36.995179,0.5954,-0.3884,-0.2898,0.2651,-0.1489,-0.2217,
36.997065,0.6338,-0.0732,0.0768,0.2651,-0.1489,-0.2217,
37.027063,0.6338,-0.0732,0.0768,0.1339,-0.2308,-0.2935,
37.060210,0.6338,-0.0732,0.0768,0.1339,-0.2308,-0.2935,
37.061931,1.1880,-0.1707,0.0848,0.1339,-0.2308,-0.2935,
37.091737,1.1880,-0.1707,0.0848,0.0505,-0.2471,-0.3268,
37.125317,1.1880,-0.1707,0.0848,0.0505,-0.2471,-0.3268,
37.126625,1.3430,-0.3032,0.0260,0.0505,-0.2471,-0.3268,
37.157680,1.3430,-0.3032,0.0260,-0.0009,-0.3708,-0.3212,
37.190918,1.3430,-0.3032,0.0260,-0.0009,-0.3708,-0.3212,
37.192640,1.5532,-0.9053,-0.0458,-0.0009,-0.3708,-0.3212,
37.224023,1.5532,-0.9053,-0.0458,-0.1939,-0.6321,-0.2265,
37.255675,1.5532,-0.9053,-0.0458,-0.1939,-0.6321,-0.2265,
37.257175,1.9287,-2.1462,-0.4415,-0.1939,-0.6321,-0.2265,
37.288916,1.9287,-2.1462,-0.4415,-0.4433,-0.5386,0.0828,
37.322544,1.9287,-2.1462,-0.4415,-0.4433,-0.5386,0.0828,
37.324299,-2.4590,-0.2064,-2.2406,-0.4433,-0.5386,0.0828,
37.354283,-2.4590,-0.2064,-2.2406,-0.8273,0.3300,0.5319,
37.386944,-2.4590,-0.2064,-2.2406,-0.8273,0.3300,0.5319,
37.388410,-3.0490,6.9930,1.2319,-0.8273,0.3300,0.5319,
37.419451,-3.0490,6.9930,1.2319,-0.9416,-0.4809,0.2695,
37.452916,-3.0490,6.9930,1.2319,-0.9416,-0.4809,0.2695,
37.454450,-0.2985,1.5352,-0.1542,-0.9416,-0.4809,0.2695,
37.485458,-0.2985,1.5352,-0.1542,-1.0799,0.4571,-0.0771,
37.518088,-0.2985,1.5352,-0.1542,-1.0799,0.4571,-0.0771,
37.519813,0.4033,-0.7681,-0.3470,-1.0799,0.4571,-0.0771,
37.551904,0.4033,-0.7681,-0.3470,-0.7419,0.5486,-0.1718,
37.583989,0.4033,-0.7681,-0.3470,-0.7419,0.5486,-0.1718,
37.585189,-1.4972,-1.4432,-0.1406,-0.7419,0.5486,-0.1718,
37.616081,-1.4972,-1.4432,-0.1406,-0.3077,0.1252,-0.1561,
37.648813,-1.4972,-1.4432,-0.1406,-0.3077,0.1252,-0.1561,
37.650540,-0.9986,-1.3813,-0.0781,-0.3077,0.1252,-0.1561,
37.681853,-0.9986,-1.3813,-0.0781,-0.2938,-0.1420,-0.1132,
37.714305,-0.9986,-1.3813,-0.0781,-0.2938,-0.1420,-0.1132,
37.715783,0.0851,-0.9625,0.1269,-0.2938,-0.1420,-0.1132,
37.747290,0.0851,-0.9625,0.1269,0.0324,-0.0174,0.0226,
37.780107,0.0851,-0.9625,0.1269,0.0324,-0.0174,0.0226,
37.781613,0.2264,-0.8380,0.4386,0.0324,-0.0174,0.0226,
37.812902,0.2264,-0.8380,0.4386,0.0950,0.1594,0.1072,
37.846007,0.2264,-0.8380,0.4386,0.0950,0.1594,0.1072,
37.847663,0.1670,-0.8883,0.7728,0.0950,0.1594,0.1072,
37.877610,0.1670,-0.8883,0.7728,0.2373,0.3279,0.1643,
37.910351,0.1670,-0.8883,0.7728,0.2373,0.3279,0.1643,
37.911589,-0.0374,-0.5324,0.7745,0.2373,0.3279,0.1643,
37.942720,-0.0374,-0.5324,0.7745,0.1388,0.3105,0.2992,
37.976906,-0.0374,-0.5324,0.7745,0.1388,0.3105,0.2992,
37.978608,-1.2684,1.2691,0.2896,0.1388,0.3105,0.2992,
38.009130,-1.2684,1.2691,0.2896,0.0945,0.0809,0.1095,
38.043461,-1.2684,1.2691,0.2896,0.0945,0.0809,0.1095,
38.045309,-0.2696,-0.3208,0.7536,0.0945,0.0809,0.1095,
38.074503,-0.2696,-0.3208,0.7536,0.1009,0.1857,0.1008,
38.108887,-0.2696,-0.3208,0.7536,0.1009,0.1857,0.1008,
38.110549,-0.2681,-0.0492,0.4834,0.1009,0.1857,0.1008,
38.140557,-0.2681,-0.0492,0.4834,0.3393,0.1121,0.0553,
38.173263,-0.2681,-0.0492,0.4834,0.3393,0.1121,0.0553,
38.174886,-0.9404,0.6300,0.5323,0.3393,0.1121,0.0553,
38.205371,-0.9404,0.6300,0.5323,0.4743,-0.2555,0.0008,
38.239214,-0.9404,0.6300,0.5323,0.4743,-0.2555,0.0008,
38.240738,-0.9540,0.1723,0.3336,0.4743,-0.2555,0.0008,
38.272503,-0.9540,0.1723,0.3336,0.6367,-0.5921,-0.0205,
38.304274,-0.9540,0.1723,0.3336,0.6367,-0.5921,-0.0205,
38.306180,-0.4302,0.2821,-0.7283,0.6367,-0.5921,-0.0205,
38.336941,-0.4302,0.2821,-0.7283,0.6901,-0.6721,-0.0428,
38.369192,-0.4302,0.2821,-0.7283,0.6901,-0.6721,-0.0428,
38.370151,0.1676,-0.4726,-1.2980,0.6901,-0.6721,-0.0428,
38.401727,0.1676,-0.4726,-1.2980,0.5397,-0.5310,0.1067,
38.434634,0.1676,-0.4726,-1.2980,0.5397,-0.5310,0.1067,
38.435894,0.4992,-0.5565,-0.9902,0.5397,-0.5310,0.1067,
38.466991,0.4992,-0.5565,-0.9902,0.4690,-0.3864,0.0374,
38.499904,0.4992,-0.5565,-0.9902,0.4690,-0.3864,0.0374,
38.501686,0.2549,0.0361,-0.3401,0.4690,-0.3864,0.0374,
38.533241,0.2549,0.0361,-0.3401,0.3531,-0.4786,0.0767,
38.565668,0.2549,0.0361,-0.3401,0.3531,-0.4786,0.0767,
38.567361,0.7453,-0.3572,-0.2999,0.3531,-0.4786,0.0767,
38.598347,0.7453,-0.3572,-0.2999,0.2480,-0.3529,-0.0064,
38.631894,0.7453,-0.3572,-0.2999,0.2480,-0.3529,-0.0064,
38.633778,0.7379,-0.5009,-0.0692,0.2480,-0.3529,-0.0064,
38.664626,0.7379,-0.5009,-0.0692,0.1655,-0.2466,-0.0896,
38.697215,0.7379,-0.5009,-0.0692,0.1655,-0.2466,-0.0896,
38.699269,0.7683,-0.3075,0.0690,0.1655,-0.2466,-0.0896,
38.730352,0.7683,-0.3075,0.0690,0.0594,-0.2228,-0.1268,
38.762202,0.7683,-0.3075,0.0690,0.0594,-0.2228,-0.1268,
38.764278,1.0290,-0.4142,0.1476,0.0594,-0.2228,-0.1268,
38.794580,1.0290,-0.4142,0.1476,-0.0176,-0.2746,-0.1807,
38.827850,1.0290,-0.4142,0.1476,-0.0176,-0.2746,-0.1807,
38.829511,1.2955,-0.9363,-0.0469,-0.0176,-0.2746,-0.1807,
38.860005,1.2955,-0.9363,-0.0469,-0.0759,-0.2259,-0.2384,
38.894695,1.2955,-0.9363,-0.0469,-0.0759,-0.2259,-0.2384,
38.896381,1.6461,-1.6193,0.1749,-0.0759,-0.2259,-0.2384,
38.926014,1.6461,-1.6193,0.1749,-0.0438,-0.2828,-0.2448,
38.958588,1.6461,-1.6193,0.1749,-0.0438,-0.2828,-0.2448,
38.959487,-1.2184,-0.2734,-2.3312,-0.0438,-0.2828,-0.2448,
38.992033,-1.2184,-0.2734,-2.3312,-0.5476,0.3509,0.3702,
39.025815,-1.2184,-0.2734,-2.3312,-0.5476,0.3509,0.3702,
39.028105,-2.2566,5.1912,0.0798,-0.5476,0.3509,0.3702,
39.056663,-2.2566,5.1912,0.0798,-0.7234,-0.5848,0.3893,
39.089985,-2.2566,5.1912,0.0798,-0.7234,-0.5848,0.3893,
39.091665,-0.6290,1.0954,-0.2471,-0.7234,-0.5848,0.3893,
39.123494,-0.6290,1.0954,-0.2471,-0.9925,0.2059,0.1578,
39.155866,-0.6290,1.0954,-0.2471,-0.9925,0.2059,0.1578,
39.157527,-0.2984,-0.0263,0.2328,-0.9925,0.2059,0.1578,
39.189997,-0.2984,-0.0263,0.2328,-0.7981,0.3706,-0.1527,
39.220784,-0.2984,-0.0263,0.2328,-0.7981,0.3706,-0.1527,
39.222201,-1.2339,-0.1300,-0.5153,-0.7981,0.3706,-0.1527,
39.252730,-1.2339,-0.1300,-0.5153,-0.4598,0.1219,-0.0038,
39.286574,-1.2339,-0.1300,-0.5153,-0.4598,0.1219,-0.0038,
39.288220,-0.7328,-1.5045,-0.4921,-0.4598,0.1219,-0.0038,
39.319589,-0.7328,-1.5045,-0.4921,-0.4027,0.0293,-0.1147,
39.352671,-0.7328,-1.5045,-0.4921,-0.4027,0.0293,-0.1147,
39.354356,0.0332,-0.8605,0.0620,-0.4027,0.0293,-0.1147,
39.385013,0.0332,-0.8605,0.0620,-0.0194,0.0476,-0.0574,
39.417067,0.0332,-0.8605,0.0620,-0.0194,0.0476,-0.0574,
39.419043,0.5138,-0.9011,0.0082,-0.0194,0.0476,-0.0574,
39.450321,0.5138,-0.9011,0.0082,0.0994,0.3041,0.0559,
39.483238,0.5138,-0.9011,0.0082,0.0994,0.3041,0.0559,
39.485271,0.1609,-0.7670,0.2984,0.0994,0.3041,0.0559,
39.514650,0.1609,-0.7670,0.2984,0.1529,0.4074,0.1237,
39.547993,0.1609,-0.7670,0.2984,0.1529,0.4074,0.1237,
39.549538,-0.6756,0.0094,0.5830,0.1529,0.4074,0.1237,
39.580833,-0.6756,0.0094,0.5830,0.1013,0.2592,0.1588,
39.614323,-0.6756,0.0094,0.5830,0.1013,0.2592,0.1588,
39.615972,-0.8396,0.1860,0.7263,0.1013,0.2592,0.1588,
39.646151,-0.8396,0.1860,0.7263,0.0654,0.0832,0.1060,
39.679436,-0.8396,0.1860,0.7263,0.0654,0.0832,0.1060,
39.681140,-0.4998,0.1748,0.5672,0.0654,0.0832,0.1060,
39.712005,-0.4998,0.1748,0.5672,0.1199,0.0281,0.0305,
39.746688,-0.4998,0.1748,0.5672,0.1199,0.0281,0.0305,
39.748765,-0.0571,0.4218,0.5140,0.1199,0.0281,0.0305,
39.779174,-0.0571,0.4218,0.5140,0.1437,0.0904,-0.0170,
39.810530,-0.0571,0.4218,0.5140,0.1437,0.0904,-0.0170,
39.811514,-0.0341,0.5459,0.4652,0.1437,0.0904,-0.0170,
39.842301,-0.0341,0.5459,0.4652,0.3577,-0.0745,-0.0538,
39.876089,-0.0341,0.5459,0.4652,0.3577,-0.0745,-0.0538,
39.877574,-0.3175,0.5248,0.0120,0.3577,-0.0745,-0.0538,
39.908816,-0.3175,0.5248,0.0120,0.4693,-0.2805,-0.0666,
39.941812,-0.3175,0.5248,0.0120,0.4693,-0.2805,-0.0666,
39.945635,-0.1470,0.3608,-0.3784,0.4693,-0.2805,-0.0666,
39.973313,-0.1470,0.3608,-0.3784,0.4974,-0.3722,0.0883,
40.007106,-0.1470,0.3608,-0.3784,0.4974,-0.3722,0.0883,
40.008647,-0.2217,-0.3273,-0.8364,0.4974,-0.3722,0.0883,
40.040898,-0.2217,-0.3273,-0.8364,0.4899,-0.2943,0.0887,
40.072847,-0.2217,-0.3273,-0.8364,0.4899,-0.2943,0.0887,
40.075121,-0.3193,-0.8128,-0.8677,0.4899,-0.2943,0.0887,
40.104083,-0.3193,-0.8128,-0.8677,0.4788,-0.2343,0.0872,
40.139951,-0.3193,-0.8128,-0.8677,0.4788,-0.2343,0.0872,
40.142235,-0.3072,-0.3006,-0.7277,0.4788,-0.2343,0.0872,
40.171918,-0.3072,-0.3006,-0.7277,0.3479,-0.3270,0.0098,
40.204951,-0.3072,-0.3006,-0.7277,0.3479,-0.3270,0.0098,
40.207244,-0.3087,-0.1457,-0.3115,0.3479,-0.3270,0.0098,
40.236007,-0.3087,-0.1457,-0.3115,0.2566,-0.4552,-0.0363,
40.269269,-0.3087,-0.1457,-0.3115,0.2566,-0.4552,-0.0363,
40.271124,0.3529,0.0305,-0.1011,0.2566,-0.4552,-0.0363,
40.302069,0.3529,0.0305,-0.1011,0.1614,-0.3389,-0.0788,
40.335307,0.3529,0.0305,-0.1011,0.1614,-0.3389,-0.0788,
40.336895,0.7435,-0.2620,-0.1519,0.1614,-0.3389,-0.0788,
40.367677,0.7435,-0.2620,-0.1519,0.0360,-0.0970,-0.2191,
40.399747,0.7435,-0.2620,-0.1519,0.0360,-0.0970,-0.2191,
40.401248,0.5891,-0.3529,-0.2890,0.0360,-0.0970,-0.2191,
40.432680,0.5891,-0.3529,-0.2890,-0.0644,0.0402,-0.3290,
40.465625,0.5891,-0.3529,-0.2890,-0.0644,0.0402,-0.3290,
40.468170,0.3711,-0.3380,0.0722,-0.0644,0.0402,-0.3290,
40.498106,0.3711,-0.3380,0.0722,-0.1477,-0.0052,-0.4351,
40.531734,0.3711,-0.3380,0.0722,-0.1477,-0.0052,-0.4351,
40.533856,1.1247,-0.0806,-0.2750,-0.1477,-0.0052,-0.4351,
40.563522,1.1247,-0.0806,-0.2750,-0.3033,0.1506,-0.4862,
40.597643,1.1247,-0.0806,-0.2750,-0.3033,0.1506,-0.4862,
40.600034,1.2998,-0.0699,-0.3080,-0.3033,0.1506,-0.4862,
40.627973,1.2998,-0.0699,-0.3080,-0.3833,0.2944,-0.2720,
40.661451,1.2998,-0.0699,-0.3080,-0.3833,0.2944,-0.2720,
40.663222,1.0264,-0.5307,-0.8317,-0.3833,0.2944,-0.2720,
40.695375,1.0264,-0.5307,-0.8317,-0.2885,0.5082,-0.1347,
40.727355,1.0264,-0.5307,-0.8317,-0.2885,0.5082,-0.1347,
40.729376,-1.5420,-0.2327,-0.9746,-0.2885,0.5082,-0.1347,
40.761792,-1.5420,-0.2327,-0.9746,-0.2769,0.4475,0.1712,
40.793578,-1.5420,-0.2327,-0.9746,-0.2769,0.4475,0.1712,
40.796328,-0.9875,3.1676,0.4990,-0.2769,0.4475,0.1712,
40.827247,-0.9875,3.1676,0.4990,-0.6132,-0.1622,0.2795,
40.859346,-0.9875,3.1676,0.4990,-0.6132,-0.1622,0.2795,
40.861254,-0.2380,0.4022,0.3110,-0.6132,-0.1622,0.2795,
40.890518,-0.2380,0.4022,0.3110,-0.7767,0.1831,0.2277,
40.922859,-0.2380,0.4022,0.3110,-0.7767,0.1831,0.2277,
40.924543,-0.1386,-0.2401,0.5995,-0.7767,0.1831,0.2277,
40.955956,-0.1386,-0.2401,0.5995,-0.6996,0.0779,0.0469,
40.988982,-0.1386,-0.2401,0.5995,-0.6996,0.0779,0.0469,
40.990481,-0.9439,-0.3020,0.2044,-0.6996,0.0779,0.0469,
41.021179,-0.9439,-0.3020,0.2044,-0.5449,-0.1513,0.1086,
41.054735,-0.9439,-0.3020,0.2044,-0.5449,-0.1513,0.1086,
41.056448,-0.6543,-1.2788,0.3749,-0.5449,-0.1513,0.1086,
41.086834,-0.6543,-1.2788,0.3749,-0.3432,-0.2257,0.0139,
41.120074,-0.6543,-1.2788,0.3749,-0.3432,-0.2257,0.0139,
41.121676,0.0660,-1.1200,0.3142,-0.3432,-0.2257,0.0139,
41.152166,0.0660,-1.1200,0.3142,-0.0560,-0.1222,0.0221,
41.186317,0.0660,-1.1200,0.3142,-0.0560,-0.1222,0.0221,
41.188244,0.6191,-1.2855,0.1546,-0.0560,-0.1222,0.0221,
41.218967,0.6191,-1.2855,0.1546,0.1455,0.2459,0.0831,
41.250339,0.6191,-1.2855,0.1546,0.1455,0.2459,0.0831,
41.252245,0.1018,-0.6158,0.6674,0.1455,0.2459,0.0831,
41.285356,0.1018,-0.6158,0.6674,0.2349,0.2862,0.1972,
41.316228,0.1018,-0.6158,0.6674,0.2349,0.2862,0.1972,
41.317935,-0.2763,-0.2205,0.8972,0.2349,0.2862,0.1972,
41.350035,-0.2763,-0.2205,0.8972,0.1848,0.1429,0.2694,
41.382251,-0.2763,-0.2205,0.8972,0.1848,0.1429,0.2694,
41.384040,-0.3460,0.5006,0.7467,0.1848,0.1429,0.2694,
41.413446,-0.3460,0.5006,0.7467,0.0279,0.1003,0.1547,
41.447138,-0.3460,0.5006,0.7467,0.0279,0.1003,0.1547,
41.448801,-0.5810,0.1178,1.0904,0.0279,0.1003,0.1547,
41.479506,-0.5810,0.1178,1.0904,0.0673,0.0638,0.1113,
41.513341,-0.5810,0.1178,1.0904,0.0673,0.0638,0.1113,
41.514492,-0.5085,0.7038,1.0670,0.0673,0.0638,0.1113,
41.546412,-0.5085,0.7038,1.0670,0.3137,-0.1758,0.0753,
41.577891,-0.5085,0.7038,1.0670,0.3137,-0.1758,0.0753,
41.579081,-0.7308,1.2375,0.4858,0.3137,-0.1758,0.0753,
41.610663,-0.7308,1.2375,0.4858,0.7217,-0.4815,0.0232,
41.642387,-0.7308,1.2375,0.4858,0.7217,-0.4815,0.0232,
41.644055,-0.0904,0.5174,-0.4747,0.7217,-0.4815,0.0232,
41.675728,-0.0904,0.5174,-0.4747,0.9103,-0.3900,-0.0738,
41.708816,-0.0904,0.5174,-0.4747,0.9103,-0.3900,-0.0738,
41.710324,-0.1682,-0.5847,-1.4128,0.9103,-0.3900,-0.0738,
41.740980,-0.1682,-0.5847,-1.4128,0.7346,-0.2636,-0.0360,
41.774992,-0.1682,-0.5847,-1.4128,0.7346,-0.2636,-0.0360,
41.776452,-0.6448,-0.9103,-0.6734,0.7346,-0.2636,-0.0360,
41.807122,-0.6448,-0.9103,-0.6734,0.5658,-0.5612,0.0765,
41.839907,-0.6448,-0.9103,-0.6734,0.5658,-0.5612,0.0765,
41.841477,-0.1748,-0.3968,-0.6210,0.5658,-0.5612,0.0765,
41.872344,-0.1748,-0.3968,-0.6210,0.3900,-0.6490,0.0699,
41.905287,-0.1748,-0.3968,-0.6210,0.3900,-0.6490,0.0699,
41.906726,0.9694,-0.3409,-0.5574,0.3900,-0.6490,0.0699,
41.937491,0.9694,-0.3409,-0.5574,0.2576,-0.3308,-0.0226,
41.969483,0.9694,-0.3409,-0.5574,0.2576,-0.3308,-0.0226,
41.970717,1.0564,-0.4369,-0.3346,0.2576,-0.3308,-0.0226,
42.002414,1.0564,-0.4369,-0.3346,0.1263,-0.0435,-0.1350,
42.035608,1.0564,-0.4369,-0.3346,0.1263,-0.0435,-0.1350,
42.037081,0.3740,-0.4454,-0.1662,0.1263,-0.0435,-0.1350,
42.068503,0.3740,-0.4454,-0.1662,0.0270,-0.0125,-0.1956,
42.102125,0.3740,-0.4454,-0.1662,0.0270,-0.0125,-0.1956,
42.103964,0.1708,-0.5569,-0.1751,0.0270,-0.0125,-0.1956,
42.133839,0.1708,-0.5569,-0.1751,-0.0348,-0.1333,-0.3809,
42.167422,0.1708,-0.5569,-0.1751,-0.0348,-0.1333,-0.3809,
42.168829,0.5603,-0.6255,-0.2036,-0.0348,-0.1333,-0.3809,
42.199445,0.5603,-0.6255,-0.2036,-0.1031,-0.2896,-0.4134,
42.232485,0.5603,-0.6255,-0.2036,-0.1031,-0.2896,-0.4134,
42.234341,0.9600,-0.5004,0.1626,-0.1031,-0.2896,-0.4134,
42.265044,0.9600,-0.5004,0.1626,-0.3277,-0.2776,-0.4583,
42.298477,0.9600,-0.5004,0.1626,-0.3277,-0.2776,-0.4583,
42.300145,1.1239,-1.2965,-0.7571,-0.3277,-0.2776,-0.4583,
42.331595,1.1239,-1.2965,-0.7571,-0.4224,0.1984,-0.0154,
42.363693,1.1239,-1.2965,-0.7571,-0.4224,0.1984,-0.0154,
42.365169,-3.0557,1.6732,-0.6268,-0.4224,0.1984,-0.0154,
42.396893,-3.0557,1.6732,-0.6268,-0.3502,0.1451,0.1339,
42.429370,-3.0557,1.6732,-0.6268,-0.3502,0.1451,0.1339,
42.431310,-0.8853,3.8946,0.3127,-0.3502,0.1451,0.1339,
42.461089,-0.8853,3.8946,0.3127,-0.7880,-0.5756,0.5090,
42.494657,-0.8853,3.8946,0.3127,-0.7880,-0.5756,0.5090,
42.496845,0.8553,0.0598,0.0451,-0.7880,-0.5756,0.5090,
42.526655,0.8553,0.0598,0.0451,-0.9045,0.5418,0.1787,
42.560148,0.8553,0.0598,0.0451,-0.9045,0.5418,0.1787,
42.561602,0.4726,0.6797,0.1741,-0.9045,0.5418,0.1787,
42.593617,0.4726,0.6797,0.1741,-0.6480,0.6101,0.1891,
42.625622,0.4726,0.6797,0.1741,-0.6480,0.6101,0.1891,
42.628018,-0.6733,-0.7905,-0.0053,-0.6480,0.6101,0.1891,
42.658262,-0.6733,-0.7905,-0.0053,-0.5076,0.3763,0.1480,
42.691184,-0.6733,-0.7905,-0.0053,-0.5076,0.3763,0.1480,
42.693474,-0.4753,-1.1683,-0.2025,-0.5076,0.3763,0.1480,
42.722858,-0.4753,-1.1683,-0.2025,-0.2527,0.2450,0.1141,
42.756583,-0.4753,-1.1683,-0.2025,-0.2527,0.2450,0.1141,
42.758986,-0.2574,-0.9764,0.1153,-0.2527,0.2450,0.1141,
42.790734,-0.2574,-0.9764,0.1153,0.0023,0.0974,0.0990,
42.821563,-0.2574,-0.9764,0.1153,0.0023,0.0974,0.0990,
42.823123,0.3628,-0.7870,0.3700,0.0023,0.0974,0.0990,
42.853964,0.3628,-0.7870,0.3700,0.2004,0.2220,0.1206,
42.886659,0.3628,-0.7870,0.3700,0.2004,0.2220,0.1206,
42.888237,0.9423,-1.1764,0.1409,0.2004,0.2220,0.1206,
42.919356,0.9423,-1.1764,0.1409,0.2295,0.5214,0.2304,
42.952841,0.9423,-1.1764,0.1409,0.2295,0.5214,0.2304,
42.954450,-0.5376,1.1659,0.2477,0.2295,0.5214,0.2304,
42.985693,-0.5376,1.1659,0.2477,0.2329,0.4775,0.1474,
43.018405,-0.5376,1.1659,0.2477,0.2329,0.4775,0.1474,
43.020387,-0.3161,0.1272,0.2935,0.2329,0.4775,0.1474,
43.050604,-0.3161,0.1272,0.2935,0.2037,0.4685,0.1457,
43.084826,-0.3161,0.1272,0.2935,0.2037,0.4685,0.1457,
43.086387,-0.7361,0.4830,0.4938,0.2037,0.4685,0.1457,
43.116742,-0.7361,0.4830,0.4938,0.3980,0.2268,-0.0527,
43.149475,-0.7361,0.4830,0.4938,0.3980,0.2268,-0.0527,
43.151633,-0.5298,1.0942,0.6394,0.3980,0.2268,-0.0527,
43.182045,-0.5298,1.0942,0.6394,0.4664,-0.1104,-0.1148,
43.215341,-0.5298,1.0942,0.6394,0.4664,-0.1104,-0.1148,
43.217119,-0.2588,1.1393,-0.0875,0.4664,-0.1104,-0.1148,
43.247371,-0.2588,1.1393,-0.0875,0.5892,-0.4775,-0.1582,
43.279901,-0.2588,1.1393,-0.0875,0.5892,-0.4775,-0.1582,
43.281582,-0.1023,0.3820,-0.7326,0.5892,-0.4775,-0.1582,
43.312671,-0.1023,0.3820,-0.7326,0.7587,-0.5169,0.0452,
43.346499,-0.1023,0.3820,-0.7326,0.7587,-0.5169,0.0452,
43.347990,-0.0953,-1.8853,-0.5170,0.7587,-0.5169,0.0452,
43.378536,-0.0953,-1.8853,-0.5170,0.6924,-0.3332,0.1199,
43.412050,-0.0953,-1.8853,-0.5170,0.6924,-0.3332,0.1199,
43.413662,-0.2866,-0.9212,-0.3143,0.6924,-0.3332,0.1199,
43.443871,-0.2866,-0.9212,-0.3143,0.3015,-0.4102,-0.0496,
43.476995,-0.2866,-0.9212,-0.3143,0.3015,-0.4102,-0.0496,
43.478561,0.6066,-0.3950,-0.0329,0.3015,-0.4102,-0.0496,
43.508968,0.6066,-0.3950,-0.0329,0.0980,-0.3103,-0.1254,
43.542384,0.6066,-0.3950,-0.0329,0.0980,-0.3103,-0.1254,
43.544053,1.6504,-0.2246,-0.5812,0.0980,-0.3103,-0.1254,
43.574389,1.6504,-0.2246,-0.5812,-0.0973,0.1643,-0.1920,
43.607560,1.6504,-0.2246,-0.5812,-0.0973,0.1643,-0.1920,
43.609161,0.8926,-0.4794,-0.4618,-0.0973,0.1643,-0.1920,
43.640171,0.8926,-0.4794,-0.4618,-0.1953,0.1593,-0.3687,
43.673856,0.8926,-0.4794,-0.4618,-0.1953,0.1593,-0.3687,
43.675718,0.5614,-1.6683,-0.4950,-0.1953,0.1593,-0.3687,
43.706428,0.5614,-1.6683,-0.4950,-0.3022,0.0973,-0.4861,
43.738612,0.5614,-1.6683,-0.4950,-0.3022,0.0973,-0.4861,
43.740468,0.1281,-0.6172,-0.7287,-0.3022,0.0973,-0.4861,
43.771339,0.1281,-0.6172,-0.7287,-0.6703,0.2447,-0.0072,
43.804308,0.1281,-0.6172,-0.7287,-0.6703,0.2447,-0.0072,
43.805879,-1.5860,1.1305,-0.7727,-0.6703,0.2447,-0.0072,
43.837983,-1.5860,1.1305,-0.7727,-0.2515,0.4177,0.3419,
43.870752,-1.5860,1.1305,-0.7727,-0.2515,0.4177,0.3419,
43.872614,-0.0549,4.1964,0.2962,-0.2515,0.4177,0.3419,
43.901899,-0.0549,4.1964,0.2962,-0.5304,0.1014,0.4091,
43.935145,-0.0549,4.1964,0.2962,-0.5304,0.1014,0.4091,
43.936639,0.3300,0.1120,0.0608,-0.5304,0.1014,0.4091,
43.967457,0.3300,0.1120,0.0608,-0.7656,0.9050,0.2117,
44.001011,0.3300,0.1120,0.0608,-0.7656,0.9050,0.2117,
44.002536,0.0193,-0.3795,-0.0223,-0.7656,0.9050,0.2117,
44.032972,0.0193,-0.3795,-0.0223,-0.7165,0.9653,0.1901,
44.065548,0.0193,-0.3795,-0.0223,-0.7165,0.9653,0.1901,
44.067537,-0.7568,-0.0762,0.0999,-0.7165,0.9653,0.1901,
44.098469,-0.7568,-0.0762,0.0999,-0.6492,0.7149,0.2714,
44.132281,-0.7568,-0.0762,0.0999,-0.6492,0.7149,0.2714,
44.134145,-0.0839,-0.6380,-0.2540,-0.6492,0.7149,0.2714,
44.164231,-0.0839,-0.6380,-0.2540,-0.4934,0.8212,0.2088,
44.196385,-0.0839,-0.6380,-0.2540,-0.4934,0.8212,0.2088,
44.198134,0.0012,-0.7348,-0.1735,-0.4934,0.8212,0.2088,
44.229839,0.0012,-0.7348,-0.1735,-0.2822,0.8557,0.2083,
44.263424,0.0012,-0.7348,-0.1735,-0.2822,0.8557,0.2083,
44.264914,-0.3492,-0.3228,0.1729,-0.2822,0.8557,0.2083,
44.294336,-0.3492,-0.3228,0.1729,-0.1820,0.6975,0.2295,
44.328605,-0.3492,-0.3228,0.1729,-0.1820,0.6975,0.2295,
44.330392,-0.3964,-0.6495,0.0977,-0.1820,0.6975,0.2295,
44.360347,-0.3964,-0.6495,0.0977,-0.0727,0.5504,0.2366,
44.393898,-0.3964,-0.6495,0.0977,-0.0727,0.5504,0.2366,
44.395637,-0.0400,-0.6789,0.3423,-0.0727,0.5504,0.2366,
44.427736,-0.0400,-0.6789,0.3423,0.0976,0.5030,0.2155,
44.460052,-0.0400,-0.6789,0.3423,0.0976,0.5030,0.2155,
44.462028,0.2098,-0.9087,0.3071,0.0976,0.5030,0.2155,
44.491281,0.2098,-0.9087,0.3071,0.3337,0.5321,0.1883,
44.525447,0.2098,-0.9087,0.3071,0.3337,0.5321,0.1883,
44.527124,-0.2194,-0.3703,0.3709,0.3337,0.5321,0.1883,
44.556788,-0.2194,-0.3703,0.3709,0.2107,0.3958,0.2518,
44.590041,-0.2194,-0.3703,0.3709,0.2107,0.3958,0.2518,
44.591773,-1.1788,1.8045,0.6057,0.2107,0.3958,0.2518,
44.624286,-1.1788,1.8045,0.6057,0.1781,0.0747,0.1031,
44.657147,-1.1788,1.8045,0.6057,0.1781,0.0747,0.1031,
44.657938,0.1724,-0.4999,0.4139,0.1781,0.0747,0.1031,
44.687830,0.1724,-0.4999,0.4139,0.2188,0.2253,0.1298,
44.721245,0.1724,-0.4999,0.4139,0.2188,0.2253,0.1298,
44.721740,0.1992,0.4224,-0.0854,0.2188,0.2253,0.1298,
44.752739,0.1992,0.4224,-0.0854,0.4042,0.2937,-0.0545,
44.787539,0.1992,0.4224,-0.0854,0.4042,0.2937,-0.0545,
44.788280,-0.3537,0.6445,0.1174,0.4042,0.2937,-0.0545,
44.818508,-0.3537,0.6445,0.1174,0.4435,0.0034,0.0564,
44.851428,-0.3537,0.6445,0.1174,0.4435,0.0034,0.0564,
44.852627,0.0210,0.5012,-0.4118,0.4435,0.0034,0.0564,
44.885501,0.0210,0.5012,-0.4118,0.5860,-0.1219,0.0483,
44.917193,0.0210,0.5012,-0.4118,0.5860,-0.1219,0.0483,
44.918309,0.0085,0.9259,-1.0810,0.5860,-0.1219,0.0483,
44.951079,0.0085,0.9259,-1.0810,0.4355,-0.1203,0.1562,
44.984113,0.0085,0.9259,-1.0810,0.4355,-0.1203,0.1562,
44.985255,0.0945,-0.7933,-0.4340,0.4355,-0.1203,0.1562,
45.015642,0.0945,-0.7933,-0.4340,0.5029,-0.0153,0.0551,
45.047912,0.0945,-0.7933,-0.4340,0.5029,-0.0153,0.0551,
45.049152,-0.0132,-1.0063,-0.3228,0.5029,-0.0153,0.0551,
45.080809,-0.0132,-1.0063,-0.3228,0.3725,0.0331,0.0015,
45.114397,-0.0132,-1.0063,-0.3228,0.3725,0.0331,0.0015,
45.116030,0.2831,-0.1567,-0.5186,0.3725,0.0331,0.0015,
45.145958,0.2831,-0.1567,-0.5186,0.2144,-0.0050,0.0166,
45.180614,0.2831,-0.1567,-0.5186,0.2144,-0.0050,0.0166,
45.181701,0.2143,-0.4185,-0.3956,0.2144,-0.0050,0.0166,
45.212188,0.2143,-0.4185,-0.3956,0.1439,-0.0560,-0.1329,
45.244822,0.2143,-0.4185,-0.3956,0.1439,-0.0560,-0.1329,
45.246567,0.7513,-0.4896,-0.3012,0.1439,-0.0560,-0.1329,
45.277199,0.7513,-0.4896,-0.3012,0.0044,0.0029,-0.2812,
45.310022,0.7513,-0.4896,-0.3012,0.0044,0.0029,-0.2812,
45.311843,1.2826,0.0251,-0.2935,0.0044,0.0029,-0.2812,
45.343492,1.2826,0.0251,-0.2935,-0.1962,0.1885,-0.3885,
45.375604,1.2826,0.0251,-0.2935,-0.1962,0.1885,-0.3885,
45.377125,1.4136,-0.8401,-0.4005,-0.1962,0.1885,-0.3885,
45.409277,1.4136,-0.8401,-0.4005,-0.4064,0.4543,-0.4024,
45.441788,1.4136,-0.8401,-0.4005,-0.4064,0.4543,-0.4024,
45.443693,-0.0179,-2.0613,0.0318,-0.4064,0.4543,-0.4024,
45.474624,-0.0179,-2.0613,0.0318,-0.6663,0.4833,-0.0783,
45.507544,-0.0179,-2.0613,0.0318,-0.6663,0.4833,-0.0783,
45.509457,-1.9870,1.1048,-0.6141,-0.6663,0.4833,-0.0783,
45.539904,-1.9870,1.1048,-0.6141,-0.6924,0.5573,0.3560,
45.573071,-1.9870,1.1048,-0.6141,-0.6924,0.5573,0.3560,
45.574882,-0.2008,5.0699,-0.3810,-0.6924,0.5573,0.3560,
45.604778,-0.2008,5.0699,-0.3810,-0.6432,0.4252,0.4136,
45.637579,-0.2008,5.0699,-0.3810,-0.6432,0.4252,0.4136,
45.639121,0.1746,-0.4928,0.1162,-0.6432,0.4252,0.4136,
45.671086,0.1746,-0.4928,0.1162,-0.7937,0.9658,0.1544,
45.702127,0.1746,-0.4928,0.1162,-0.7937,0.9658,0.1544,
45.703360,0.2270,-0.4868,-0.2256,-0.7937,0.9658,0.1544,
45.737109,0.2270,-0.4868,-0.2256,-0.6512,0.7372,0.1895,
45.769824,0.2270,-0.4868,-0.2256,-0.6512,0.7372,0.1895,
45.771638,-0.9861,-0.1878,-0.0484,-0.6512,0.7372,0.1895,
45.800981,-0.9861,-0.1878,-0.0484,-0.4184,0.3238,0.2926,
45.836666,-0.9861,-0.1878,-0.0484,-0.4184,0.3238,0.2926,
45.838300,-0.2446,-0.8844,-0.1745,-0.4184,0.3238,0.2926,
45.866499,-0.2446,-0.8844,-0.1745,-0.3019,0.2787,0.2254,
45.899240,-0.2446,-0.8844,-0.1745,-0.3019,0.2787,0.2254,
45.900445,0.2486,-0.9242,0.0347,-0.3019,0.2787,0.2254,
45.931485,0.2486,-0.9242,0.0347,-0.0374,0.3673,0.2266,
45.964846,0.2486,-0.9242,0.0347,-0.0374,0.3673,0.2266,
45.967841,0.2717,-0.7799,0.3656,-0.0374,0.3673,0.2266,
45.996273,0.2717,-0.7799,0.3656,0.1042,0.4406,0.2321,
46.029765,0.2717,-0.7799,0.3656,0.1042,0.4406,0.2321,
46.031323,0.8070,-0.7274,0.8391,0.1042,0.4406,0.2321,
46.062977,0.8070,-0.7274,0.8391,0.1663,0.3940,0.3994,
46.095403,0.8070,-0.7274,0.8391,0.1663,0.3940,0.3994,
46.096784,0.2451,-0.1140,0.5672,0.1663,0.3940,0.3994,
46.128102,0.2451,-0.1140,0.5672,0.0568,0.5058,0.3164,
46.161365,0.2451,-0.1140,0.5672,0.0568,0.5058,0.3164,
46.163199,-0.2395,0.4611,0.2664,0.0568,0.5058,0.3164,
46.193787,-0.2395,0.4611,0.2664,0.1752,0.3454,0.1516,
46.226834,-0.2395,0.4611,0.2664,0.1752,0.3454,0.1516,
46.228444,-0.2703,0.3024,-0.1841,0.1752,0.3454,0.1516,
46.259957,-0.2703,0.3024,-0.1841,0.3386,0.4693,0.1857,
46.292309,-0.2703,0.3024,-0.1841,0.3386,0.4693,0.1857,
46.294004,-1.2956,1.6067,0.3789,0.3386,0.4693,0.1857,
46.326360,-1.2956,1.6067,0.3789,0.5649,0.0005,0.1649,
46.357764,-1.2956,1.6067,0.3789,0.5649,0.0005,0.1649,
46.359100,-0.6314,0.7094,0.0314,0.5649,0.0005,0.1649,
46.389879,-0.6314,0.7094,0.0314,0.6180,-0.1703,0.0817,
46.424473,-0.6314,0.7094,0.0314,0.6180,-0.1703,0.0817,
46.426609,-0.1034,-0.3254,-0.5550,0.6180,-0.1703,0.0817,
46.457929,-0.1034,-0.3254,-0.5550,0.6849,-0.1484,-0.0385,
46.488606,-0.1034,-0.3254,-0.5550,0.6849,-0.1484,-0.0385,
46.489731,0.5491,-0.5576,-0.6059,0.6849,-0.1484,-0.0385,
46.521591,0.5491,-0.5576,-0.6059,0.4710,-0.0229,-0.1408,
46.554172,0.5491,-0.5576,-0.6059,0.4710,-0.0229,-0.1408,
46.555517,0.3705,0.2006,-0.8189,0.4710,-0.0229,-0.1408,
46.587735,0.3705,0.2006,-0.8189,0.1729,0.0710,0.3564,
46.619359,0.3705,0.2006,-0.8189,0.1729,0.0710,0.3564,
46.620661,0.1621,-1.4189,-0.3799,0.1729,0.0710,0.3564,
46.652201,0.1621,-1.4189,-0.3799,0.1002,0.0541,0.0301,
46.685114,0.1621,-1.4189,-0.3799,0.1002,0.0541,0.0301,
46.686686,0.3682,-0.8400,-0.5714,0.1002,0.0541,0.0301,
46.718661,0.3682,-0.8400,-0.5714,0.2013,0.2291,-0.2692,
46.751611,0.3682,-0.8400,-0.5714,0.2013,0.2291,-0.2692,
46.753147,1.0376,0.2900,-0.6579,0.2013,0.2291,-0.2692,
46.783148,1.0376,0.2900,-0.6579,0.0837,0.4533,-0.3122,
46.816918,1.0376,0.2900,-0.6579,0.0837,0.4533,-0.3122,
46.818405,0.6631,-0.1586,-0.3074,0.0837,0.4533,-0.3122,
46.849504,0.6631,-0.1586,-0.3074,-0.0785,0.4287,-0.3042,
46.881721,0.6631,-0.1586,-0.3074,-0.0785,0.4287,-0.3042,
46.884192,0.1323,-0.8542,-0.2246,-0.0785,0.4287,-0.3042,
46.914529,0.1323,-0.8542,-0.2246,-0.2437,0.1043,-0.2755,
46.947740,0.1323,-0.8542,-0.2246,-0.2437,0.1043,-0.2755,
46.949330,0.7898,-1.8425,-1.3748,-0.2437,0.1043,-0.2755,
46.980357,0.7898,-1.8425,-1.3748,-0.5713,0.0454,-0.0663,
