
time,ax,ay,az,wx,wy,wz,
0.025275,0.0000,0.0000,0.0000,-0.0252,-0.0234,0.0027,
0.025478,0.0000,0.0000,0.0000,-0.0252,-0.0234,0.0027,
0.035973,0.0000,0.0000,0.0000,0.0003,-0.0122,-0.0046,
0.078348,0.0000,0.0000,0.0000,0.0003,-0.0122,-0.0046,
0.098023,0.0000,0.0000,0.0000,0.0078,0.0125,-0.0147,
0.143182,0.0000,0.0000,0.0000,0.0078,0.0125,-0.0147,
0.163464,0.0000,0.0000,0.0000,0.0145,0.0031,-0.0205,
0.210603,0.0000,0.0000,0.0000,0.0145,0.0031,-0.0205,
0.230563,0.0000,0.0000,0.0000,0.0148,0.0113,-0.0177,
0.274489,0.0000,0.0000,0.0000,0.0148,0.0113,-0.0177,
0.295196,0.0000,0.0000,0.0000,0.0451,0.0770,-0.0137,
0.340458,0.0000,0.0000,0.0000,0.0451,0.0770,-0.0137,
0.360376,0.0000,0.0000,0.0000,0.0921,0.1607,-0.0208,
0.406254,0.0000,0.0000,0.0000,0.0921,0.1607,-0.0208,
0.426945,0.0000,0.0000,0.0000,0.0774,0.2007,0.0790,
0.471250,0.0000,0.0000,0.0000,0.0774,0.2007,0.0790,
0.488301,-0.4016,0.0419,0.2600,0.0774,0.2007,0.0790,
0.491030,-0.4016,0.0419,0.2600,0.0791,0.1414,0.0426,
0.536717,-0.4016,0.0419,0.2600,0.0791,0.1414,0.0426,
0.553917,0.0990,-0.4119,0.4733,0.0791,0.1414,0.0426,
0.556508,0.0990,-0.4119,0.4733,-0.2671,-0.1287,0.0070,
0.602790,0.0990,-0.4119,0.4733,-0.2671,-0.1287,0.0070,
0.618646,0.4240,-0.8417,0.1988,-0.2671,-0.1287,0.0070,
0.623548,0.4240,-0.8417,0.1988,-0.1969,-0.1028,-0.2764,
0.667603,0.4240,-0.8417,0.1988,-0.1969,-0.1028,-0.2764,
0.684627,0.2612,-2.2101,1.7998,-0.1969,-0.1028,-0.2764,
0.687359,0.2612,-2.2101,1.7998,-0.1471,-0.1897,-0.7045,
0.733546,0.2612,-2.2101,1.7998,-0.1471,-0.1897,-0.7045,
0.750356,0.3994,-1.2843,0.9657,-0.1471,-0.1897,-0.7045,
0.754455,0.3994,-1.2843,0.9657,-0.1278,0.3290,-1.0730,
0.799517,0.3994,-1.2843,0.9657,-0.1278,0.3290,-1.0730,
0.815146,-0.6497,-0.5221,1.1931,-0.1278,0.3290,-1.0730,
0.819390,-0.6497,-0.5221,1.1931,0.0209,0.5939,-0.5231,
0.864437,-0.6497,-0.5221,1.1931,0.0209,0.5939,-0.5231,
0.881703,-0.1123,2.7748,0.8959,0.0209,0.5939,-0.5231,
0.885134,-0.1123,2.7748,0.8959,0.2538,0.4604,-0.0878,
0.929400,-0.1123,2.7748,0.8959,0.2538,0.4604,-0.0878,
0.946856,-0.8074,0.8120,0.4373,0.2538,0.4604,-0.0878,
0.949713,-0.8074,0.8120,0.4373,0.7366,0.2734,-0.0099,
0.995210,-0.8074,0.8120,0.4373,0.7366,0.2734,-0.0099,
1.011354,0.1516,0.1807,-1.1666,0.7366,0.2734,-0.0099,
1.014908,0.1516,0.1807,-1.1666,0.5319,0.2222,0.2653,
1.060560,0.1516,0.1807,-1.1666,0.5319,0.2222,0.2653,
1.078227,1.5104,-0.4740,-1.2043,0.5319,0.2222,0.2653,
1.080947,1.5104,-0.4740,-1.2043,0.3131,-0.4943,-0.0368,
1.126610,1.5104,-0.4740,-1.2043,0.3131,-0.4943,-0.0368,
1.143742,1.0567,-0.0866,-0.1100,0.3131,-0.4943,-0.0368,
1.145859,1.0567,-0.0866,-0.1100,0.3248,-0.5084,0.0544,
1.193376,1.0567,-0.0866,-0.1100,0.3248,-0.5084,0.0544,
1.208359,1.4708,-0.7049,-0.1414,0.3248,-0.5084,0.0544,
1.211614,1.4708,-0.7049,-0.1414,0.3748,-0.4122,0.0788,
1.257130,1.4708,-0.7049,-0.1414,0.3748,-0.4122,0.0788,
1.273932,1.2665,-0.5711,0.1900,0.3748,-0.4122,0.0788,
1.277296,1.2665,-0.5711,0.1900,0.3807,-0.2465,-0.1058,
1.322648,1.2665,-0.5711,0.1900,0.3807,-0.2465,-0.1058,
1.338946,0.4558,-0.1907,0.1909,0.3807,-0.2465,-0.1058,
1.342506,0.4558,-0.1907,0.1909,0.2011,-0.5334,-0.2491,
1.387657,0.4558,-0.1907,0.1909,0.2011,-0.5334,-0.2491,
1.404093,1.1277,0.1296,-0.1825,0.2011,-0.5334,-0.2491,
1.408590,1.1277,0.1296,-0.1825,0.0351,-0.7746,-0.1689,
1.453469,1.1277,0.1296,-0.1825,0.0351,-0.7746,-0.1689,
1.470697,2.8182,0.4341,-0.0254,0.0351,-0.7746,-0.1689,
1.473779,2.8182,0.4341,-0.0254,-0.0399,-0.5623,-0.1501,
1.519627,2.8182,0.4341,-0.0254,-0.0399,-0.5623,-0.1501,
1.535730,2.9523,0.9335,0.0223,-0.0399,-0.5623,-0.1501,
1.539549,2.9523,0.9335,0.0223,0.0171,-0.2283,-0.2798,
1.584750,2.9523,0.9335,0.0223,0.0171,-0.2283,-0.2798,
1.601536,1.8395,1.0810,0.3493,0.0171,-0.2283,-0.2798,
1.604432,1.8395,1.0810,0.3493,0.1854,-0.0515,-0.0354,
1.650161,1.8395,1.0810,0.3493,0.1854,-0.0515,-0.0354,
1.667710,0.1443,-0.8292,-0.9649,0.1854,-0.0515,-0.0354,
1.669819,0.1443,-0.8292,-0.9649,-0.1772,0.1880,0.0927,
1.716069,0.1443,-0.8292,-0.9649,-0.1772,0.1880,0.0927,
1.732043,-1.9001,-0.9270,0.0742,-0.1772,0.1880,0.0927,
1.736112,-1.9001,-0.9270,0.0742,-0.6481,0.4172,0.4640,
1.781673,-1.9001,-0.9270,0.0742,-0.6481,0.4172,0.4640,
1.797591,-0.3407,1.7478,-0.0569,-0.6481,0.4172,0.4640,
1.802064,-0.3407,1.7478,-0.0569,-0.4239,0.7992,0.3740,
1.846302,-0.3407,1.7478,-0.0569,-0.4239,0.7992,0.3740,
1.863305,-0.5983,-0.1366,-0.5615,-0.4239,0.7992,0.3740,
1.866622,-0.5983,-0.1366,-0.5615,-0.6289,1.0909,0.3222,
1.912975,-0.5983,-0.1366,-0.5615,-0.6289,1.0909,0.3222,
1.928275,-0.3784,-0.6108,0.4294,-0.6289,1.0909,0.3222,
1.931744,-0.3784,-0.6108,0.4294,-0.6177,1.0496,0.2078,
1.977088,-0.3784,-0.6108,0.4294,-0.6177,1.0496,0.2078,
1.993865,-0.7416,-0.9153,0.4086,-0.6177,1.0496,0.2078,
1.998084,-0.7416,-0.9153,0.4086,-0.3575,0.6657,0.1344,
2.043235,-0.7416,-0.9153,0.4086,-0.3575,0.6657,0.1344,
2.061002,-0.2505,-1.5636,0.9492,-0.3575,0.6657,0.1344,
2.063654,-0.2505,-1.5636,0.9492,-0.0745,0.3228,0.0848,
2.108658,-0.2505,-1.5636,0.9492,-0.0745,0.3228,0.0848,
2.125828,0.8755,-0.6833,1.6538,-0.0745,0.3228,0.0848,
2.128490,0.8755,-0.6833,1.6538,0.1194,0.4316,0.1374,
2.174546,0.8755,-0.6833,1.6538,0.1194,0.4316,0.1374,
2.190569,0.6882,0.8938,1.7111,0.1194,0.4316,0.1374,
2.194378,0.6882,0.8938,1.7111,-0.0441,0.4873,0.2512,
2.239359,0.6882,0.8938,1.7111,-0.0441,0.4873,0.2512,
2.255901,-0.1736,0.9037,1.7822,-0.0441,0.4873,0.2512,
2.259403,-0.1736,0.9037,1.7822,-0.4000,0.1516,0.1735,
2.305194,-0.1736,0.9037,1.7822,-0.4000,0.1516,0.1735,
2.321526,-1.4142,1.8250,-2.2720,-0.4000,0.1516,0.1735,
2.325915,-1.4142,1.8250,-2.2720,0.0270,-0.0531,-0.4621,
2.370623,-1.4142,1.8250,-2.2720,0.0270,-0.0531,-0.4621,
2.387120,-0.7784,-1.4380,-2.3997,0.0270,-0.0531,-0.4621,
2.390553,-0.7784,-1.4380,-2.3997,0.3693,0.0380,-0.1048,
2.436004,-0.7784,-1.4380,-2.3997,0.3693,0.0380,-0.1048,
2.452290,-0.5712,-0.7746,-1.6908,0.3693,0.0380,-0.1048,
2.455701,-0.5712,-0.7746,-1.6908,0.7323,-0.2595,-0.3638,
2.501421,-0.5712,-0.7746,-1.6908,0.7323,-0.2595,-0.3638,
2.517491,-1.1091,-0.8800,-0.7867,0.7323,-0.2595,-0.3638,
2.521371,-1.1091,-0.8800,-0.7867,0.6335,-0.9352,-0.3348,
2.567670,-1.1091,-0.8800,-0.7867,0.6335,-0.9352,-0.3348,
2.584131,1.7892,-0.6857,-0.4979,0.6335,-0.9352,-0.3348,
2.586373,1.7892,-0.6857,-0.4979,0.5666,-1.0921,-0.1541,
2.632447,1.7892,-0.6857,-0.4979,0.5666,-1.0921,-0.1541,
2.648597,1.8591,-0.7300,-0.0312,0.5666,-1.0921,-0.1541,
2.652044,1.8591,-0.7300,-0.0312,0.4893,-0.4198,-0.1637,
2.697816,1.8591,-0.7300,-0.0312,0.4893,-0.4198,-0.1637,
2.714387,1.0131,-0.2049,0.5708,0.4893,-0.4198,-0.1637,
2.718490,1.0131,-0.2049,0.5708,0.2524,-0.5234,-0.2659,
2.762980,1.0131,-0.2049,0.5708,0.2524,-0.5234,-0.2659,
2.779369,2.6111,0.6089,-0.2344,0.2524,-0.5234,-0.2659,
2.784127,2.6111,0.6089,-0.2344,0.1781,-0.5785,0.0115,
2.828695,2.6111,0.6089,-0.2344,0.1781,-0.5785,0.0115,
2.844992,1.7325,2.4116,0.4217,0.1781,-0.5785,0.0115,
2.848144,1.7325,2.4116,0.4217,0.0040,0.0027,0.4682,
2.894296,1.7325,2.4116,0.4217,0.0040,0.0027,0.4682,
2.911588,-1.1860,0.3678,-1.1596,0.0040,0.0027,0.4682,
2.914250,-1.1860,0.3678,-1.1596,-0.4986,0.1217,0.6194,
2.959850,-1.1860,0.3678,-1.1596,-0.4986,0.1217,0.6194,
2.975814,-1.5163,0.9617,0.5900,-0.4986,0.1217,0.6194,
2.979897,-1.5163,0.9617,0.5900,-0.5793,0.2799,0.3454,
3.025903,-1.5163,0.9617,0.5900,-0.5793,0.2799,0.3454,
3.041503,-0.1101,0.6080,-0.7941,-0.5793,0.2799,0.3454,
3.045029,-0.1101,0.6080,-0.7941,-0.5403,0.8259,0.2508,
3.091377,-0.1101,0.6080,-0.7941,-0.5403,0.8259,0.2508,
3.107353,-1.1385,-1.9710,-0.3481,-0.5403,0.8259,0.2508,
3.111361,-1.1385,-1.9710,-0.3481,-0.3348,1.0683,0.0782,
3.156555,-1.1385,-1.9710,-0.3481,-0.3348,1.0683,0.0782,
3.173583,-1.7799,-1.1119,0.4283,-0.3348,1.0683,0.0782,
3.176531,-1.7799,-1.1119,0.4283,-0.2526,0.5402,-0.1335,
3.225552,-1.7799,-1.1119,0.4283,-0.2526,0.5402,-0.1335,
3.238050,-0.6948,-1.1240,0.9806,-0.2526,0.5402,-0.1335,
3.242579,-0.6948,-1.1240,0.9806,0.1339,0.0690,-0.0318,
3.288462,-0.6948,-1.1240,0.9806,0.1339,0.0690,-0.0318,
3.303634,1.1475,-0.2628,1.6061,0.1339,0.0690,-0.0318,
3.307950,1.1475,-0.2628,1.6061,0.1022,0.1770,0.0315,
3.353543,1.1475,-0.2628,1.6061,0.1022,0.1770,0.0315,
3.369983,0.1621,0.6210,1.8806,0.1022,0.1770,0.0315,
3.373350,0.1621,0.6210,1.8806,-0.2297,0.1391,0.2289,
3.419346,0.1621,0.6210,1.8806,-0.2297,0.1391,0.2289,
3.435726,-1.4459,3.8110,0.0584,-0.2297,0.1391,0.2289,
3.439074,-1.4459,3.8110,0.0584,-0.0492,-0.8893,-0.1144,
3.484614,-1.4459,3.8110,0.0584,-0.0492,-0.8893,-0.1144,
3.500555,-1.0415,-2.5972,-2.0236,-0.0492,-0.8893,-0.1144,
3.503001,-1.0415,-2.5972,-2.0236,-0.0519,-0.2599,0.0681,
3.549280,-1.0415,-2.5972,-2.0236,-0.0519,-0.2599,0.0681,
3.566029,-0.8847,1.2666,-1.5705,-0.0519,-0.2599,0.0681,
3.568781,-0.8847,1.2666,-1.5705,0.6051,-0.4833,-0.2078,
3.614759,-0.8847,1.2666,-1.5705,0.6051,-0.4833,-0.2078,
3.630989,-2.3654,-0.3885,-1.4713,0.6051,-0.4833,-0.2078,
3.634190,-2.3654,-0.3885,-1.4713,0.2175,-1.1739,-0.0533,
3.680498,-2.3654,-0.3885,-1.4713,0.2175,-1.1739,-0.0533,
3.696719,-0.8662,-1.1846,-1.1975,0.2175,-1.1739,-0.0533,
3.701031,-0.8662,-1.1846,-1.1975,0.2560,-1.7721,-0.0507,
3.747973,-0.8662,-1.1846,-1.1975,0.2560,-1.7721,-0.0507,
3.763465,1.7126,-0.3522,-0.8846,0.2560,-1.7721,-0.0507,
3.766007,1.7126,-0.3522,-0.8846,0.1130,-1.4123,-0.2472,
3.812884,1.7126,-0.3522,-0.8846,0.1130,-1.4123,-0.2472,
3.828393,1.4506,-0.2170,0.3503,0.1130,-1.4123,-0.2472,
3.832578,1.4506,-0.2170,0.3503,0.0258,-0.7642,-0.3433,
3.878402,1.4506,-0.2170,0.3503,0.0258,-0.7642,-0.3433,
3.894322,0.8787,-0.4624,0.3077,0.0258,-0.7642,-0.3433,
3.896959,0.8787,-0.4624,0.3077,0.1458,-0.8993,-0.3115,
3.943215,0.8787,-0.4624,0.3077,0.1458,-0.8993,-0.3115,
3.959565,0.3289,0.5854,-0.6813,0.1458,-0.8993,-0.3115,
3.962502,0.3289,0.5854,-0.6813,0.1461,-1.0194,0.0761,
4.008962,0.3289,0.5854,-0.6813,0.1461,-1.0194,0.0761,
4.024852,-2.0342,2.6710,-0.3776,0.1461,-1.0194,0.0761,
4.027244,-2.0342,2.6710,-0.3776,-0.2410,-1.0997,0.3874,
4.074053,-2.0342,2.6710,-0.3776,-0.2410,-1.0997,0.3874,
4.089374,-2.8581,0.2232,-0.0257,-0.2410,-1.0997,0.3874,
4.093145,-2.8581,0.2232,-0.0257,-0.7482,-0.8784,0.3812,
4.139657,-2.8581,0.2232,-0.0257,-0.7482,-0.8784,0.3812,
4.155254,-1.6395,1.6826,-0.1818,-0.7482,-0.8784,0.3812,
4.160505,-1.6395,1.6826,-0.1818,-0.9572,-1.0719,-0.0704,
4.205089,-1.6395,1.6826,-0.1818,-0.9572,-1.0719,-0.0704,
4.221878,-0.9615,-1.1757,-0.2952,-0.9572,-1.0719,-0.0704,
4.227899,-0.9615,-1.1757,-0.2952,-0.9096,-1.3288,-0.0426,
4.269442,-0.9615,-1.1757,-0.2952,-0.9096,-1.3288,-0.0426,
4.287721,0.0020,-1.6685,1.1888,-0.9096,-1.3288,-0.0426,
4.288809,0.0020,-1.6685,1.1888,-0.5996,-0.9548,-0.2230,
4.336784,0.0020,-1.6685,1.1888,-0.5996,-0.9548,-0.2230,
4.351792,-0.1218,-0.8896,1.6959,-0.5996,-0.9548,-0.2230,
4.355120,-0.1218,-0.8896,1.6959,-0.2550,-0.8296,-0.1341,
4.401267,-0.1218,-0.8896,1.6959,-0.2550,-0.8296,-0.1341,
4.418170,0.0147,-1.0314,2.7363,-0.2550,-0.8296,-0.1341,
4.419704,0.0147,-1.0314,2.7363,0.1017,-0.7810,-0.0127,
4.466908,0.0147,-1.0314,2.7363,0.1017,-0.7810,-0.0127,
4.482750,0.4075,0.3531,2.2183,0.1017,-0.7810,-0.0127,
4.485933,0.4075,0.3531,2.2183,-0.0973,-0.3494,-0.1532,
4.532402,0.4075,0.3531,2.2183,-0.0973,-0.3494,-0.1532,
4.547448,0.0216,1.4202,2.8877,-0.0973,-0.3494,-0.1532,
4.550660,0.0216,1.4202,2.8877,-0.3034,-0.4035,0.0796,
4.596858,0.0216,1.4202,2.8877,-0.3034,-0.4035,0.0796,
4.612760,-1.6414,1.0421,-0.4446,-0.3034,-0.4035,0.0796,
4.617360,-1.6414,1.0421,-0.4446,0.2343,-0.5177,-0.3754,
4.664477,-1.6414,1.0421,-0.4446,0.2343,-0.5177,-0.3754,
4.679560,-1.9600,-1.0121,-1.7995,0.2343,-0.5177,-0.3754,
4.682951,-1.9600,-1.0121,-1.7995,0.2498,-0.4264,-0.2353,
4.728111,-1.9600,-1.0121,-1.7995,0.2498,-0.4264,-0.2353,
4.744459,-2.1069,-0.1685,-1.0598,0.2498,-0.4264,-0.2353,
4.748617,-2.1069,-0.1685,-1.0598,0.4024,-0.8467,-0.2983,
4.794817,-2.1069,-0.1685,-1.0598,0.4024,-0.8467,-0.2983,
4.809102,-1.3565,-0.1299,-1.4917,0.4024,-0.8467,-0.2983,
4.812376,-1.3565,-0.1299,-1.4917,0.3315,-1.5560,-0.1315,
4.859390,-1.3565,-0.1299,-1.4917,0.3315,-1.5560,-0.1315,
4.874702,0.6832,-0.5255,-0.7338,0.3315,-1.5560,-0.1315,
4.878951,0.6832,-0.5255,-0.7338,0.2031,-1.5832,-0.1446,
4.925583,0.6832,-0.5255,-0.7338,0.2031,-1.5832,-0.1446,
4.941020,1.3871,-0.6193,-0.0349,0.2031,-1.5832,-0.1446,
4.944136,1.3871,-0.6193,-0.0349,0.1448,-1.1646,-0.1672,
4.989637,1.3871,-0.6193,-0.0349,0.1448,-1.1646,-0.1672,
5.006544,1.0243,-0.4102,0.7573,0.1448,-1.1646,-0.1672,
5.009255,1.0243,-0.4102,0.7573,0.0828,-0.8772,-0.2257,
5.055006,1.0243,-0.4102,0.7573,0.0828,-0.8772,-0.2257,
5.072138,1.4864,0.2302,0.7473,0.0828,-0.8772,-0.2257,
5.075149,1.4864,0.2302,0.7473,0.0292,-0.9410,-0.1709,
5.121437,1.4864,0.2302,0.7473,0.0292,-0.9410,-0.1709,
5.138344,2.8394,0.1851,0.3795,0.0292,-0.9410,-0.1709,
5.141324,2.8394,0.1851,0.3795,0.1436,-0.5945,0.0144,
5.187148,2.8394,0.1851,0.3795,0.1436,-0.5945,0.0144,
5.203070,0.7641,2.0609,0.8185,0.1436,-0.5945,0.0144,
5.206379,0.7641,2.0609,0.8185,0.0377,-0.0964,0.2914,
5.252603,0.7641,2.0609,0.8185,0.0377,-0.0964,0.2914,
5.267930,-2.8481,0.2294,-0.6721,0.0377,-0.0964,0.2914,
5.271177,-2.8481,0.2294,-0.6721,-0.5849,-0.1352,0.3279,
5.317037,-2.8481,0.2294,-0.6721,-0.5849,-0.1352,0.3279,
5.333905,-1.8725,0.9029,0.5361,-0.5849,-0.1352,0.3279,
5.337176,-1.8725,0.9029,0.5361,-0.6912,-0.2297,0.3189,
5.383031,-1.8725,0.9029,0.5361,-0.6912,-0.2297,0.3189,
5.400035,-0.4325,-0.1399,-0.2500,-0.6912,-0.2297,0.3189,
5.403006,-0.4325,-0.1399,-0.2500,-0.7095,0.2378,0.2639,
5.448061,-0.4325,-0.1399,-0.2500,-0.7095,0.2378,0.2639,
5.463782,-0.3811,-1.7575,0.3467,-0.7095,0.2378,0.2639,
5.467498,-0.3811,-1.7575,0.3467,-0.5492,0.6322,0.1046,
5.514252,-0.3811,-1.7575,0.3467,-0.5492,0.6322,0.1046,
5.530096,-0.5496,-0.6207,0.8794,-0.5492,0.6322,0.1046,
5.533961,-0.5496,-0.6207,0.8794,-0.4537,0.3742,-0.0615,
5.580490,-0.5496,-0.6207,0.8794,-0.4537,0.3742,-0.0615,
5.595474,-0.1301,-1.4284,1.4027,-0.4537,0.3742,-0.0615,
5.599056,-0.1301,-1.4284,1.4027,0.0312,0.3111,0.0128,
5.644977,-0.1301,-1.4284,1.4027,0.0312,0.3111,0.0128,
5.660717,0.6516,-0.2300,2.0068,0.0312,0.3111,0.0128,
5.664152,0.6516,-0.2300,2.0068,0.0374,0.4954,0.0302,
5.710339,0.6516,-0.2300,2.0068,0.0374,0.4954,0.0302,
5.727948,-0.0847,0.8060,2.2759,0.0374,0.4954,0.0302,
5.729910,-0.0847,0.8060,2.2759,-0.1275,0.3693,0.1555,
5.775606,-0.0847,0.8060,2.2759,-0.1275,0.3693,0.1555,
5.791970,-0.5992,3.0909,0.9693,-0.1275,0.3693,0.1555,
5.795674,-0.5992,3.0909,0.9693,-0.2738,-0.3777,0.2224,
5.842354,-0.5992,3.0909,0.9693,-0.2738,-0.3777,0.2224,
5.858087,-1.5128,-0.5796,-2.4252,-0.2738,-0.3777,0.2224,
5.860967,-1.5128,-0.5796,-2.4252,-0.0663,-0.2170,-0.1991,
5.906796,-1.5128,-0.5796,-2.4252,-0.0663,-0.2170,-0.1991,
5.923253,-0.8476,-0.4831,-1.4995,-0.0663,-0.2170,-0.1991,
5.926598,-0.8476,-0.4831,-1.4995,0.5754,0.0368,-0.0994,
5.972159,-0.8476,-0.4831,-1.4995,0.5754,0.0368,-0.0994,
5.988681,-1.5155,0.1302,-1.7122,0.5754,0.0368,-0.0994,
5.994582,-1.5155,0.1302,-1.7122,0.4682,-0.6188,-0.1353,
6.037520,-1.5155,0.1302,-1.7122,0.4682,-0.6188,-0.1353,
6.055197,-0.6002,-1.2252,-0.8979,0.4682,-0.6188,-0.1353,
6.057627,-0.6002,-1.2252,-0.8979,0.3780,-1.0519,-0.1153,
6.104040,-0.6002,-1.2252,-0.8979,0.3780,-1.0519,-0.1153,
6.119694,1.3075,-0.8815,-0.3810,0.3780,-1.0519,-0.1153,
6.123259,1.3075,-0.8815,-0.3810,0.4688,-0.8997,-0.2674,
6.167928,1.3075,-0.8815,-0.3810,0.4688,-0.8997,-0.2674,
6.184827,1.5178,-0.4054,0.1669,0.4688,-0.8997,-0.2674,
6.188035,1.5178,-0.4054,0.1669,0.4151,-0.3166,-0.3352,
6.234097,1.5178,-0.4054,0.1669,0.4151,-0.3166,-0.3352,
6.250814,0.7377,0.0269,1.1162,0.4151,-0.3166,-0.3352,
6.254740,0.7377,0.0269,1.1162,0.3291,-0.3471,-0.4563,
6.301034,0.7377,0.0269,1.1162,0.3291,-0.3471,-0.4563,
6.315732,2.0877,0.4987,0.3021,0.3291,-0.3471,-0.4563,
6.319603,2.0877,0.4987,0.3021,0.2694,-0.6339,-0.1176,
6.364544,2.0877,0.4987,0.3021,0.2694,-0.6339,-0.1176,
6.382237,0.8985,2.7963,0.2439,0.2694,-0.6339,-0.1176,
6.385042,0.8985,2.7963,0.2439,0.1139,-0.1704,0.2810,
6.431460,0.8985,2.7963,0.2439,0.1139,-0.1704,0.2810,
6.448031,-1.5346,-0.4195,-1.0161,0.1139,-0.1704,0.2810,
6.450351,-1.5346,-0.4195,-1.0161,-0.6658,-0.0568,0.4571,
6.496785,-1.5346,-0.4195,-1.0161,-0.6658,-0.0568,0.4571,
6.513550,-0.2402,0.9069,0.4177,-0.6658,-0.0568,0.4571,
6.515573,-0.2402,0.9069,0.4177,-0.5799,0.5408,0.3151,
6.561585,-0.2402,0.9069,0.4177,-0.5799,0.5408,0.3151,
6.577851,-0.1335,0.0109,-0.9315,-0.5799,0.5408,0.3151,
6.581019,-0.1335,0.0109,-0.9315,-0.6205,1.2002,0.1581,
6.626849,-0.1335,0.0109,-0.9315,-0.6205,1.2002,0.1581,
6.644402,-1.3306,-1.5601,0.0108,-0.6205,1.2002,0.1581,
6.646970,-1.3306,-1.5601,0.0108,-0.4882,1.1974,0.0655,
6.692491,-1.3306,-1.5601,0.0108,-0.4882,1.1974,0.0655,
6.708853,-1.1337,-0.7655,0.2953,-0.4882,1.1974,0.0655,
6.716430,-1.1337,-0.7655,0.2953,-0.3635,0.7146,0.0082,
6.758545,-1.1337,-0.7655,0.2953,-0.3635,0.7146,0.0082,
6.774463,-0.5766,-1.6560,1.2165,-0.3635,0.7146,0.0082,
6.777308,-0.5766,-1.6560,1.2165,0.1477,0.3176,0.0283,
6.822699,-0.5766,-1.6560,1.2165,0.1477,0.3176,0.0283,
6.839247,0.5542,0.2317,1.7142,0.1477,0.3176,0.0283,
6.842646,0.5542,0.2317,1.7142,0.0009,0.3083,0.0226,
6.888603,0.5542,0.2317,1.7142,0.0009,0.3083,0.0226,
6.904738,0.0047,0.9558,2.6446,0.0009,0.3083,0.0226,
6.907715,0.0047,0.9558,2.6446,-0.2717,0.1976,0.1785,
6.954474,0.0047,0.9558,2.6446,-0.2717,0.1976,0.1785,
6.971000,-0.5508,3.3586,-1.2369,-0.2717,0.1976,0.1785,
6.974035,-0.5508,3.3586,-1.2369,0.0851,-0.4392,-0.2123,
7.020475,-0.5508,3.3586,-1.2369,0.0851,-0.4392,-0.2123,
7.036516,-1.0839,-2.4142,-2.0468,0.0851,-0.4392,-0.2123,
7.038834,-1.0839,-2.4142,-2.0468,0.1045,0.0800,0.0027,
7.087450,-1.0839,-2.4142,-2.0468,0.1045,0.0800,0.0027,
7.100797,-0.4184,0.6770,-1.7303,0.1045,0.0800,0.0027,
7.104378,-0.4184,0.6770,-1.7303,0.6848,0.0043,-0.1759,
7.152053,-0.4184,0.6770,-1.7303,0.6848,0.0043,-0.1759,
7.166798,-1.4095,-0.5732,-1.2941,0.6848,0.0043,-0.1759,
7.170022,-1.4095,-0.5732,-1.2941,0.4520,-0.5043,-0.1750,
7.216835,-1.4095,-0.5732,-1.2941,0.4520,-0.5043,-0.1750,
7.232935,0.0568,-1.3562,-0.8540,0.4520,-0.5043,-0.1750,
7.236345,0.0568,-1.3562,-0.8540,0.5315,-0.8526,-0.0936,
7.284162,0.0568,-1.3562,-0.8540,0.5315,-0.8526,-0.0936,
7.298389,1.8554,-0.7103,-0.1909,0.5315,-0.8526,-0.0936,
7.300979,1.8554,-0.7103,-0.1909,0.4572,-0.5878,-0.1956,
7.348679,1.8554,-0.7103,-0.1909,0.4572,-0.5878,-0.1956,
7.364842,1.9769,-0.1819,0.3925,0.4572,-0.5878,-0.1956,
7.366903,1.9769,-0.1819,0.3925,0.3876,-0.0684,-0.2668,
7.412692,1.9769,-0.1819,0.3925,0.3876,-0.0684,-0.2668,
7.429646,1.3725,0.1972,0.9690,0.3876,-0.0684,-0.2668,
7.433132,1.3725,0.1972,0.9690,0.3312,-0.1330,-0.4021,
7.478743,1.3725,0.1972,0.9690,0.3312,-0.1330,-0.4021,
7.494384,1.8967,0.3628,-0.6740,0.3312,-0.1330,-0.4021,
7.497540,1.8967,0.3628,-0.6740,0.3137,-0.1979,-0.1352,
7.544124,1.8967,0.3628,-0.6740,0.3137,-0.1979,-0.1352,
7.560470,-0.5169,3.0090,-1.2472,0.3137,-0.1979,-0.1352,
7.563815,-0.5169,3.0090,-1.2472,-0.0203,-0.0906,0.4129,
7.609700,-0.5169,3.0090,-1.2472,-0.0203,-0.0906,0.4129,
7.626589,-1.5780,-0.7497,-0.5968,-0.0203,-0.0906,0.4129,
7.628626,-1.5780,-0.7497,-0.5968,-0.9038,-0.0235,0.5756,
7.676023,-1.5780,-0.7497,-0.5968,-0.9038,-0.0235,0.5756,
7.691170,0.8391,1.2141,-0.0799,-0.9038,-0.0235,0.5756,
7.696419,0.8391,1.2141,-0.0799,-0.6599,0.8563,0.2970,
7.742036,0.8391,1.2141,-0.0799,-0.6599,0.8563,0.2970,
7.757199,-0.1054,-0.5633,-1.1144,-0.6599,0.8563,0.2970,
7.762248,-0.1054,-0.5633,-1.1144,-0.5618,1.6748,0.2344,
7.806919,-0.1054,-0.5633,-1.1144,-0.5618,1.6748,0.2344,
7.820957,-1.7366,-1.0910,0.0627,-0.5618,1.6748,0.2344,
7.825391,-1.7366,-1.0910,0.0627,-0.3146,1.4290,0.1718,
7.871947,-1.7366,-1.0910,0.0627,-0.3146,1.4290,0.1718,
7.887890,-0.6548,-1.3860,-0.1504,-0.3146,1.4290,0.1718,
7.891178,-0.6548,-1.3860,-0.1504,-0.1167,0.9529,0.1985,
7.937903,-0.6548,-1.3860,-0.1504,-0.1167,0.9529,0.1985,
7.953111,0.3874,-1.3380,0.7648,-0.1167,0.9529,0.1985,
7.957034,0.3874,-1.3380,0.7648,0.2908,0.8613,0.0550,
8.002847,0.3874,-1.3380,0.7648,0.2908,0.8613,0.0550,
8.018683,0.3773,1.1302,1.1373,0.2908,0.8613,0.0550,
8.022035,0.3773,1.1302,1.1373,0.0681,0.9427,0.1173,
8.068492,0.3773,1.1302,1.1373,0.0681,0.9427,0.1173,
8.084417,-0.7494,0.4294,2.5912,0.0681,0.9427,0.1173,
8.088015,-0.7494,0.4294,2.5912,-0.3176,0.4742,0.3306,
8.133717,-0.7494,0.4294,2.5912,-0.3176,0.4742,0.3306,
8.149489,-0.7637,2.1960,-2.0320,-0.3176,0.4742,0.3306,
8.152956,-0.7637,2.1960,-2.0320,0.2833,-0.0698,-0.3401,
8.199457,-0.7637,2.1960,-2.0320,0.2833,-0.0698,-0.3401,
8.216620,-0.9389,-1.5016,-1.9083,0.2833,-0.0698,-0.3401,
8.218244,-0.9389,-1.5016,-1.9083,0.1237,0.0232,-0.0049,
8.264732,-0.9389,-1.5016,-1.9083,0.1237,0.0232,-0.0049,
8.281256,0.1907,-0.3144,-1.9910,0.1237,0.0232,-0.0049,
8.285074,0.1907,-0.3144,-1.9910,0.6477,0.1179,0.0249,
8.328797,0.1907,-0.3144,-1.9910,0.6477,0.1179,0.0249,
8.346272,-0.7339,-0.1404,-1.0459,0.6477,0.1179,0.0249,
8.348868,-0.7339,-0.1404,-1.0459,0.4620,-0.2627,-0.1481,
8.396624,-0.7339,-0.1404,-1.0459,0.4620,-0.2627,-0.1481,
8.411855,0.3478,-1.3621,-0.9388,0.4620,-0.2627,-0.1481,
8.415678,0.3478,-1.3621,-0.9388,0.5159,-0.6138,-0.1475,
8.460978,0.3478,-1.3621,-0.9388,0.5159,-0.6138,-0.1475,
8.476898,1.3006,-0.7979,-0.3432,0.5159,-0.6138,-0.1475,
8.481613,1.3006,-0.7979,-0.3432,0.5496,-0.4278,-0.3016,
8.526111,1.3006,-0.7979,-0.3432,0.5496,-0.4278,-0.3016,
8.542576,1.2613,0.0017,0.3916,0.5496,-0.4278,-0.3016,
8.545488,1.2613,0.0017,0.3916,0.3711,-0.3167,-0.2721,
8.592840,1.2613,0.0017,0.3916,0.3711,-0.3167,-0.2721,
8.608057,1.8558,0.2650,0.6210,0.3711,-0.3167,-0.2721,
8.611281,1.8558,0.2650,0.6210,0.2049,-0.4386,-0.2540,
8.657695,1.8558,0.2650,0.6210,0.2049,-0.4386,-0.2540,
8.674333,2.9378,-0.2333,-0.1921,0.2049,-0.4386,-0.2540,
8.677678,2.9378,-0.2333,-0.1921,0.2976,-0.2227,-0.1035,
8.721507,2.9378,-0.2333,-0.1921,0.2976,-0.2227,-0.1035,
8.737401,0.4581,2.8599,-1.6406,0.2976,-0.2227,-0.1035,
8.741598,0.4581,2.8599,-1.6406,0.0490,0.3140,0.3016,
8.787483,0.4581,2.8599,-1.6406,0.0490,0.3140,0.3016,
8.804390,-1.3354,-0.2364,-0.8519,0.0490,0.3140,0.3016,
8.810105,-1.3354,-0.2364,-0.8519,-0.7039,0.4727,0.5231,
8.853399,-1.3354,-0.2364,-0.8519,-0.7039,0.4727,0.5231,
8.871337,0.5881,1.1297,-0.6885,-0.7039,0.4727,0.5231,
8.874257,0.5881,1.1297,-0.6885,-0.5101,1.2205,0.3807,
8.919916,0.5881,1.1297,-0.6885,-0.5101,1.2205,0.3807,
8.936649,0.0284,-1.0570,-1.2912,-0.5101,1.2205,0.3807,
8.939185,0.0284,-1.0570,-1.2912,-0.4259,2.0530,0.3129,
8.983459,0.0284,-1.0570,-1.2912,-0.4259,2.0530,0.3129,
9.000378,-1.3038,-0.7134,-0.4565,-0.4259,2.0530,0.3129,
9.003697,-1.3038,-0.7134,-0.4565,-0.2877,1.9810,0.2584,
9.050267,-1.3038,-0.7134,-0.4565,-0.2877,1.9810,0.2584,
9.066180,-1.0259,-0.7189,-0.2074,-0.2877,1.9810,0.2584,
9.069336,-1.0259,-0.7189,-0.2074,-0.1910,1.2825,0.3651,
9.114585,-1.0259,-0.7189,-0.2074,-0.1910,1.2825,0.3651,
9.131151,-0.2610,-1.4035,0.4722,-0.1910,1.2825,0.3651,
9.134557,-0.2610,-1.4035,0.4722,0.1060,0.8109,0.1579,
9.179680,-0.2610,-1.4035,0.4722,0.1060,0.8109,0.1579,
9.196469,0.5219,0.7921,0.9993,0.1060,0.8109,0.1579,
9.200080,0.5219,0.7921,0.9993,0.0328,0.7508,0.0904,
9.246114,0.5219,0.7921,0.9993,0.0328,0.7508,0.0904,
9.263328,-0.5142,2.1103,1.6506,0.0328,0.7508,0.0904,
9.267275,-0.5142,2.1103,1.6506,-0.5143,0.6639,0.0976,
9.311221,-0.5142,2.1103,1.6506,-0.5143,0.6639,0.0976,
9.328696,-1.3163,0.9879,-1.9214,-0.5143,0.6639,0.0976,
9.331077,-1.3163,0.9879,-1.9214,0.1686,-0.1976,-0.3648,
9.376801,-1.3163,0.9879,-1.9214,0.1686,-0.1976,-0.3648,
9.394100,0.3692,-1.2038,-2.1113,0.1686,-0.1976,-0.3648,
9.396686,0.3692,-1.2038,-2.1113,0.2746,0.1614,-0.0220,
9.442572,0.3692,-1.2038,-2.1113,0.2746,0.1614,-0.0220,
9.459127,0.9203,-0.4368,-2.5943,0.2746,0.1614,-0.0220,
9.462002,0.9203,-0.4368,-2.5943,0.6585,0.4859,-0.1862,
9.508911,0.9203,-0.4368,-2.5943,0.6585,0.4859,-0.1862,
9.524690,-1.0552,-0.3802,-0.7550,0.6585,0.4859,-0.1862,
9.527617,-1.0552,-0.3802,-0.7550,0.5487,0.0754,-0.2902,
9.575341,-1.0552,-0.3802,-0.7550,0.5487,0.0754,-0.2902,
9.590830,0.2851,-1.3958,-0.7618,0.5487,0.0754,-0.2902,
9.593230,0.2851,-1.3958,-0.7618,0.5873,-0.5018,-0.1633,
9.639069,0.2851,-1.3958,-0.7618,0.5873,-0.5018,-0.1633,
9.655677,1.4052,-0.8132,-0.1967,0.5873,-0.5018,-0.1633,
9.658575,1.4052,-0.8132,-0.1967,0.4465,-0.4917,-0.2776,
9.705323,1.4052,-0.8132,-0.1967,0.4465,-0.4917,-0.2776,
9.721245,2.1685,-0.2416,0.1648,0.4465,-0.4917,-0.2776,
9.724729,2.1685,-0.2416,0.1648,0.2112,-0.3216,-0.1794,
9.772631,2.1685,-0.2416,0.1648,0.2112,-0.3216,-0.1794,
9.787971,2.1466,0.2477,0.0667,0.2112,-0.3216,-0.1794,
9.790691,2.1466,0.2477,0.0667,0.1584,-0.1032,-0.1666,
9.836016,2.1466,0.2477,0.0667,0.1584,-0.1032,-0.1666,
9.852575,2.0556,1.1038,-0.5483,0.1584,-0.1032,-0.1666,
9.855327,2.0556,1.1038,-0.5483,0.1804,-0.0608,0.1268,
9.900952,2.0556,1.1038,-0.5483,0.1804,-0.0608,0.1268,
9.919106,-0.0035,2.2435,-1.8888,0.1804,-0.0608,0.1268,
9.921954,-0.0035,2.2435,-1.8888,-0.2370,0.2673,0.5551,
9.966464,-0.0035,2.2435,-1.8888,-0.2370,0.2673,0.5551,
9.983071,-1.0023,0.2063,-0.5999,-0.2370,0.2673,0.5551,
9.986951,-1.0023,0.2063,-0.5999,-0.7074,0.5224,0.5534,
10.032712,-1.0023,0.2063,-0.5999,-0.7074,0.5224,0.5534,
10.048960,1.2309,0.9142,-1.0043,-0.7074,0.5224,0.5534,
10.052269,1.2309,0.9142,-1.0043,-0.5423,1.4157,0.3364,
10.097315,1.2309,0.9142,-1.0043,-0.5423,1.4157,0.3364,
10.113827,0.1138,-1.1869,-1.5084,-0.5423,1.4157,0.3364,
10.117295,0.1138,-1.1869,-1.5084,-0.3280,2.3529,0.2782,
10.163152,0.1138,-1.1869,-1.5084,-0.3280,2.3529,0.2782,
10.179311,-1.4284,-0.6346,-0.1305,-0.3280,2.3529,0.2782,
10.183540,-1.4284,-0.6346,-0.1305,-0.2897,1.9838,0.2017,
10.228478,-1.4284,-0.6346,-0.1305,-0.2897,1.9838,0.2017,
10.244430,-0.3631,-1.3516,-0.4671,-0.2897,1.9838,0.2017,
10.247741,-0.3631,-1.3516,-0.4671,0.0663,1.3134,0.3622,
10.293937,-0.3631,-1.3516,-0.4671,0.0663,1.3134,0.3622,
10.310429,0.3455,-1.5010,0.5456,0.0663,1.3134,0.3622,
10.312726,0.3455,-1.5010,0.5456,0.3387,1.0476,0.1228,
10.359639,0.3455,-1.5010,0.5456,0.3387,1.0476,0.1228,
10.376937,-0.0620,0.9376,0.9954,0.3387,1.0476,0.1228,
10.379737,-0.0620,0.9376,0.9954,0.0573,1.0719,0.1568,
10.426064,-0.0620,0.9376,0.9954,0.0573,1.0719,0.1568,
10.442411,-0.2749,-0.0428,2.3156,0.0573,1.0719,0.1568,
10.445844,-0.2749,-0.0428,2.3156,-0.0811,0.6121,0.2587,
10.491120,-0.2749,-0.0428,2.3156,-0.0811,0.6121,0.2587,
10.506447,-0.2493,4.1624,-1.7233,-0.0811,0.6121,0.2587,
10.510481,-0.2493,4.1624,-1.7233,0.0718,0.0154,-0.3650,
10.556926,-0.2493,4.1624,-1.7233,0.0718,0.0154,-0.3650,
10.571027,-0.3281,-1.7625,-1.8310,0.0718,0.0154,-0.3650,
10.574712,-0.3281,-1.7625,-1.8310,0.1823,0.1263,0.1368,
10.621435,-0.3281,-1.7625,-1.8310,0.1823,0.1263,0.1368,
10.637970,0.5961,-1.2251,-2.7510,0.1823,0.1263,0.1368,
10.641739,0.5961,-1.2251,-2.7510,0.7114,0.6745,-0.0591,
10.687291,0.5961,-1.2251,-2.7510,0.7114,0.6745,-0.0591,
10.703847,-0.7392,0.5983,-0.7633,0.7114,0.6745,-0.0591,
10.707363,-0.7392,0.5983,-0.7633,0.5015,-0.0018,-0.0976,
10.753808,-0.7392,0.5983,-0.7633,0.5015,-0.0018,-0.0976,
10.768999,0.6854,-1.0062,-0.8890,0.5015,-0.0018,-0.0976,
10.772611,0.6854,-1.0062,-0.8890,0.4542,-0.2940,0.0764,
10.819027,0.6854,-1.0062,-0.8890,0.4542,-0.2940,0.0764,
10.834780,1.8953,-0.9907,-0.5009,0.4542,-0.2940,0.0764,
10.837846,1.8953,-0.9907,-0.5009,0.5507,-0.1582,-0.1382,
10.883085,1.8953,-0.9907,-0.5009,0.5507,-0.1582,-0.1382,
10.900415,1.9452,-0.6392,-0.1698,0.5507,-0.1582,-0.1382,
10.903826,1.9452,-0.6392,-0.1698,0.4688,0.0672,-0.3693,
10.948945,1.9452,-0.6392,-0.1698,0.4688,0.0672,-0.3693,
10.966656,1.0900,0.0291,0.4380,0.4688,0.0672,-0.3693,
10.968869,1.0900,0.0291,0.4380,0.3219,-0.1333,-0.4122,
11.015407,1.0900,0.0291,0.4380,0.3219,-0.1333,-0.4122,
11.030286,1.7607,0.0221,0.4196,0.3219,-0.1333,-0.4122,
11.034952,1.7607,0.0221,0.4196,0.2546,-0.4444,-0.2214,
11.078730,1.7607,0.0221,0.4196,0.2546,-0.4444,-0.2214,
11.096648,1.4040,2.8743,-0.8670,0.2546,-0.4444,-0.2214,
11.099000,1.4040,2.8743,-0.8670,0.0357,-0.2689,0.3448,
11.145903,1.4040,2.8743,-0.8670,0.0357,-0.2689,0.3448,
11.163247,-1.0213,0.6496,-1.1243,0.0357,-0.2689,0.3448,
11.165968,-1.0213,0.6496,-1.1243,-0.8806,0.2399,0.8092,
11.211399,-1.0213,0.6496,-1.1243,-0.8806,0.2399,0.8092,
11.228109,1.2411,2.3645,-0.7774,-0.8806,0.2399,0.8092,
11.230653,1.2411,2.3645,-0.7774,-0.6840,1.1075,0.3954,
11.275608,1.2411,2.3645,-0.7774,-0.6840,1.1075,0.3954,
11.292567,-0.0076,-0.0687,-1.7396,-0.6840,1.1075,0.3954,
11.295829,-0.0076,-0.0687,-1.7396,-0.9325,2.0783,0.3348,
11.342790,-0.0076,-0.0687,-1.7396,-0.9325,2.0783,0.3348,
11.359290,-2.0775,-1.4733,-1.0065,-0.9325,2.0783,0.3348,
11.361769,-2.0775,-1.4733,-1.0065,-0.7619,1.8937,0.4061,
11.407947,-2.0775,-1.4733,-1.0065,-0.7619,1.8937,0.4061,
11.423217,-0.9482,-1.2464,-0.2473,-0.7619,1.8937,0.4061,
11.426841,-0.9482,-1.2464,-0.2473,-0.4956,1.0858,0.4780,
11.473164,-0.9482,-1.2464,-0.2473,-0.4956,1.0858,0.4780,
11.488695,0.6644,-2.2594,-0.0337,-0.4956,1.0858,0.4780,
11.491641,0.6644,-2.2594,-0.0337,0.2082,0.8406,0.2269,
11.538296,0.6644,-2.2594,-0.0337,0.2082,0.8406,0.2269,
11.554462,0.8643,-0.4690,0.9349,0.2082,0.8406,0.2269,
11.559029,0.8643,-0.4690,0.9349,0.3282,0.9064,0.0487,
11.604423,0.8643,-0.4690,0.9349,0.3282,0.9064,0.0487,
11.620811,-0.2879,0.7958,1.9870,0.3282,0.9064,0.0487,
11.622664,-0.2879,0.7958,1.9870,0.0910,0.7844,0.1819,
11.670473,-0.2879,0.7958,1.9870,0.0910,0.7844,0.1819,
11.685304,0.1362,0.5169,1.9972,0.0910,0.7844,0.1819,
11.688398,0.1362,0.5169,1.9972,-0.1520,0.2323,0.2477,
11.735700,0.1362,0.5169,1.9972,-0.1520,0.2323,0.2477,
11.750663,-1.1448,3.4955,-2.8209,-0.1520,0.2323,0.2477,
11.753872,-1.1448,3.4955,-2.8209,0.1828,-0.1434,-0.4400,
11.799160,-1.1448,3.4955,-2.8209,0.1828,-0.1434,-0.4400,
11.816511,-0.4089,-1.9556,-2.6702,0.1828,-0.1434,-0.4400,
11.819010,-0.4089,-1.9556,-2.6702,0.3919,0.1536,0.0116,
11.865895,-0.4089,-1.9556,-2.6702,0.3919,0.1536,0.0116,
11.881461,-0.3758,0.7179,-1.5029,0.3919,0.1536,0.0116,
11.885952,-0.3758,0.7179,-1.5029,0.7920,-0.0655,-0.1156,
11.930891,-0.3758,0.7179,-1.5029,0.7920,-0.0655,-0.1156,
11.946409,-0.2894,-0.9297,-1.1544,0.7920,-0.0655,-0.1156,
11.949836,-0.2894,-0.9297,-1.1544,0.4600,-0.5472,-0.0608,
11.996121,-0.2894,-0.9297,-1.1544,0.4600,-0.5472,-0.0608,
12.012490,1.1293,-1.4333,-0.5281,0.4600,-0.5472,-0.0608,
12.016893,1.1293,-1.4333,-0.5281,0.6898,-0.4339,-0.2188,
12.061565,1.1293,-1.4333,-0.5281,0.6898,-0.4339,-0.2188,
12.077454,1.6154,-0.6503,-0.1222,0.6898,-0.4339,-0.2188,
12.081182,1.6154,-0.6503,-0.1222,0.5391,-0.3012,-0.3122,
12.126734,1.6154,-0.6503,-0.1222,0.5391,-0.3012,-0.3122,
12.143385,1.7514,-0.3823,0.1209,0.5391,-0.3012,-0.3122,
12.146560,1.7514,-0.3823,0.1209,0.3723,-0.1575,-0.2773,
12.192471,1.7514,-0.3823,0.1209,0.3723,-0.1575,-0.2773,
12.208769,1.4470,-0.0023,0.3030,0.3723,-0.1575,-0.2773,
12.212027,1.4470,-0.0023,0.3030,0.3007,-0.2450,-0.2329,
12.259263,1.4470,-0.0023,0.3030,0.3007,-0.2450,-0.2329,
12.273808,2.0028,0.6626,0.0041,0.3007,-0.2450,-0.2329,
12.277083,2.0028,0.6626,0.0041,0.2851,-0.4323,-0.1379,
12.324385,2.0028,0.6626,0.0041,0.2851,-0.4323,-0.1379,
12.341482,0.4953,2.7620,-1.4033,0.2851,-0.4323,-0.1379,
12.343597,0.4953,2.7620,-1.4033,-0.1231,-0.1793,0.4516,
12.388158,0.4953,2.7620,-1.4033,-0.1231,-0.1793,0.4516,
12.405316,-1.1962,-0.1242,-0.7012,-0.1231,-0.1793,0.4516,
12.408012,-1.1962,-0.1242,-0.7012,-0.8080,0.2595,0.7598,
12.456321,-1.1962,-0.1242,-0.7012,-0.8080,0.2595,0.7598,
12.470966,0.5758,1.9408,-0.4659,-0.8080,0.2595,0.7598,
12.474973,0.5758,1.9408,-0.4659,-0.6938,0.9003,0.3577,
12.519703,0.5758,1.9408,-0.4659,-0.6938,0.9003,0.3577,
12.536041,0.1329,-0.8231,-1.2878,-0.6938,0.9003,0.3577,
12.539169,0.1329,-0.8231,-1.2878,-0.7210,1.8092,0.3939,
12.586642,0.1329,-0.8231,-1.2878,-0.7210,1.8092,0.3939,
12.601650,-1.6779,-0.9563,-0.3111,-0.7210,1.8092,0.3939,
12.605693,-1.6779,-0.9563,-0.3111,-0.4748,1.6799,0.3225,
12.651312,-1.6779,-0.9563,-0.3111,-0.4748,1.6799,0.3225,
12.667632,-1.3068,-1.1587,0.1826,-0.4748,1.6799,0.3225,
12.672410,-1.3068,-1.1587,0.1826,-0.2833,0.7566,0.3751,
12.716894,-1.3068,-1.1587,0.1826,-0.2833,0.7566,0.3751,
12.734607,0.3002,-2.4450,0.5521,-0.2833,0.7566,0.3751,
12.737191,0.3002,-2.4450,0.5521,0.3554,0.5307,0.1455,
12.783500,0.3002,-2.4450,0.5521,0.3554,0.5307,0.1455,
12.799081,0.8401,-0.1829,0.8956,0.3554,0.5307,0.1455,
12.802689,0.8401,-0.1829,0.8956,0.3705,0.7778,-0.1193,
12.846556,0.8401,-0.1829,0.8956,0.3705,0.7778,-0.1193,
12.865065,0.4862,0.5327,2.0609,0.3705,0.7778,-0.1193,
12.868885,0.4862,0.5327,2.0609,-0.0499,0.5533,0.2703,
12.912499,0.4862,0.5327,2.0609,-0.0499,0.5533,0.2703,
12.929334,-0.7106,4.6281,0.2553,-0.0499,0.5533,0.2703,
12.932861,-0.7106,4.6281,0.2553,-0.1309,0.1457,-0.1075,
12.978738,-0.7106,4.6281,0.2553,-0.1309,0.1457,-0.1075,
12.994446,-1.5972,-0.3094,-2.2770,-0.1309,0.1457,-0.1075,
12.997594,-1.5972,-0.3094,-2.2770,-0.0217,-0.3531,-0.1014,
13.043671,-1.5972,-0.3094,-2.2770,-0.0217,-0.3531,-0.1014,
13.059846,-0.6469,-0.5928,-1.9208,-0.0217,-0.3531,-0.1014,
13.063397,-0.6469,-0.5928,-1.9208,0.5426,-0.1907,-0.0730,
13.109735,-0.6469,-0.5928,-1.9208,0.5426,-0.1907,-0.0730,
13.125896,-1.3199,0.6899,-1.3611,0.5426,-0.1907,-0.0730,
13.128764,-1.3199,0.6899,-1.3611,0.4672,-1.0026,-0.0791,
13.174207,-1.3199,0.6899,-1.3611,0.4672,-1.0026,-0.0791,
13.191055,-0.2857,-1.6331,-0.9943,0.4672,-1.0026,-0.0791,
13.194368,-0.2857,-1.6331,-0.9943,0.3903,-1.3230,-0.0721,
13.242144,-0.2857,-1.6331,-0.9943,0.3903,-1.3230,-0.0721,
13.256841,1.5803,-0.6184,-0.4252,0.3903,-1.3230,-0.0721,
13.260388,1.5803,-0.6184,-0.4252,0.4618,-1.1301,-0.2900,
13.305846,1.5803,-0.6184,-0.4252,0.4618,-1.1301,-0.2900,
13.322458,2.0841,-0.9347,0.1587,0.4618,-1.1301,-0.2900,
13.325342,2.0841,-0.9347,0.1587,0.3173,-0.6176,-0.3740,
13.371379,2.0841,-0.9347,0.1587,0.3173,-0.6176,-0.3740,
13.389001,1.5730,-0.7881,0.7215,0.3173,-0.6176,-0.3740,
13.391591,1.5730,-0.7881,0.7215,0.2779,-0.3030,-0.4414,
13.435854,1.5730,-0.7881,0.7215,0.2779,-0.3030,-0.4414,
13.453046,1.5553,-0.0335,0.4101,0.2779,-0.3030,-0.4414,
13.456808,1.5553,-0.0335,0.4101,0.2308,-0.5006,-0.2621,
13.502532,1.5553,-0.0335,0.4101,0.2308,-0.5006,-0.2621,
13.518088,1.6673,1.2448,0.0690,0.2308,-0.5006,-0.2621,
13.522108,1.6673,1.2448,0.0690,0.1842,-0.3520,0.0121,
13.567690,1.6673,1.2448,0.0690,0.1842,-0.3520,0.0121,
13.583947,-0.0847,2.4060,-1.7732,0.1842,-0.3520,0.0121,
13.587502,-0.0847,2.4060,-1.7732,-0.4693,0.1981,0.6796,
13.633049,-0.0847,2.4060,-1.7732,-0.4693,0.1981,0.6796,
13.649442,-0.9294,0.3239,0.0156,-0.4693,0.1981,0.6796,
13.652513,-0.9294,0.3239,0.0156,-0.7601,0.5719,0.5799,
13.697949,-0.9294,0.3239,0.0156,-0.7601,0.5719,0.5799,
13.715184,0.4706,0.8346,-1.0141,-0.7601,0.5719,0.5799,
13.720357,0.4706,0.8346,-1.0141,-0.6272,1.4306,0.2063,
13.764355,0.4706,0.8346,-1.0141,-0.6272,1.4306,0.2063,
13.781241,-0.6005,-1.0801,-0.8151,-0.6272,1.4306,0.2063,
13.785094,-0.6005,-1.0801,-0.8151,-0.3974,1.9403,0.1539,
13.829806,-0.6005,-1.0801,-0.8151,-0.3974,1.9403,0.1539,
13.845199,-1.9257,-1.1484,0.1522,-0.3974,1.9403,0.1539,
13.849246,-1.9257,-1.1484,0.1522,-0.3051,1.2845,0.0588,
13.896315,-1.9257,-1.1484,0.1522,-0.3051,1.2845,0.0588,
13.912443,-1.1373,-1.7446,0.4114,-0.3051,1.2845,0.0588,
13.914741,-1.1373,-1.7446,0.4114,0.1110,0.5130,0.0977,
13.961266,-1.1373,-1.7446,0.4114,0.1110,0.5130,0.0977,
13.978763,0.4837,-1.2123,1.0823,0.1110,0.5130,0.0977,
13.981795,0.4837,-1.2123,1.0823,0.2242,0.3270,-0.0484,
14.027630,0.4837,-1.2123,1.0823,0.2242,0.3270,-0.0484,
14.042749,0.6005,1.1336,1.9854,0.2242,0.3270,-0.0484,
14.045628,0.6005,1.1336,1.9854,-0.1804,0.5127,0.1110,
14.092568,0.6005,1.1336,1.9854,-0.1804,0.5127,0.1110,
14.107965,0.1951,1.9707,1.7889,-0.1804,0.5127,0.1110,
14.112048,0.1951,1.9707,1.7889,-0.4490,0.3314,0.1553,
14.156891,0.1951,1.9707,1.7889,-0.4490,0.3314,0.1553,
14.174284,-1.3359,1.8561,-1.8400,-0.4490,0.3314,0.1553,
14.176660,-1.3359,1.8561,-1.8400,-0.1008,-0.0553,-0.3442,
14.222459,-1.3359,1.8561,-1.8400,-0.1008,-0.0553,-0.3442,
14.239465,0.3087,-1.8989,-2.7238,-0.1008,-0.0553,-0.3442,
14.241605,0.3087,-1.8989,-2.7238,0.3751,0.2844,0.0272,
14.287546,0.3087,-1.8989,-2.7238,0.3751,0.2844,0.0272,
14.304529,-0.0615,0.4311,-1.6407,0.3751,0.2844,0.0272,
14.307474,-0.0615,0.4311,-1.6407,0.6852,0.3057,-0.1529,
14.353650,-0.0615,0.4311,-1.6407,0.6852,0.3057,-0.1529,
14.369825,-0.6273,-0.4033,-0.9226,0.6852,0.3057,-0.1529,
14.373546,-0.6273,-0.4033,-0.9226,0.5214,-0.3989,-0.0893,
14.419125,-0.6273,-0.4033,-0.9226,0.5214,-0.3989,-0.0893,
14.435351,1.2451,-1.4969,-0.7744,0.5214,-0.3989,-0.0893,
14.441303,1.2451,-1.4969,-0.7744,0.6779,-0.3903,-0.2434,
14.485810,1.2451,-1.4969,-0.7744,0.6779,-0.3903,-0.2434,
14.501981,1.4157,-0.6936,-0.2780,0.6779,-0.3903,-0.2434,
14.504484,1.4157,-0.6936,-0.2780,0.5768,-0.2005,-0.3861,
14.550153,1.4157,-0.6936,-0.2780,0.5768,-0.2005,-0.3861,
14.567214,1.7611,-0.4160,0.3442,0.5768,-0.2005,-0.3861,
14.570357,1.7611,-0.4160,0.3442,0.3253,-0.2104,-0.3409,
14.616740,1.7611,-0.4160,0.3442,0.3253,-0.2104,-0.3409,
14.635070,1.8121,-0.0510,0.8587,0.3253,-0.2104,-0.3409,
14.637894,1.8121,-0.0510,0.8587,0.1735,-0.2162,-0.2039,
14.681489,1.8121,-0.0510,0.8587,0.1735,-0.2162,-0.2039,
14.698685,2.3590,1.5058,-0.4181,0.1735,-0.2162,-0.2039,
14.700598,2.3590,1.5058,-0.4181,0.1933,-0.1541,0.0454,
14.746088,2.3590,1.5058,-0.4181,0.1933,-0.1541,0.0454,
14.764826,0.1734,1.7866,-1.7812,0.1933,-0.1541,0.0454,
14.767167,0.1734,1.7866,-1.7812,-0.5716,0.2191,0.6225,
14.812304,0.1734,1.7866,-1.7812,-0.5716,0.2191,0.6225,
14.829387,0.5719,1.1343,-0.4888,-0.5716,0.2191,0.6225,
14.831815,0.5719,1.1343,-0.4888,-0.7046,0.9592,0.5414,
14.878399,0.5719,1.1343,-0.4888,-0.7046,0.9592,0.5414,
14.893692,1.1781,0.7102,-1.7583,-0.7046,0.9592,0.5414,
14.896257,1.1781,0.7102,-1.7583,-0.6330,2.0791,0.2417,
14.943129,1.1781,0.7102,-1.7583,-0.6330,2.0791,0.2417,
14.960494,-0.7681,-1.3599,-1.3139,-0.6330,2.0791,0.2417,
14.963697,-0.7681,-1.3599,-1.3139,-0.5221,2.4946,0.2101,
15.008343,-0.7681,-1.3599,-1.3139,-0.5221,2.4946,0.2101,
15.025285,-1.9868,-0.4866,-0.2926,-0.5221,2.4946,0.2101,
15.029075,-1.9868,-0.4866,-0.2926,-0.4175,1.7700,0.3416,
15.074734,-1.9868,-0.4866,-0.2926,-0.4175,1.7700,0.3416,
15.091570,-0.3513,-2.0806,-0.1402,-0.4175,1.7700,0.3416,
15.094101,-0.3513,-2.0806,-0.1402,0.0869,0.7796,0.5962,
15.139296,-0.3513,-2.0806,-0.1402,0.0869,0.7796,0.5962,
15.155885,1.1723,-2.2307,0.4721,0.0869,0.7796,0.5962,
15.159670,1.1723,-2.2307,0.4721,0.6243,0.8470,0.1466,
15.206587,1.1723,-2.2307,0.4721,0.6243,0.8470,0.1466,
15.222179,0.1136,1.5617,1.4198,0.6243,0.8470,0.1466,
15.224529,0.1136,1.5617,1.4198,-0.0403,0.9982,0.0124,
15.271933,0.1136,1.5617,1.4198,-0.0403,0.9982,0.0124,
15.287240,0.5408,1.1868,1.8555,-0.0403,0.9982,0.0124,
15.289983,0.5408,1.1868,1.8555,-0.5127,0.1694,0.4476,
15.335914,0.5408,1.1868,1.8555,-0.5127,0.1694,0.4476,
15.351789,-1.2334,3.6520,-2.0754,-0.5127,0.1694,0.4476,
15.356646,-1.2334,3.6520,-2.0754,0.0034,0.1852,-0.3509,
15.402164,-1.2334,3.6520,-2.0754,0.0034,0.1852,-0.3509,
15.417837,-0.7060,-1.9897,-2.4949,0.0034,0.1852,-0.3509,
15.421598,-0.7060,-1.9897,-2.4949,0.3290,0.2967,0.0535,
15.466340,-0.7060,-1.9897,-2.4949,0.3290,0.2967,0.0535,
15.484987,-0.6169,0.7368,-1.5932,0.3290,0.2967,0.0535,
15.488014,-0.6169,0.7368,-1.5932,0.8389,0.0687,-0.0898,
15.533186,-0.6169,0.7368,-1.5932,0.8389,0.0687,-0.0898,
15.549305,-1.0046,-0.7980,-0.9771,0.8389,0.0687,-0.0898,
15.553132,-1.0046,-0.7980,-0.9771,0.4699,-0.6823,0.0747,
15.599112,-1.0046,-0.7980,-0.9771,0.4699,-0.6823,0.0747,
15.615435,1.0710,-1.4523,-0.5074,0.4699,-0.6823,0.0747,
15.617485,1.0710,-1.4523,-0.5074,0.6461,-0.8622,-0.1895,
15.665131,1.0710,-1.4523,-0.5074,0.6461,-0.8622,-0.1895,
15.679764,2.3043,-0.6580,-0.2360,0.6461,-0.8622,-0.1895,
15.684832,2.3043,-0.6580,-0.2360,0.4962,-0.3935,-0.2929,
15.728529,2.3043,-0.6580,-0.2360,0.4962,-0.3935,-0.2929,
15.745737,2.0020,-0.4047,0.6385,0.4962,-0.3935,-0.2929,
15.753426,2.0020,-0.4047,0.6385,0.3754,-0.0588,-0.3625,
15.794472,2.0020,-0.4047,0.6385,0.3754,-0.0588,-0.3625,
15.810644,1.9877,0.5380,0.0833,0.3754,-0.0588,-0.3625,
15.815258,1.9877,0.5380,0.0833,0.3905,-0.1196,-0.3094,
15.859325,1.9877,0.5380,0.0833,0.3905,-0.1196,-0.3094,
15.875969,1.3351,2.3298,0.0066,0.3905,-0.1196,-0.3094,
15.879521,1.3351,2.3298,0.0066,0.0722,-0.0958,0.0527,
15.924918,1.3351,2.3298,0.0066,0.0722,-0.0958,0.0527,
15.941520,-0.7347,1.5454,-1.5756,0.0722,-0.0958,0.0527,
15.944838,-0.7347,1.5454,-1.5756,-0.5400,0.0738,0.7376,
15.990323,-0.7347,1.5454,-1.5756,-0.5400,0.0738,0.7376,
16.008683,-0.9682,0.7203,-0.1817,-0.5400,0.0738,0.7376,
16.011026,-0.9682,0.7203,-0.1817,-0.8445,0.3624,0.6851,
16.055607,-0.9682,0.7203,-0.1817,-0.8445,0.3624,0.6851,
16.072451,1.0946,1.3371,-1.0981,-0.8445,0.3624,0.6851,
16.075286,1.0946,1.3371,-1.0981,-0.6211,1.1608,0.2918,
16.122903,1.0946,1.3371,-1.0981,-0.6211,1.1608,0.2918,
16.138024,-0.2101,-1.6779,-1.3589,-0.6211,1.1608,0.2918,
16.140628,-0.2101,-1.6779,-1.3589,-0.5371,2.0655,0.2185,
16.186416,-0.2101,-1.6779,-1.3589,-0.5371,2.0655,0.2185,
16.204445,-2.1500,-1.0135,-0.1111,-0.5371,2.0655,0.2185,
16.206799,-2.1500,-1.0135,-0.1111,-0.3160,1.6816,0.1197,
16.253322,-2.1500,-1.0135,-0.1111,-0.3160,1.6816,0.1197,
16.268792,-1.4139,-1.8504,0.3636,-0.3160,1.6816,0.1197,
16.272631,-1.4139,-1.8504,0.3636,0.1677,0.6405,0.2833,
16.317932,-1.4139,-1.8504,0.3636,0.1677,0.6405,0.2833,
16.334032,0.5975,-1.8545,0.7568,0.1677,0.6405,0.2833,
16.337766,0.5975,-1.8545,0.7568,0.4820,0.3804,0.0182,
16.382077,0.5975,-1.8545,0.7568,0.4820,0.3804,0.0182,
16.400107,0.7518,1.7698,1.3801,0.4820,0.3804,0.0182,
16.404707,0.7518,1.7698,1.3801,-0.1187,0.6645,-0.0747,
16.449588,0.7518,1.7698,1.3801,-0.1187,0.6645,-0.0747,
16.467150,0.3223,0.6896,2.2383,-0.1187,0.6645,-0.0747,
16.469990,0.3223,0.6896,2.2383,-0.3398,0.2138,0.2680,
16.514370,0.3223,0.6896,2.2383,-0.3398,0.2138,0.2680,
16.531002,-1.4273,3.1509,-1.6607,-0.3398,0.2138,0.2680,
16.535998,-1.4273,3.1509,-1.6607,-0.0075,0.1139,-0.4458,
16.579699,-1.4273,3.1509,-1.6607,-0.0075,0.1139,-0.4458,
16.597057,-0.8640,-1.6833,-2.5283,-0.0075,0.1139,-0.4458,
16.601124,-0.8640,-1.6833,-2.5283,0.2216,-0.1400,-0.0009,
16.645418,-0.8640,-1.6833,-2.5283,0.2216,-0.1400,-0.0009,
16.662895,-0.5074,-0.1488,-1.5209,0.2216,-0.1400,-0.0009,
16.667622,-0.5074,-0.1488,-1.5209,0.6927,0.0089,-0.0921,
16.711376,-0.5074,-0.1488,-1.5209,0.6927,0.0089,-0.0921,
16.728097,-0.6185,0.0570,-0.9811,0.6927,0.0089,-0.0921,
16.731266,-0.6185,0.0570,-0.9811,0.4722,-0.7647,0.0496,
16.775461,-0.6185,0.0570,-0.9811,0.4722,-0.7647,0.0496,
16.792642,1.2435,-1.3614,-0.7321,0.4722,-0.7647,0.0496,
16.795601,1.2435,-1.3614,-0.7321,0.4985,-0.7074,-0.1443,
16.841597,1.2435,-1.3614,-0.7321,0.4985,-0.7074,-0.1443,
16.858550,1.5810,-0.7923,-0.2064,0.4985,-0.7074,-0.1443,
16.861824,1.5810,-0.7923,-0.2064,0.5020,-0.2637,-0.3112,
16.908509,1.5810,-0.7923,-0.2064,0.5020,-0.2637,-0.3112,
16.923959,1.4790,-0.6586,0.3458,0.5020,-0.2637,-0.3112,
16.926864,1.4790,-0.6586,0.3458,0.3995,-0.1779,-0.3341,
16.974239,1.4790,-0.6586,0.3458,0.3995,-0.1779,-0.3341,
16.989297,1.1120,-0.1030,0.2737,0.3995,-0.1779,-0.3341,
16.992607,1.1120,-0.1030,0.2737,0.3036,-0.2501,-0.3600,
17.039373,1.1120,-0.1030,0.2737,0.3036,-0.2501,-0.3600,
17.055935,2.5104,0.2052,0.6631,0.3036,-0.2501,-0.3600,
17.057992,2.5104,0.2052,0.6631,0.3629,-0.3215,-0.0883,
17.104487,2.5104,0.2052,0.6631,0.3629,-0.3215,-0.0883,
17.119852,0.8147,2.6108,0.5175,0.3629,-0.3215,-0.0883,
17.122999,0.8147,2.6108,0.5175,0.1489,-0.3063,0.3236,
17.168649,0.8147,2.6108,0.5175,0.1489,-0.3063,0.3236,
17.185410,-1.2225,0.4892,-1.2031,0.1489,-0.3063,0.3236,
17.188090,-1.2225,0.4892,-1.2031,-0.5835,0.1072,0.8648,
17.235063,-1.2225,0.4892,-1.2031,-0.5835,0.1072,0.8648,
17.250836,-1.7800,1.5304,0.3138,-0.5835,0.1072,0.8648,
17.254097,-1.7800,1.5304,0.3138,-0.7040,0.4186,0.5716,
17.299367,-1.7800,1.5304,0.3138,-0.7040,0.4186,0.5716,
17.315836,-0.1042,0.5804,-0.8320,-0.7040,0.4186,0.5716,
17.319647,-0.1042,0.5804,-0.8320,-0.8231,0.9015,0.2379,
17.366598,-0.1042,0.5804,-0.8320,-0.8231,0.9015,0.2379,
17.383933,-1.1388,-1.6078,-0.7807,-0.8231,0.9015,0.2379,
17.387001,-1.1388,-1.6078,-0.7807,-0.6599,1.1299,0.1860,
17.432260,-1.1388,-1.6078,-0.7807,-0.6599,1.1299,0.1860,
17.448739,-2.0753,-1.0653,0.6701,-0.6599,1.1299,0.1860,
17.453058,-2.0753,-1.0653,0.6701,-0.4432,0.5044,-0.0434,
17.496728,-2.0753,-1.0653,0.6701,-0.4432,0.5044,-0.0434,
17.514141,-0.6200,-2.1857,1.1365,-0.4432,0.5044,-0.0434,
17.517519,-0.6200,-2.1857,1.1365,0.2926,-0.0194,-0.0304,
17.562013,-0.6200,-2.1857,1.1365,0.2926,-0.0194,-0.0304,
17.578971,1.0886,-0.9504,1.7891,0.2926,-0.0194,-0.0304,
17.581991,1.0886,-0.9504,1.7891,0.3960,0.3050,-0.1031,
17.629336,1.0886,-0.9504,1.7891,0.3960,0.3050,-0.1031,
17.644947,0.3132,1.3060,2.1789,0.3960,0.3050,-0.1031,
17.647531,0.3132,1.3060,2.1789,0.0037,0.4601,0.0777,
17.691941,0.3132,1.3060,2.1789,0.0037,0.4601,0.0777,
17.710236,-0.7298,4.4169,1.2611,0.0037,0.4601,0.0777,
17.712933,-0.7298,4.4169,1.2611,-0.6127,-0.0774,0.1002,
17.758801,-0.7298,4.4169,1.2611,-0.6127,-0.0774,0.1002,
17.775025,-2.1209,-0.5978,-1.0119,-0.6127,-0.0774,0.1002,
17.778423,-2.1209,-0.5978,-1.0119,0.0324,-0.4578,-0.1159,
17.824357,-2.1209,-0.5978,-1.0119,0.0324,-0.4578,-0.1159,
17.840676,-0.7609,-1.4298,-1.8994,0.0324,-0.4578,-0.1159,
17.843630,-0.7609,-1.4298,-1.8994,0.6185,-0.1416,-0.0983,
17.890369,-0.7609,-1.4298,-1.8994,0.6185,-0.1416,-0.0983,
17.907142,-1.8618,0.2028,-1.1271,0.6185,-0.1416,-0.0983,
17.910442,-1.8618,0.2028,-1.1271,0.5799,-0.9090,-0.1776,
17.955757,-1.8618,0.2028,-1.1271,0.5799,-0.9090,-0.1776,
17.972271,-1.4458,-0.8299,-1.4385,0.5799,-0.9090,-0.1776,
17.975311,-1.4458,-0.8299,-1.4385,0.3830,-1.5832,-0.1164,
18.020899,-1.4458,-0.8299,-1.4385,0.3830,-1.5832,-0.1164,
18.036496,0.4870,-0.5765,-0.8032,0.3830,-1.5832,-0.1164,
18.039808,0.4870,-0.5765,-0.8032,0.3764,-1.8017,-0.2474,
18.086958,0.4870,-0.5765,-0.8032,0.3764,-1.8017,-0.2474,
18.101582,1.8434,-0.6186,0.1320,0.3764,-1.8017,-0.2474,
18.105519,1.8434,-0.6186,0.1320,0.1683,-1.2607,-0.2744,
18.152576,1.8434,-0.6186,0.1320,0.1683,-1.2607,-0.2744,
18.167109,1.8237,-0.1089,1.1387,0.1683,-1.2607,-0.2744,
18.170773,1.8237,-0.1089,1.1387,0.1662,-0.8154,-0.3593,
18.216944,1.8237,-0.1089,1.1387,0.1662,-0.8154,-0.3593,
18.232858,2.2036,0.3569,0.8288,0.1662,-0.8154,-0.3593,
18.236677,2.2036,0.3569,0.8288,0.1463,-0.6167,-0.2236,
18.284343,2.2036,0.3569,0.8288,0.1463,-0.6167,-0.2236,
18.299897,0.6408,2.1720,0.4465,0.1463,-0.6167,-0.2236,
18.302733,0.6408,2.1720,0.4465,-0.0878,-0.3633,0.1176,
18.349063,0.6408,2.1720,0.4465,-0.0878,-0.3633,0.1176,
18.367679,-1.6492,0.8705,-0.8871,-0.0878,-0.3633,0.1176,
18.369847,-1.6492,0.8705,-0.8871,-0.7975,-0.5324,0.6350,
18.412056,-1.6492,0.8705,-0.8871,-0.7975,-0.5324,0.6350,
18.428916,-0.5725,1.2450,0.1118,-0.7975,-0.5324,0.6350,
18.432409,-0.5725,1.2450,0.1118,-0.8416,0.0255,0.5383,
18.478780,-0.5725,1.2450,0.1118,-0.8416,0.0255,0.5383,
18.496566,0.2927,0.0395,-0.5393,-0.8416,0.0255,0.5383,
18.500465,0.2927,0.0395,-0.5393,-0.7680,0.8596,0.1727,
18.544749,0.2927,0.0395,-0.5393,-0.7680,0.8596,0.1727,
18.563253,-1.0142,-1.6706,-0.6148,-0.7680,0.8596,0.1727,
18.566256,-1.0142,-1.6706,-0.6148,-0.5837,1.2103,0.0434,
18.609683,-1.0142,-1.6706,-0.6148,-0.5837,1.2103,0.0434,
18.627416,-1.3714,-1.0037,0.6630,-0.5837,1.2103,0.0434,
18.630014,-1.3714,-1.0037,0.6630,-0.2483,0.6533,-0.0579,
18.675697,-1.3714,-1.0037,0.6630,-0.2483,0.6533,-0.0579,
18.692724,-0.1774,-1.9933,0.8307,-0.2483,0.6533,-0.0579,
18.695101,-0.1774,-1.9933,0.8307,0.3083,0.2540,-0.0715,
18.741700,-0.1774,-1.9933,0.8307,0.3083,0.2540,-0.0715,
18.758792,0.6466,0.2040,1.1871,0.3083,0.2540,-0.0715,
18.760992,0.6466,0.2040,1.1871,0.1251,0.3845,-0.0667,
18.807662,0.6466,0.2040,1.1871,0.1251,0.3845,-0.0667,
18.824943,-0.0784,1.0584,2.2845,0.1251,0.3845,-0.0667,
18.827497,-0.0784,1.0584,2.2845,-0.2844,0.2236,0.0785,
18.872689,-0.0784,1.0584,2.2845,-0.2844,0.2236,0.0785,
18.888723,0.4453,2.8146,0.6705,-0.2844,0.2236,0.0785,
18.892045,0.4453,2.8146,0.6705,-0.4780,-0.0403,0.2497,
18.938649,0.4453,2.8146,0.6705,-0.4780,-0.0403,0.2497,
18.953055,-1.2206,-0.1764,-1.6108,-0.4780,-0.0403,0.2497,
18.958589,-1.2206,-0.1764,-1.6108,-0.0386,-0.0643,-0.2749,
19.002447,-1.2206,-0.1764,-1.6108,-0.0386,-0.0643,-0.2749,
19.018733,-0.1317,-1.7878,-2.2290,-0.0386,-0.0643,-0.2749,
19.023239,-0.1317,-1.7878,-2.2290,0.4719,0.3036,0.0203,
19.069433,-0.1317,-1.7878,-2.2290,0.4719,0.3036,0.0203,
19.084711,-0.8617,0.6273,-1.1704,0.4719,0.3036,0.0203,
19.087676,-0.8617,0.6273,-1.1704,0.6078,-0.2344,-0.0841,
19.134105,-0.8617,0.6273,-1.1704,0.6078,-0.2344,-0.0841,
19.151640,-0.2792,-1.0845,-0.8615,0.6078,-0.2344,-0.0841,
19.154021,-0.2792,-1.0845,-0.8615,0.3532,-0.7482,-0.0278,
19.201175,-0.2792,-1.0845,-0.8615,0.3532,-0.7482,-0.0278,
19.216577,1.5224,-0.9819,-0.5619,0.3532,-0.7482,-0.0278,
19.218971,1.5224,-0.9819,-0.5619,0.5079,-0.5348,-0.2770,
19.264125,1.5224,-0.9819,-0.5619,0.5079,-0.5348,-0.2770,
19.282958,1.4806,-0.4913,-0.0013,0.5079,-0.5348,-0.2770,
19.285143,1.4806,-0.4913,-0.0013,0.4354,-0.1570,-0.4055,
19.330497,1.4806,-0.4913,-0.0013,0.4354,-0.1570,-0.4055,
19.347818,1.2866,0.0890,0.5569,0.4354,-0.1570,-0.4055,
19.351580,1.2866,0.0890,0.5569,0.3250,-0.1367,-0.3827,
19.395576,1.2866,0.0890,0.5569,0.3250,-0.1367,-0.3827,
19.412938,2.0124,0.2867,0.6107,0.3250,-0.1367,-0.3827,
19.417220,2.0124,0.2867,0.6107,0.2370,-0.3487,-0.1364,
19.460703,2.0124,0.2867,0.6107,0.2370,-0.3487,-0.1364,
19.478888,1.6905,2.4964,-0.3311,0.2370,-0.3487,-0.1364,
19.486363,1.6905,2.4964,-0.3311,0.1083,0.0379,0.1767,
19.527370,1.6905,2.4964,-0.3311,0.1083,0.0379,0.1767,
19.543659,-1.2185,0.4332,-1.5732,0.1083,0.0379,0.1767,
19.546870,-1.2185,0.4332,-1.5732,-0.6660,0.1654,0.4757,
19.592590,-1.2185,0.4332,-1.5732,-0.6660,0.1654,0.4757,
19.608127,-0.2992,0.8375,-0.1469,-0.6660,0.1654,0.4757,
19.611244,-0.2992,0.8375,-0.1469,-0.6402,0.5350,0.5046,
19.659333,-0.2992,0.8375,-0.1469,-0.6402,0.5350,0.5046,
19.674610,0.7908,0.2591,-1.0778,-0.6402,0.5350,0.5046,
19.679904,0.7908,0.2591,-1.0778,-0.6074,1.4083,0.2998,
19.723403,0.7908,0.2591,-1.0778,-0.6074,1.4083,0.2998,
19.738916,-0.4031,-1.5259,-0.9918,-0.6074,1.4083,0.2998,
19.743124,-0.4031,-1.5259,-0.9918,-0.3819,1.9389,0.1946,
19.788509,-0.4031,-1.5259,-0.9918,-0.3819,1.9389,0.1946,
19.804629,-0.8144,-0.3257,-0.0870,-0.3819,1.9389,0.1946,
19.807503,-0.8144,-0.3257,-0.0870,-0.1657,1.6729,0.1295,
19.853677,-0.8144,-0.3257,-0.0870,-0.1657,1.6729,0.1295,
19.869876,-0.3168,-1.3497,0.0322,-0.1657,1.6729,0.1295,
19.873705,-0.3168,-1.3497,0.0322,0.0915,1.0927,0.2648,
19.920052,-0.3168,-1.3497,0.0322,0.0915,1.0927,0.2648,
19.935849,0.3809,-1.1500,0.6820,0.0915,1.0927,0.2648,
19.939159,0.3809,-1.1500,0.6820,0.3592,0.9792,0.0654,
19.984763,0.3809,-1.1500,0.6820,0.3592,0.9792,0.0654,
20.001346,0.0780,1.4236,1.9158,0.3592,0.9792,0.0654,
20.006464,0.0780,1.4236,1.9158,-0.2301,0.8942,0.0765,
20.050159,0.0780,1.4236,1.9158,-0.2301,0.8942,0.0765,
20.066892,0.2169,1.0149,1.3778,-0.2301,0.8942,0.0765,
20.070000,0.2169,1.0149,1.3778,-0.6061,0.3722,0.4410,
20.116784,0.2169,1.0149,1.3778,-0.6061,0.3722,0.4410,
20.133576,-0.8968,1.3372,-2.0626,-0.6061,0.3722,0.4410,
20.135400,-0.8968,1.3372,-2.0626,0.0228,0.4432,-0.1054,
20.180916,-0.8968,1.3372,-2.0626,0.0228,0.4432,-0.1054,
20.198286,0.1176,-1.8176,-2.5186,0.0228,0.4432,-0.1054,
20.200746,0.1176,-1.8176,-2.5186,0.3202,0.7772,0.0289,
20.246455,0.1176,-1.8176,-2.5186,0.3202,0.7772,0.0289,
20.267949,0.0530,-0.0969,-1.8370,0.3202,0.7772,0.0289,
20.271148,0.0530,-0.0969,-1.8370,0.8118,0.7172,-0.1199,
20.313059,0.0530,-0.0969,-1.8370,0.8118,0.7172,-0.1199,
20.329126,-0.3086,0.1002,-0.7926,0.8118,0.7172,-0.1199,
20.332970,-0.3086,0.1002,-0.7926,0.5764,0.0990,0.0064,
20.377766,-0.3086,0.1002,-0.7926,0.5764,0.0990,0.0064,
20.394368,0.9718,-1.4678,-0.8892,0.5764,0.0990,0.0064,
20.397702,0.9718,-1.4678,-0.8892,0.6255,-0.0893,-0.1550,
20.443390,0.9718,-1.4678,-0.8892,0.6255,-0.0893,-0.1550,
20.461211,1.2062,-0.7280,-0.2361,0.6255,-0.0893,-0.1550,
20.463305,1.2062,-0.7280,-0.2361,0.5588,0.1066,-0.2466,
20.508489,1.2062,-0.7280,-0.2361,0.5588,0.1066,-0.2466,
20.524877,1.0601,-0.0343,0.2371,0.5588,0.1066,-0.2466,
20.527711,1.0601,-0.0343,0.2371,0.3893,-0.0657,-0.2866,
20.574114,1.0601,-0.0343,0.2371,0.3893,-0.0657,-0.2866,
20.591575,1.5671,0.4262,0.4380,0.3893,-0.0657,-0.2866,
20.595006,1.5671,0.4262,0.4380,0.3398,-0.2292,-0.1723,
20.639575,1.5671,0.4262,0.4380,0.3398,-0.2292,-0.1723,
20.656878,2.3096,1.0315,-0.4229,0.3398,-0.2292,-0.1723,
20.658941,2.3096,1.0315,-0.4229,0.3367,-0.1119,-0.0591,
20.705916,2.3096,1.0315,-0.4229,0.3367,-0.1119,-0.0591,
20.722447,0.6262,2.3271,-1.1679,0.3367,-0.1119,-0.0591,
20.725325,0.6262,2.3271,-1.1679,-0.2051,0.1046,0.3700,
20.770798,0.6262,2.3271,-1.1679,-0.2051,0.1046,0.3700,
20.786328,-0.4803,-1.4268,-0.7571,-0.2051,0.1046,0.3700,
20.789738,-0.4803,-1.4268,-0.7571,-0.7346,0.4525,0.5287,
20.837354,-0.4803,-1.4268,-0.7571,-0.7346,0.4525,0.5287,
20.851688,1.7453,1.8658,-0.7986,-0.7346,0.4525,0.5287,
20.855781,1.7453,1.8658,-0.7986,-0.5495,1.4317,0.2902,
20.902110,1.7453,1.8658,-0.7986,-0.5495,1.4317,0.2902,
20.920064,0.5166,-0.2988,-1.5127,-0.5495,1.4317,0.2902,
20.922732,0.5166,-0.2988,-1.5127,-0.6319,2.2830,0.3161,
20.967229,0.5166,-0.2988,-1.5127,-0.6319,2.2830,0.3161,
20.983059,-1.1420,-1.0535,-0.7256,-0.6319,2.2830,0.3161,
20.986675,-1.1420,-1.0535,-0.7256,-0.3606,2.2663,0.2094,
21.032843,-1.1420,-1.0535,-0.7256,-0.3606,2.2663,0.2094,
21.049723,-0.9797,-0.8420,-0.6230,-0.3606,2.2663,0.2094,
21.052851,-0.9797,-0.8420,-0.6230,-0.2224,1.6008,0.2808,
21.097962,-0.9797,-0.8420,-0.6230,-0.2224,1.6008,0.2808,
21.115658,-0.1256,-1.6248,0.0870,-0.2224,1.6008,0.2808,
21.117548,-0.1256,-1.6248,0.0870,0.2720,1.0340,0.2289,
21.163411,-0.1256,-1.6248,0.0870,0.2720,1.0340,0.2289,
21.179118,-0.1423,0.5280,0.9653,0.2720,1.0340,0.2289,
21.183333,-0.1423,0.5280,0.9653,0.1573,0.9401,0.1083,
21.228943,-0.1423,0.5280,0.9653,0.1573,0.9401,0.1083,
21.246976,-0.0555,0.2184,2.4837,0.1573,0.9401,0.1083,
21.250239,-0.0555,0.2184,2.4837,-0.2524,0.3436,0.2784,
21.293191,-0.0555,0.2184,2.4837,-0.2524,0.3436,0.2784,
21.310177,0.7779,4.6035,-0.2103,-0.2524,0.3436,0.2784,
21.315249,0.7779,4.6035,-0.2103,-0.2970,-0.0382,0.2175,
21.359996,0.7779,4.6035,-0.2103,-0.2970,-0.0382,0.2175,
21.375891,-0.7666,-0.5042,-1.3569,-0.2970,-0.0382,0.2175,
21.379095,-0.7666,-0.5042,-1.3569,-0.1423,0.2306,0.0188,
21.425641,-0.7666,-0.5042,-1.3569,-0.1423,0.2306,0.0188,
21.442930,0.3032,-1.0837,-2.6422,-0.1423,0.2306,0.0188,
21.445676,0.3032,-1.0837,-2.6422,0.5815,0.6464,-0.0389,
21.490993,0.3032,-1.0837,-2.6422,0.5815,0.6464,-0.0389,
21.507672,-0.6411,0.6419,-0.8112,0.5815,0.6464,-0.0389,
21.510649,-0.6411,0.6419,-0.8112,0.6764,0.2086,-0.0095,
21.557472,-0.6411,0.6419,-0.8112,0.6764,0.2086,-0.0095,
21.573875,0.2575,-1.2521,-0.8608,0.6764,0.2086,-0.0095,
21.575924,0.2575,-1.2521,-0.8608,0.4847,-0.3348,0.0704,
21.622854,0.2575,-1.2521,-0.8608,0.4847,-0.3348,0.0704,
21.639356,1.4558,-1.0566,-0.7242,0.4847,-0.3348,0.0704,
21.642889,1.4558,-1.0566,-0.7242,0.5739,-0.1104,-0.2353,
21.686345,1.4558,-1.0566,-0.7242,0.5739,-0.1104,-0.2353,
21.703665,0.9393,-0.3776,-0.1404,0.5739,-0.1104,-0.2353,
21.706650,0.9393,-0.3776,-0.1404,0.4684,0.0275,-0.2309,
21.753751,0.9393,-0.3776,-0.1404,0.4684,0.0275,-0.2309,
21.769513,0.7179,0.1591,0.2015,0.4684,0.0275,-0.2309,
21.772610,0.7179,0.1591,0.2015,0.3903,-0.2236,-0.2378,
21.818760,0.7179,0.1591,0.2015,0.3903,-0.2236,-0.2378,
21.834957,1.6526,0.2474,0.6294,0.3903,-0.2236,-0.2378,
21.837885,1.6526,0.2474,0.6294,0.2553,-0.5991,-0.1274,
21.884429,1.6526,0.2474,0.6294,0.2553,-0.5991,-0.1274,
21.900800,1.9239,2.3031,-0.1766,0.2553,-0.5991,-0.1274,
21.903313,1.9239,2.3031,-0.1766,0.2269,-0.1723,0.1045,
21.948700,1.9239,2.3031,-0.1766,0.2269,-0.1723,0.1045,
21.965970,-0.1684,1.1059,-1.1805,0.2269,-0.1723,0.1045,
21.969924,-0.1684,1.1059,-1.1805,-0.4221,-0.0428,0.4910,
22.014293,-0.1684,1.1059,-1.1805,-0.4221,-0.0428,0.4910,
22.032623,-0.5222,-0.9685,-0.4788,-0.4221,-0.0428,0.4910,
22.034570,-0.5222,-0.9685,-0.4788,-0.6991,0.4041,0.4614,
22.080518,-0.5222,-0.9685,-0.4788,-0.6991,0.4041,0.4614,
22.100126,1.1633,1.2376,-1.1952,-0.6991,0.4041,0.4614,
22.102212,1.1633,1.2376,-1.1952,-0.6405,1.5058,0.1431,
22.147161,1.1633,1.2376,-1.1952,-0.6405,1.5058,0.1431,
22.163144,-0.6721,-0.6592,-1.2189,-0.6405,1.5058,0.1431,
22.166615,-0.6721,-0.6592,-1.2189,-0.5751,2.0279,0.1307,
22.211364,-0.6721,-0.6592,-1.2189,-0.5751,2.0279,0.1307,
22.227742,-1.5178,-0.5813,-0.1950,-0.5751,2.0279,0.1307,
22.231878,-1.5178,-0.5813,-0.1950,-0.3977,1.6145,0.1726,
22.276829,-1.5178,-0.5813,-0.1950,-0.3977,1.6145,0.1726,
22.293182,-0.4772,-1.5030,-0.0852,-0.3977,1.6145,0.1726,
22.296586,-0.4772,-1.5030,-0.0852,-0.0037,1.0858,0.3005,
22.343252,-0.4772,-1.5030,-0.0852,-0.0037,1.0858,0.3005,
22.359908,0.4807,-1.5753,0.5000,-0.0037,1.0858,0.3005,
22.362427,0.4807,-1.5753,0.5000,0.3312,0.9658,0.1067,
22.407987,0.4807,-1.5753,0.5000,0.3312,0.9658,0.1067,
22.423850,0.0307,1.0759,1.6487,0.3312,0.9658,0.1067,
22.426749,0.0307,1.0759,1.6487,-0.0182,1.0056,0.1219,
22.474022,0.0307,1.0759,1.6487,-0.0182,1.0056,0.1219,
22.490008,0.5953,-0.1413,2.1284,-0.0182,1.0056,0.1219,
22.492840,0.5953,-0.1413,2.1284,-0.2320,0.4620,0.4004,
22.538962,0.5953,-0.1413,2.1284,-0.2320,0.4620,0.4004,
22.554770,-0.3188,2.8627,-0.4381,-0.2320,0.4620,0.4004,
22.558139,-0.3188,2.8627,-0.4381,0.0307,0.0699,-0.0234,
22.602578,-0.3188,2.8627,-0.4381,0.0307,0.0699,-0.0234,
22.619890,-0.9592,-1.0036,-1.7570,0.0307,0.0699,-0.0234,
22.623718,-0.9592,-1.0036,-1.7570,0.1596,0.1538,-0.0249,
22.669468,-0.9592,-1.0036,-1.7570,0.1596,0.1538,-0.0249,
22.685725,-0.4931,-0.8185,-2.3181,0.1596,0.1538,-0.0249,
22.690271,-0.4931,-0.8185,-2.3181,0.6684,0.3144,-0.1747,
22.734883,-0.4931,-0.8185,-2.3181,0.6684,0.3144,-0.1747,
22.752470,-1.0249,0.2583,-0.9389,0.6684,0.3144,-0.1747,
22.754796,-1.0249,0.2583,-0.9389,0.6159,-0.4009,-0.0290,
22.799834,-1.0249,0.2583,-0.9389,0.6159,-0.4009,-0.0290,
22.817504,0.2797,-1.3531,-0.8992,0.6159,-0.4009,-0.0290,
22.819835,0.2797,-1.3531,-0.8992,0.5124,-0.7072,-0.0362,
22.867020,0.2797,-1.3531,-0.8992,0.5124,-0.7072,-0.0362,
22.883516,1.5834,-0.4963,-0.4088,0.5124,-0.7072,-0.0362,
22.885934,1.5834,-0.4963,-0.4088,0.5582,-0.4687,-0.2558,
22.932749,1.5834,-0.4963,-0.4088,0.5582,-0.4687,-0.2558,
22.948551,1.3292,-0.3214,0.0332,0.5582,-0.4687,-0.2558,
22.951840,1.3292,-0.3214,0.0332,0.4323,-0.1926,-0.3132,
22.997092,1.3292,-0.3214,0.0332,0.4323,-0.1926,-0.3132,
23.014286,0.8116,-0.0741,0.4316,0.4323,-0.1926,-0.3132,
23.016435,0.8116,-0.0741,0.4316,0.3102,-0.3465,-0.3639,
23.063707,0.8116,-0.0741,0.4316,0.3102,-0.3465,-0.3639,
23.078815,2.1478,0.2865,0.3670,0.3102,-0.3465,-0.3639,
23.082736,2.1478,0.2865,0.3670,0.2066,-0.7103,-0.0997,
23.127008,2.1478,0.2865,0.3670,0.2066,-0.7103,-0.0997,
23.144924,1.8525,2.2726,0.1925,0.2066,-0.7103,-0.0997,
23.148369,1.8525,2.2726,0.1925,0.0246,-0.1344,0.3204,
23.192752,1.8525,2.2726,0.1925,0.0246,-0.1344,0.3204,
23.209986,-0.5242,0.0168,-0.9969,0.0246,-0.1344,0.3204,
23.212395,-0.5242,0.0168,-0.9969,-0.6011,0.2758,0.6631,
23.259280,-0.5242,0.0168,-0.9969,-0.6011,0.2758,0.6631,
23.275215,-0.6345,0.9277,0.0566,-0.6011,0.2758,0.6631,
23.278370,-0.6345,0.9277,0.0566,-0.7016,0.8822,0.5612,
23.323724,-0.6345,0.9277,0.0566,-0.7016,0.8822,0.5612,
23.340267,0.0348,0.9715,-0.8782,-0.7016,0.8822,0.5612,
23.344751,0.0348,0.9715,-0.8782,-0.7550,1.3335,0.3474,
23.390516,0.0348,0.9715,-0.8782,-0.7550,1.3335,0.3474,
23.407264,-1.0535,-1.3988,-1.1154,-0.7550,1.3335,0.3474,
23.409351,-1.0535,-1.3988,-1.1154,-0.5281,1.6174,0.2669,
23.455478,-1.0535,-1.3988,-1.1154,-0.5281,1.6174,0.2669,
23.471295,-1.8567,-1.3473,0.1535,-0.5281,1.6174,0.2669,
23.474917,-1.8567,-1.3473,0.1535,-0.3161,1.0785,0.0370,
23.521527,-1.8567,-1.3473,0.1535,-0.3161,1.0785,0.0370,
23.536616,-0.9531,-1.4604,0.4340,-0.3161,1.0785,0.0370,
23.539969,-0.9531,-1.4604,0.4340,0.1268,0.3940,0.0640,
23.585889,-0.9531,-1.4604,0.4340,0.1268,0.3940,0.0640,
23.603328,0.6226,-0.6847,1.3236,0.1268,0.3940,0.0640,
23.605586,0.6226,-0.6847,1.3236,0.2734,0.2294,-0.0243,
23.652313,0.6226,-0.6847,1.3236,0.2734,0.2294,-0.0243,
23.668688,0.6430,0.9297,1.9632,0.2734,0.2294,-0.0243,
23.670847,0.6430,0.9297,1.9632,-0.2405,0.4427,0.0687,
23.716829,0.6430,0.9297,1.9632,-0.2405,0.4427,0.0687,
23.732969,0.1067,1.5195,1.3390,-0.2405,0.4427,0.0687,
23.736904,0.1067,1.5195,1.3390,-0.5690,0.1924,0.4023,
23.783749,0.1067,1.5195,1.3390,-0.5690,0.1924,0.4023,
23.799841,-1.6578,1.3764,-1.8663,-0.5690,0.1924,0.4023,
23.803033,-1.6578,1.3764,-1.8663,-0.0440,0.1984,-0.3798,
23.848106,-1.6578,1.3764,-1.8663,-0.0440,0.1984,-0.3798,
23.866139,-0.7902,-1.7594,-2.4711,-0.0440,0.1984,-0.3798,
23.869119,-0.7902,-1.7594,-2.4711,0.4545,0.2689,-0.0133,
23.913759,-0.7902,-1.7594,-2.4711,0.4545,0.2689,-0.0133,
23.929941,-0.9367,0.1790,-1.3028,0.4545,0.2689,-0.0133,
23.933837,-0.9367,0.1790,-1.3028,0.7184,-0.2370,-0.1159,
23.980097,-0.9367,0.1790,-1.3028,0.7184,-0.2370,-0.1159,
23.996037,-0.2500,-0.8401,-1.1010,0.7184,-0.2370,-0.1159,
23.999644,-0.2500,-0.8401,-1.1010,0.5159,-0.7297,-0.0816,
24.043718,-0.2500,-0.8401,-1.1010,0.5159,-0.7297,-0.0816,
24.060792,1.0976,-1.1010,-0.5488,0.5159,-0.7297,-0.0816,
24.064724,1.0976,-1.1010,-0.5488,0.5657,-0.6211,-0.2289,
24.109836,1.0976,-1.1010,-0.5488,0.5657,-0.6211,-0.2289,
24.125643,1.5093,-0.4098,0.0772,0.5657,-0.6211,-0.2289,
24.129227,1.5093,-0.4098,0.0772,0.4551,-0.2644,-0.2966,
24.175656,1.5093,-0.4098,0.0772,0.4551,-0.2644,-0.2966,
24.191355,1.4017,0.0406,0.4237,0.4551,-0.2644,-0.2966,
24.194760,1.4017,0.0406,0.4237,0.3216,-0.1144,-0.3479,
24.240752,1.4017,0.0406,0.4237,0.3216,-0.1144,-0.3479,
24.256789,1.6883,0.2858,0.3692,0.3216,-0.1144,-0.3479,
24.261269,1.6883,0.2858,0.3692,0.2712,-0.3612,-0.2440,
24.308063,1.6883,0.2858,0.3692,0.2712,-0.3612,-0.2440,
24.322051,1.8063,1.5377,-0.1217,0.2712,-0.3612,-0.2440,
24.327207,1.8063,1.5377,-0.1217,0.3050,-0.0195,0.1061,
24.372622,1.8063,1.5377,-0.1217,0.3050,-0.0195,0.1061,
24.388792,-0.7282,1.8862,-1.1639,0.3050,-0.0195,0.1061,
24.391638,-0.7282,1.8862,-1.1639,-0.2401,0.0872,0.4493,
24.437459,-0.7282,1.8862,-1.1639,-0.2401,0.0872,0.4493,
24.454069,-1.4206,-0.3205,-0.0533,-0.2401,0.0872,0.4493,
24.457197,-1.4206,-0.3205,-0.0533,-0.6718,0.2353,0.5090,
24.504661,-1.4206,-0.3205,-0.0533,-0.6718,0.2353,0.5090,
24.518735,0.0469,1.0095,-0.4286,-0.6718,0.2353,0.5090,
24.524491,0.0469,1.0095,-0.4286,-0.6990,0.8850,0.2779,
24.569035,0.0469,1.0095,-0.4286,-0.6990,0.8850,0.2779,
24.585388,-0.4289,-1.2225,-0.9403,-0.6990,0.8850,0.2779,
24.590631,-0.4289,-1.2225,-0.9403,-0.5696,1.3804,0.2715,
24.633726,-0.4289,-1.2225,-0.9403,-0.5696,1.3804,0.2715,
24.651102,-1.4862,-0.9266,0.0609,-0.5696,1.3804,0.2715,
24.655533,-1.4862,-0.9266,0.0609,-0.3604,1.3172,0.0843,
24.700448,-1.4862,-0.9266,0.0609,-0.3604,1.3172,0.0843,
24.717046,-1.6677,-0.8228,0.3355,-0.3604,1.3172,0.0843,
24.719198,-1.6677,-0.8228,0.3355,-0.1280,0.7315,0.1394,
24.764645,-1.6677,-0.8228,0.3355,-0.1280,0.7315,0.1394,
24.781362,-0.1407,-1.3858,1.2574,-0.1280,0.7315,0.1394,
24.784978,-0.1407,-1.3858,1.2574,0.1706,0.3067,0.0536,
24.829914,-0.1407,-1.3858,1.2574,0.1706,0.3067,0.0536,
24.847131,0.5315,0.3500,1.2830,0.1706,0.3067,0.0536,
24.850082,0.5315,0.3500,1.2830,0.1271,0.4435,-0.0018,
24.895670,0.5315,0.3500,1.2830,0.1271,0.4435,-0.0018,
24.913273,0.4099,-0.3113,2.7502,0.1271,0.4435,-0.0018,
24.917608,0.4099,-0.3113,2.7502,-0.2057,0.1555,0.2259,
24.960625,0.4099,-0.3113,2.7502,-0.2057,0.1555,0.2259,
24.976541,-1.1213,3.3577,-1.0376,-0.2057,0.1555,0.2259,
24.979914,-1.1213,3.3577,-1.0376,0.0967,-0.1268,-0.3609,
25.028028,-1.1213,3.3577,-1.0376,0.0967,-0.1268,-0.3609,
25.043092,-0.6804,-1.3425,-1.8004,0.0967,-0.1268,-0.3609,
25.046222,-0.6804,-1.3425,-1.8004,0.1726,-0.0951,0.0339,
25.092376,-0.6804,-1.3425,-1.8004,0.1726,-0.0951,0.0339,
25.108973,-0.6075,-0.6797,-2.3760,0.1726,-0.0951,0.0339,
25.112578,-0.6075,-0.6797,-2.3760,0.7727,0.1497,-0.2662,
25.156339,-0.6075,-0.6797,-2.3760,0.7727,0.1497,-0.2662,
25.174555,-2.0886,-0.0519,-0.7517,0.7727,0.1497,-0.2662,
25.177082,-2.0886,-0.0519,-0.7517,0.6063,-0.8176,-0.2069,
25.225448,-2.0886,-0.0519,-0.7517,0.6063,-0.8176,-0.2069,
25.240068,0.4316,-1.2191,-0.9499,0.6063,-0.8176,-0.2069,
25.243970,0.4316,-1.2191,-0.9499,0.5643,-1.3434,-0.1599,
25.288551,0.4316,-1.2191,-0.9499,0.5643,-1.3434,-0.1599,
25.304892,2.0126,-0.5403,-0.2688,0.5643,-1.3434,-0.1599,
25.308139,2.0126,-0.5403,-0.2688,0.4850,-0.7659,-0.3247,
25.354597,2.0126,-0.5403,-0.2688,0.4850,-0.7659,-0.3247,
25.371482,1.7446,-0.3579,0.3981,0.4850,-0.7659,-0.3247,
25.373400,1.7446,-0.3579,0.3981,0.4496,-0.3109,-0.3902,
25.420967,1.7446,-0.3579,0.3981,0.4496,-0.3109,-0.3902,
25.437119,1.3646,0.0894,0.8995,0.4496,-0.3109,-0.3902,
25.439744,1.3646,0.0894,0.8995,0.3264,-0.4134,-0.3564,
25.485961,1.3646,0.0894,0.8995,0.3264,-0.4134,-0.3564,
25.501283,2.4174,0.3672,-0.0503,0.3264,-0.4134,-0.3564,
25.504338,2.4174,0.3672,-0.0503,0.1071,-0.4548,0.0365,
25.549256,2.4174,0.3672,-0.0503,0.1071,-0.4548,0.0365,
25.566588,1.3147,2.8027,-1.4474,0.1071,-0.4548,0.0365,
25.570080,1.3147,2.8027,-1.4474,-0.3913,0.4116,0.5263,
25.615853,1.3147,2.8027,-1.4474,-0.3913,0.4116,0.5263,
25.632567,-0.8663,0.2470,-0.5126,-0.3913,0.4116,0.5263,
25.635862,-0.8663,0.2470,-0.5126,-0.9572,0.6723,0.4246,
25.681274,-0.8663,0.2470,-0.5126,-0.9572,0.6723,0.4246,
25.698057,1.1117,1.0175,-1.2449,-0.9572,0.6723,0.4246,
25.700936,1.1117,1.0175,-1.2449,-0.6999,1.6249,0.2760,
25.747077,1.1117,1.0175,-1.2449,-0.6999,1.6249,0.2760,
25.764351,-0.2563,-0.7587,-1.6378,-0.6999,1.6249,0.2760,
25.765678,-0.2563,-0.7587,-1.6378,-0.5806,2.2965,0.3667,
25.812616,-0.2563,-0.7587,-1.6378,-0.5806,2.2965,0.3667,
25.828637,-1.7024,-1.2394,-0.4336,-0.5806,2.2965,0.3667,
25.832153,-1.7024,-1.2394,-0.4336,-0.3511,1.8747,0.3357,
25.877491,-1.7024,-1.2394,-0.4336,-0.3511,1.8747,0.3357,
25.895677,-0.4511,-1.6197,-0.4776,-0.3511,1.8747,0.3357,
25.898769,-0.4511,-1.6197,-0.4776,0.0480,1.2205,0.4899,
25.942887,-0.4511,-1.6197,-0.4776,0.0480,1.2205,0.4899,
25.960746,0.1952,-1.1260,0.2310,0.0480,1.2205,0.4899,
25.963468,0.1952,-1.1260,0.2310,0.4021,0.9888,0.2639,
26.009151,0.1952,-1.1260,0.2310,0.4021,0.9888,0.2639,
26.027356,-0.0691,1.4075,1.5963,0.4021,0.9888,0.2639,
26.029497,-0.0691,1.4075,1.5963,-0.1477,0.9575,0.0994,
26.073980,-0.0691,1.4075,1.5963,-0.1477,0.9575,0.0994,
26.090041,0.1222,0.8182,1.6705,-0.1477,0.9575,0.0994,
26.094281,0.1222,0.8182,1.6705,-0.6526,0.3433,0.5316,
26.139461,0.1222,0.8182,1.6705,-0.6526,0.3433,0.5316,
26.155861,-0.8364,1.8189,-2.0294,-0.6526,0.3433,0.5316,
26.158910,-0.8364,1.8189,-2.0294,-0.0557,0.3196,-0.2640,
26.205680,-0.8364,1.8189,-2.0294,-0.0557,0.3196,-0.2640,
26.221834,-0.4396,-1.3881,-2.5083,-0.0557,0.3196,-0.2640,
26.226256,-0.4396,-1.3881,-2.5083,0.3867,0.5476,0.0432,
26.271384,-0.4396,-1.3881,-2.5083,0.3867,0.5476,0.0432,
26.286984,-0.7700,-0.1636,-2.0916,0.3867,0.5476,0.0432,
26.290719,-0.7700,-0.1636,-2.0916,0.8160,0.2601,-0.0741,
26.336057,-0.7700,-0.1636,-2.0916,0.8160,0.2601,-0.0741,
26.353174,-0.8789,-0.7803,-0.6441,0.8160,0.2601,-0.0741,
26.357958,-0.8789,-0.7803,-0.6441,0.5531,-0.4748,-0.0690,
26.403832,-0.8789,-0.7803,-0.6441,0.5531,-0.4748,-0.0690,
26.419218,1.6921,-1.0817,-0.5992,0.5531,-0.4748,-0.0690,
26.421908,1.6921,-1.0817,-0.5992,0.6385,-0.5392,-0.1504,
26.467813,1.6921,-1.0817,-0.5992,0.6385,-0.5392,-0.1504,
26.485671,1.9870,-0.4260,-0.2436,0.6385,-0.5392,-0.1504,
26.487656,1.9870,-0.4260,-0.2436,0.4945,0.0183,-0.2848,
26.532992,1.9870,-0.4260,-0.2436,0.4945,0.0183,-0.2848,
26.549698,1.4361,-0.3385,0.2595,0.4945,0.0183,-0.2848,
26.552482,1.4361,-0.3385,0.2595,0.3642,0.1290,-0.2747,
26.599025,1.4361,-0.3385,0.2595,0.3642,0.1290,-0.2747,
26.615920,1.4822,0.5117,0.1349,0.3642,0.1290,-0.2747,
26.618676,1.4822,0.5117,0.1349,0.2578,-0.1338,-0.1272,
26.665831,1.4822,0.5117,0.1349,0.2578,-0.1338,-0.1272,
26.680994,1.8886,1.8441,-0.2680,0.2578,-0.1338,-0.1272,
26.684928,1.8886,1.8441,-0.2680,0.0809,-0.1046,0.1210,
26.729223,1.8886,1.8441,-0.2680,0.0809,-0.1046,0.1210,
26.744762,-0.5339,1.7450,-1.0804,0.0809,-0.1046,0.1210,
26.749453,-0.5339,1.7450,-1.0804,-0.3577,0.0461,0.4953,
26.794532,-0.5339,1.7450,-1.0804,-0.3577,0.0461,0.4953,
26.809563,-1.8905,-0.4475,-0.4838,-0.3577,0.0461,0.4953,
26.814093,-1.8905,-0.4475,-0.4838,-0.7848,0.1562,0.5615,
26.860160,-1.8905,-0.4475,-0.4838,-0.7848,0.1562,0.5615,
26.877977,0.0978,1.3925,-0.4461,-0.7848,0.1562,0.5615,
26.880392,0.0978,1.3925,-0.4461,-0.7640,0.6122,0.3374,
26.925186,0.0978,1.3925,-0.4461,-0.7640,0.6122,0.3374,
26.943008,-0.3398,-1.6134,-0.8435,-0.7640,0.6122,0.3374,
26.945227,-0.3398,-1.6134,-0.8435,-0.6032,1.1417,0.3186,
26.992818,-0.3398,-1.6134,-0.8435,-0.6032,1.1417,0.3186,
27.008764,-1.2723,-1.0900,0.2996,-0.6032,1.1417,0.3186,
27.011397,-1.2723,-1.0900,0.2996,-0.3691,1.1052,0.1417,
27.055818,-1.2723,-1.0900,0.2996,-0.3691,1.1052,0.1417,
27.073645,-0.5014,-1.2488,0.2053,-0.3691,1.1052,0.1417,
27.077097,-0.5014,-1.2488,0.2053,-0.0263,0.6891,0.0980,
27.123128,-0.5014,-1.2488,0.2053,-0.0263,0.6891,0.0980,
27.139462,0.0901,-1.3013,1.0003,-0.0263,0.6891,0.0980,
27.142609,0.0901,-1.3013,1.0003,0.3514,0.6535,0.0101,
27.187486,0.0901,-1.3013,1.0003,0.3514,0.6535,0.0101,
27.204113,0.4247,0.8532,1.5616,0.3514,0.6535,0.0101,
27.207293,0.4247,0.8532,1.5616,-0.0412,0.6640,0.1315,
27.256611,0.4247,0.8532,1.5616,-0.0412,0.6640,0.1315,
27.268784,-0.2383,1.1483,2.2766,-0.0412,0.6640,0.1315,
27.271729,-0.2383,1.1483,2.2766,-0.2613,0.2660,0.3312,
27.318800,-0.2383,1.1483,2.2766,-0.2613,0.2660,0.3312,
27.335099,-2.1340,1.5933,-1.1660,-0.2613,0.2660,0.3312,
27.338142,-2.1340,1.5933,-1.1660,0.0483,-0.0504,-0.4107,
27.382996,-2.1340,1.5933,-1.1660,0.0483,-0.0504,-0.4107,
27.400998,-1.3821,-1.4386,-2.0321,0.0483,-0.0504,-0.4107,
27.404492,-1.3821,-1.4386,-2.0321,0.3673,-0.3592,-0.0525,
27.448791,-1.3821,-1.4386,-2.0321,0.3673,-0.3592,-0.0525,
27.466867,-0.6063,-0.1046,-2.0912,0.3673,-0.3592,-0.0525,
27.469058,-0.6063,-0.1046,-2.0912,0.6571,-0.2805,-0.1936,
27.514649,-0.6063,-0.1046,-2.0912,0.6571,-0.2805,-0.1936,
27.532045,-1.1836,-0.3499,-0.6449,0.6571,-0.2805,-0.1936,
27.534318,-1.1836,-0.3499,-0.6449,0.5441,-0.9953,-0.0924,
27.579971,-1.1836,-0.3499,-0.6449,0.5441,-0.9953,-0.0924,
27.599869,0.9374,-1.1102,-0.8347,0.5441,-0.9953,-0.0924,
27.602121,0.9374,-1.1102,-0.8347,0.4716,-1.1967,-0.1324,
27.648245,0.9374,-1.1102,-0.8347,0.4716,-1.1967,-0.1324,
27.663105,1.6215,-0.8380,-0.0971,0.4716,-1.1967,-0.1324,
27.667050,1.6215,-0.8380,-0.0971,0.4789,-0.6290,-0.3279,
27.711445,1.6215,-0.8380,-0.0971,0.4789,-0.6290,-0.3279,
27.726970,1.5540,-0.2030,0.3063,0.4789,-0.6290,-0.3279,
27.731390,1.5540,-0.2030,0.3063,0.4421,-0.2888,-0.3151,
27.777511,1.5540,-0.2030,0.3063,0.4421,-0.2888,-0.3151,
27.794361,1.0893,0.0323,0.7636,0.4421,-0.2888,-0.3151,
27.796704,1.0893,0.0323,0.7636,0.3625,-0.3381,-0.4056,
27.845477,1.0893,0.0323,0.7636,0.3625,-0.3381,-0.4056,
27.859240,2.3505,0.5283,0.3064,0.3625,-0.3381,-0.4056,
27.862635,2.3505,0.5283,0.3064,0.2175,-0.5040,-0.0732,
27.907024,2.3505,0.5283,0.3064,0.2175,-0.5040,-0.0732,
27.925075,0.9027,2.7987,-0.1562,0.2175,-0.5040,-0.0732,
27.927120,0.9027,2.7987,-0.1562,0.0228,0.1944,0.4531,
27.974337,0.9027,2.7987,-0.1562,0.0228,0.1944,0.4531,
27.989973,-1.8315,-0.0336,-0.9826,0.0228,0.1944,0.4531,
27.992973,-1.8315,-0.0336,-0.9826,-0.7874,0.0458,0.4942,
28.039641,-1.8315,-0.0336,-0.9826,-0.7874,0.0458,0.4942,
28.057442,-0.1949,1.2025,0.0141,-0.7874,0.0458,0.4942,
28.058407,-0.1949,1.2025,0.0141,-0.7790,0.4745,0.2549,
28.105233,-0.1949,1.2025,0.0141,-0.7790,0.4745,0.2549,
28.120098,0.0911,-0.3961,-0.9434,-0.7790,0.4745,0.2549,
28.123464,0.0911,-0.3961,-0.9434,-0.7769,1.2289,0.1188,
28.170268,0.0911,-0.3961,-0.9434,-0.7769,1.2289,0.1188,
28.187617,-1.3236,-1.7187,-0.5231,-0.7769,1.2289,0.1188,
28.188954,-1.3236,-1.7187,-0.5231,-0.5921,1.3291,0.1254,
28.234698,-1.3236,-1.7187,-0.5231,-0.5921,1.3291,0.1254,
28.251871,-1.3041,-0.9363,0.2973,-0.5921,1.3291,0.1254,
28.255415,-1.3041,-0.9363,0.2973,-0.2957,0.7798,0.1095,
28.300877,-1.3041,-0.9363,0.2973,-0.2957,0.7798,0.1095,
28.316589,-0.2338,-1.8065,0.8414,-0.2957,0.7798,0.1095,
28.319813,-0.2338,-1.8065,0.8414,0.1965,0.2799,0.1425,
28.367029,-0.2338,-1.8065,0.8414,0.1965,0.2799,0.1425,
28.381836,0.6476,0.3406,1.2299,0.1965,0.2799,0.1425,
28.385611,0.6476,0.3406,1.2299,0.1080,0.4339,0.0153,
28.430346,0.6476,0.3406,1.2299,0.1080,0.4339,0.0153,
28.448099,0.5365,0.5644,2.7284,0.1080,0.4339,0.0153,
28.451058,0.5365,0.5644,2.7284,-0.1900,0.1991,0.2485,
28.497349,0.5365,0.5644,2.7284,-0.1900,0.1991,0.2485,
28.514783,0.1784,3.9212,-0.7337,-0.1900,0.1991,0.2485,
28.517836,0.1784,3.9212,-0.7337,-0.0573,-0.0996,0.0446,
28.564074,0.1784,3.9212,-0.7337,-0.0573,-0.0996,0.0446,
28.581199,-1.2746,-1.6159,-1.5719,-0.0573,-0.0996,0.0446,
28.583217,-1.2746,-1.6159,-1.5719,0.2059,0.1581,-0.0250,
28.627762,-1.2746,-1.6159,-1.5719,0.2059,0.1581,-0.0250,
28.645021,-0.8212,-0.4237,-2.1717,0.2059,0.1581,-0.0250,
28.648765,-0.8212,-0.4237,-2.1717,0.7141,0.2124,-0.1912,
28.694121,-0.8212,-0.4237,-2.1717,0.7141,0.2124,-0.1912,
28.710798,-1.2262,0.2196,-1.0474,0.7141,0.2124,-0.1912,
28.714027,-1.2262,0.2196,-1.0474,0.6579,-0.5330,-0.0391,
28.759297,-1.2262,0.2196,-1.0474,0.6579,-0.5330,-0.0391,
28.776606,0.0931,-1.2148,-1.0860,0.6579,-0.5330,-0.0391,
28.778416,0.0931,-1.2148,-1.0860,0.4901,-0.9226,-0.0744,
28.823859,0.0931,-1.2148,-1.0860,0.4901,-0.9226,-0.0744,
28.840359,1.7052,-0.7576,-0.4518,0.4901,-0.9226,-0.0744,
28.844424,1.7052,-0.7576,-0.4518,0.5134,-0.6061,-0.3247,
28.891093,1.7052,-0.7576,-0.4518,0.5134,-0.6061,-0.3247,
28.906274,1.7073,-0.0029,0.3685,0.5134,-0.6061,-0.3247,
28.910229,1.7073,-0.0029,0.3685,0.4349,-0.1437,-0.3778,
28.954938,1.7073,-0.0029,0.3685,0.4349,-0.1437,-0.3778,
28.972569,1.3900,-0.0111,1.0894,0.4349,-0.1437,-0.3778,
28.975225,1.3900,-0.0111,1.0894,0.3355,-0.2260,-0.3948,
29.020687,1.3900,-0.0111,1.0894,0.3355,-0.2260,-0.3948,
29.037207,2.3622,0.1328,-0.1347,0.3355,-0.2260,-0.3948,
29.040407,2.3622,0.1328,-0.1347,0.3183,-0.3441,-0.1310,
29.087320,2.3622,0.1328,-0.1347,0.3183,-0.3441,-0.1310,
29.101941,-0.0145,3.0096,-0.6627,0.3183,-0.3441,-0.1310,
29.106881,-0.0145,3.0096,-0.6627,0.0318,-0.0386,0.3392,
29.151995,-0.0145,3.0096,-0.6627,0.0318,-0.0386,0.3392,
29.168397,-1.7257,-0.5783,-1.0315,0.0318,-0.0386,0.3392,
29.172738,-1.7257,-0.5783,-1.0315,-0.8381,-0.1371,0.5994,
29.217020,-1.7257,-0.5783,-1.0315,-0.8381,-0.1371,0.5994,
29.234263,0.4060,1.2535,-0.3481,-0.8381,-0.1371,0.5994,
29.237270,0.4060,1.2535,-0.3481,-0.7633,0.5371,0.3445,
29.282744,0.4060,1.2535,-0.3481,-0.7633,0.5371,0.3445,
29.299403,-0.0678,-0.5289,-1.2202,-0.7633,0.5371,0.3445,
29.303486,-0.0678,-0.5289,-1.2202,-0.7808,1.4667,0.2046,
29.347176,-0.0678,-0.5289,-1.2202,-0.7808,1.4667,0.2046,
29.363953,-1.4601,-1.3284,-0.3687,-0.7808,1.4667,0.2046,
29.367673,-1.4601,-1.3284,-0.3687,-0.5461,1.4849,0.1985,
29.413376,-1.4601,-1.3284,-0.3687,-0.5461,1.4849,0.1985,
29.430975,-1.1139,-0.7677,0.2231,-0.5461,1.4849,0.1985,
29.433156,-1.1139,-0.7677,0.2231,-0.2451,0.9566,0.2080,
29.480694,-1.1139,-0.7677,0.2231,-0.2451,0.9566,0.2080,
29.498003,-0.0424,-1.5277,0.7784,-0.2451,0.9566,0.2080,
29.499206,-0.0424,-1.5277,0.7784,0.1865,0.5652,0.1671,
29.544301,-0.0424,-1.5277,0.7784,0.1865,0.5652,0.1671,
29.560711,0.6354,0.4356,1.1608,0.1865,0.5652,0.1671,
29.563725,0.6354,0.4356,1.1608,0.1393,0.6791,0.0489,
29.610172,0.6354,0.4356,1.1608,0.1393,0.6791,0.0489,
29.626342,0.1030,0.4848,2.5509,0.1393,0.6791,0.0489,
29.630625,0.1030,0.4848,2.5509,-0.1723,0.3031,0.2321,
29.674913,0.1030,0.4848,2.5509,-0.1723,0.3031,0.2321,
29.691843,0.3159,3.5485,-0.5488,-0.1723,0.3031,0.2321,
29.694456,0.3159,3.5485,-0.5488,-0.1437,-0.1465,0.0591,
29.741150,0.3159,3.5485,-0.5488,-0.1437,-0.1465,0.0591,
29.758288,-1.4534,-0.8392,-1.4896,-0.1437,-0.1465,0.0591,
29.760598,-1.4534,-0.8392,-1.4896,0.0649,-0.0154,-0.1022,
29.806723,-1.4534,-0.8392,-1.4896,0.0649,-0.0154,-0.1022,
29.823699,-0.2860,-0.4271,-2.4705,0.0649,-0.0154,-0.1022,
29.826150,-0.2860,-0.4271,-2.4705,0.6492,0.1573,-0.1932,
29.872772,-0.2860,-0.4271,-2.4705,0.6492,0.1573,-0.1932,
29.888080,-1.4304,-0.0362,-1.0949,0.6492,0.1573,-0.1932,
29.891367,-1.4304,-0.0362,-1.0949,0.6770,-0.3300,-0.1506,
29.937448,-1.4304,-0.0362,-1.0949,0.6770,-0.3300,-0.1506,
29.953821,-0.2564,-1.0334,-1.0379,0.6770,-0.3300,-0.1506,
29.958005,-0.2564,-1.0334,-1.0379,0.5012,-0.9607,-0.0809,
30.003796,-0.2564,-1.0334,-1.0379,0.5012,-0.9607,-0.0809,
30.019728,1.6877,-0.6342,-0.5854,0.5012,-0.9607,-0.0809,
30.022349,1.6877,-0.6342,-0.5854,0.5345,-0.6724,-0.2984,
30.068812,1.6877,-0.6342,-0.5854,0.5345,-0.6724,-0.2984,
30.083994,1.7357,-0.1706,0.2257,0.5345,-0.6724,-0.2984,
30.088837,1.7357,-0.1706,0.2257,0.4074,-0.2057,-0.3195,
30.133943,1.7357,-0.1706,0.2257,0.4074,-0.2057,-0.3195,
30.150957,1.1170,-0.0773,0.4632,0.4074,-0.2057,-0.3195,
30.153348,1.1170,-0.0773,0.4632,0.2728,-0.1605,-0.3893,
30.200931,1.1170,-0.0773,0.4632,0.2728,-0.1605,-0.3893,
30.216728,1.9241,-0.0148,0.2993,0.2728,-0.1605,-0.3893,
30.220479,1.9241,-0.0148,0.2993,0.2030,-0.3703,-0.1008,
30.265549,1.9241,-0.0148,0.2993,0.2030,-0.3703,-0.1008,
30.281900,1.8625,1.7947,0.0750,0.2030,-0.3703,-0.1008,
30.286320,1.8625,1.7947,0.0750,0.1090,0.1822,0.3390,
30.331534,1.8625,1.7947,0.0750,0.1090,0.1822,0.3390,
30.349456,-1.2222,0.4039,-0.9031,0.1090,0.1822,0.3390,
30.351671,-1.2222,0.4039,-0.9031,-0.4986,0.2808,0.4594,
30.396482,-1.2222,0.4039,-0.9031,-0.4986,0.2808,0.4594,
30.415300,-0.8172,1.1155,-0.1686,-0.4986,0.2808,0.4594,
30.417609,-0.8172,1.1155,-0.1686,-0.6058,0.6266,0.4678,
30.461208,-0.8172,1.1155,-0.1686,-0.6058,0.6266,0.4678,
30.478904,-0.2827,0.6170,-0.8291,-0.6058,0.6266,0.4678,
30.482885,-0.2827,0.6170,-0.8291,-0.6923,0.9913,0.3010,
30.527440,-0.2827,0.6170,-0.8291,-0.6923,0.9913,0.3010,
30.545058,-0.5633,-1.7664,-0.7663,-0.6923,0.9913,0.3010,
30.549478,-0.5633,-1.7664,-0.7663,-0.4930,1.4711,0.2408,
30.592979,-0.5633,-1.7664,-0.7663,-0.4930,1.4711,0.2408,
30.609810,-1.0857,-0.8704,0.1730,-0.4930,1.4711,0.2408,
30.614272,-1.0857,-0.8704,0.1730,-0.2170,1.3522,0.0884,
30.657917,-1.0857,-0.8704,0.1730,-0.2170,1.3522,0.0884,
30.675868,-1.4331,-1.2596,0.4430,-0.2170,1.3522,0.0884,
30.678513,-1.4331,-1.2596,0.4430,0.0452,0.4772,0.1549,
30.724621,-1.4331,-1.2596,0.4430,0.0452,0.4772,0.1549,
30.740512,-0.0665,-1.0523,1.2036,0.0452,0.4772,0.1549,
30.742402,-0.0665,-1.0523,1.2036,0.2773,0.1570,-0.0069,
30.789845,-0.0665,-1.0523,1.2036,0.2773,0.1570,-0.0069,
30.805962,0.8634,1.3002,1.9167,0.2773,0.1570,-0.0069,
30.809008,0.8634,1.3002,1.9167,-0.2332,0.3302,0.1420,
30.855672,0.8634,1.3002,1.9167,-0.2332,0.3302,0.1420,
30.870327,0.4545,3.5635,1.2117,-0.2332,0.3302,0.1420,
30.875094,0.4545,3.5635,1.2117,-0.5954,0.0292,0.1886,
30.920846,0.4545,3.5635,1.2117,-0.5954,0.0292,0.1886,
30.937257,-1.8682,0.1957,-1.3102,-0.5954,0.0292,0.1886,
30.940943,-1.8682,0.1957,-1.3102,-0.1397,0.2286,-0.3992,
30.984868,-1.8682,0.1957,-1.3102,-0.1397,0.2286,-0.3992,
31.000529,-0.8471,-1.4197,-2.6116,-0.1397,0.2286,-0.3992,
31.004253,-0.8471,-1.4197,-2.6116,0.4111,0.1055,-0.0918,
31.050916,-0.8471,-1.4197,-2.6116,0.4111,0.1055,-0.0918,
31.066887,-0.7372,0.0575,-1.5048,0.4111,0.1055,-0.0918,
31.070589,-0.7372,0.0575,-1.5048,0.5667,-0.1251,-0.1364,
31.116048,-0.7372,0.0575,-1.5048,0.5667,-0.1251,-0.1364,
31.132016,-0.9249,-0.3850,-1.0184,0.5667,-0.1251,-0.1364,
31.135316,-0.9249,-0.3850,-1.0184,0.4331,-0.8464,-0.0770,
31.182107,-0.9249,-0.3850,-1.0184,0.4331,-0.8464,-0.0770,
31.198700,1.1728,-1.2601,-0.6992,0.4331,-0.8464,-0.0770,
31.201407,1.1728,-1.2601,-0.6992,0.5030,-0.9348,-0.2080,
31.247984,1.1728,-1.2601,-0.6992,0.5030,-0.9348,-0.2080,
31.265575,1.7376,-0.6217,-0.0928,0.5030,-0.9348,-0.2080,
31.267169,1.7376,-0.6217,-0.0928,0.4407,-0.4693,-0.3025,
31.312019,1.7376,-0.6217,-0.0928,0.4407,-0.4693,-0.3025,
31.330538,1.5970,-0.2430,0.4501,0.4407,-0.4693,-0.3025,
31.332503,1.5970,-0.2430,0.4501,0.3713,-0.1584,-0.3387,
31.378395,1.5970,-0.2430,0.4501,0.3713,-0.1584,-0.3387,
31.394445,1.3571,0.5034,0.5377,0.3713,-0.1584,-0.3387,
31.397982,1.3571,0.5034,0.5377,0.2624,-0.2250,-0.3013,
31.443964,1.3571,0.5034,0.5377,0.2624,-0.2250,-0.3013,
31.460589,2.2565,1.1492,-0.3741,0.2624,-0.2250,-0.3013,
31.464636,2.2565,1.1492,-0.3741,0.2532,-0.1173,-0.0382,
31.509580,2.2565,1.1492,-0.3741,0.2532,-0.1173,-0.0382,
31.525791,0.2135,2.3285,-1.1074,0.2532,-0.1173,-0.0382,
31.528893,0.2135,2.3285,-1.1074,-0.3137,0.1521,0.5544,
31.574768,0.2135,2.3285,-1.1074,-0.3137,0.1521,0.5544,
31.591857,-1.0547,-0.9573,-0.5841,-0.3137,0.1521,0.5544,
31.593875,-1.0547,-0.9573,-0.5841,-0.8511,0.3983,0.5986,
31.639671,-1.0547,-0.9573,-0.5841,-0.8511,0.3983,0.5986,
31.656538,0.9938,1.4615,-0.9910,-0.8511,0.3983,0.5986,
31.659979,0.9938,1.4615,-0.9910,-0.6756,1.3636,0.2967,
31.705905,0.9938,1.4615,-0.9910,-0.6756,1.3636,0.2967,
31.723705,-0.5267,-0.7423,-1.2333,-0.6756,1.3636,0.2967,
31.726317,-0.5267,-0.7423,-1.2333,-0.6608,1.8256,0.3160,
31.771466,-0.5267,-0.7423,-1.2333,-0.6608,1.8256,0.3160,
31.788077,-0.9055,-0.6950,-0.6239,-0.6608,1.8256,0.3160,
31.791787,-0.9055,-0.6950,-0.6239,-0.4114,1.7726,0.2422,
31.837335,-0.9055,-0.6950,-0.6239,-0.4114,1.7726,0.2422,
31.853591,-0.4495,-1.1875,-0.4353,-0.4114,1.7726,0.2422,
31.856569,-0.4495,-1.1875,-0.4353,-0.0492,1.3723,0.2960,
31.903732,-0.4495,-1.1875,-0.4353,-0.0492,1.3723,0.2960,
31.918681,0.1476,-1.2978,0.1841,-0.0492,1.3723,0.2960,
31.922274,0.1476,-1.2978,0.1841,0.2731,1.0728,0.2143,
31.967312,0.1476,-1.2978,0.1841,0.2731,1.0728,0.2143,
31.983243,-0.1451,1.1046,1.2554,0.2731,1.0728,0.2143,
31.986915,-0.1451,1.1046,1.2554,-0.0162,1.1047,0.1920,
32.033909,-0.1451,1.1046,1.2554,-0.0162,1.1047,0.1920,
32.050308,-0.1828,-0.2453,1.9279,-0.0162,1.1047,0.1920,
32.053406,-0.1828,-0.2453,1.9279,-0.3050,0.5147,0.3887,
32.097618,-0.1828,-0.2453,1.9279,-0.3050,0.5147,0.3887,
32.114556,-0.9875,1.8847,-1.4859,-0.3050,0.5147,0.3887,
32.117451,-0.9875,1.8847,-1.4859,0.4009,0.2078,-0.1617,
32.164075,-0.9875,1.8847,-1.4859,0.4009,0.2078,-0.1617,
32.181430,-0.7398,-0.1691,-2.1591,0.4009,0.2078,-0.1617,
32.183933,-0.7398,-0.1691,-2.1591,0.1869,0.1286,-0.1374,
32.229884,-0.7398,-0.1691,-2.1591,0.1869,0.1286,-0.1374,
32.248048,0.9180,-0.7650,-2.2717,0.1869,0.1286,-0.1374,
32.250274,0.9180,-0.7650,-2.2717,0.6503,0.4876,-0.1457,
32.295716,0.9180,-0.7650,-2.2717,0.6503,0.4876,-0.1457,
32.311368,0.0978,-0.0225,-0.9161,0.6503,0.4876,-0.1457,
32.315067,0.0978,-0.0225,-0.9161,0.6804,0.3916,-0.0974,
32.361295,0.0978,-0.0225,-0.9161,0.6804,0.3916,-0.0974,
32.376878,0.8636,-1.3315,-0.5077,0.6804,0.3916,-0.0974,
32.379910,0.8636,-1.3315,-0.5077,0.5565,0.1845,-0.1008,
32.427357,0.8636,-1.3315,-0.5077,0.5565,0.1845,-0.1008,
32.442947,1.9909,-0.7159,-0.2845,0.5565,0.1845,-0.1008,
32.446329,1.9909,-0.7159,-0.2845,0.6012,0.4082,-0.2560,
32.491968,1.9909,-0.7159,-0.2845,0.6012,0.4082,-0.2560,
32.508110,1.5722,-0.5574,0.0524,0.6012,0.4082,-0.2560,
32.510870,1.5722,-0.5574,0.0524,0.5255,0.5362,-0.2618,
32.556685,1.5722,-0.5574,0.0524,0.5255,0.5362,-0.2618,
32.572889,0.7601,0.4571,0.0276,0.5255,0.5362,-0.2618,
32.576314,0.7601,0.4571,0.0276,0.3567,0.1112,-0.2900,
32.623373,0.7601,0.4571,0.0276,0.3567,0.1112,-0.2900,
32.638650,1.8531,0.5703,0.0868,0.3567,0.1112,-0.2900,
32.641626,1.8531,0.5703,0.0868,0.1588,-0.4224,-0.0531,
32.687481,1.8531,0.5703,0.0868,0.1588,-0.4224,-0.0531,
32.704669,1.8634,2.4925,-1.4123,0.1588,-0.4224,-0.0531,
32.708078,1.8634,2.4925,-1.4123,-0.1836,-0.0287,0.4704,
32.754195,1.8634,2.4925,-1.4123,-0.1836,-0.0287,0.4704,
32.770243,-0.8726,-0.1438,-1.1628,-0.1836,-0.0287,0.4704,
32.773349,-0.8726,-0.1438,-1.1628,-0.7718,0.6136,0.7248,
32.819218,-0.8726,-0.1438,-1.1628,-0.7718,0.6136,0.7248,
32.835509,0.4209,2.0659,-0.8986,-0.7718,0.6136,0.7248,
32.838543,0.4209,2.0659,-0.8986,-0.7465,1.0374,0.3132,
32.883407,0.4209,2.0659,-0.8986,-0.7465,1.0374,0.3132,
32.901877,0.5793,-0.5732,-1.5525,-0.7465,1.0374,0.3132,
32.904289,0.5793,-0.5732,-1.5525,-0.8318,1.9679,0.3025,
32.949393,0.5793,-0.5732,-1.5525,-0.8318,1.9679,0.3025,
32.965290,-0.9284,-1.3534,-0.9434,-0.8318,1.9679,0.3025,
32.970381,-0.9284,-1.3534,-0.9434,-0.5652,2.2915,0.3450,
33.014233,-0.9284,-1.3534,-0.9434,-0.5652,2.2915,0.3450,
33.032425,-1.3994,-0.5460,0.0917,-0.5652,2.2915,0.3450,
33.034646,-1.3994,-0.5460,0.0917,-0.2585,1.3575,0.4233,
33.081403,-1.3994,-0.5460,0.0917,-0.2585,1.3575,0.4233,
33.097628,-0.2055,-2.2492,0.0789,-0.2585,1.3575,0.4233,
33.100711,-0.2055,-2.2492,0.0789,0.2515,0.6704,0.3822,
33.147147,-0.2055,-2.2492,0.0789,0.2515,0.6704,0.3822,
33.163902,0.6780,-0.0147,1.1042,0.2515,0.6704,0.3822,
33.166658,0.6780,-0.0147,1.1042,0.2818,0.7532,0.0698,
33.211597,0.6780,-0.0147,1.1042,0.2818,0.7532,0.0698,
33.228945,0.2590,0.1566,2.4142,0.2818,0.7532,0.0698,
33.232924,0.2590,0.1566,2.4142,-0.1691,0.6787,0.2541,
33.278523,0.2590,0.1566,2.4142,-0.1691,0.6787,0.2541,
33.294822,0.1094,5.3844,-0.0983,-0.1691,0.6787,0.2541,
33.296935,0.1094,5.3844,-0.0983,-0.3450,0.2023,0.1353,
33.345076,0.1094,5.3844,-0.0983,-0.3450,0.2023,0.1353,
33.361237,-0.7508,0.2216,-1.6315,-0.3450,0.2023,0.1353,
33.362955,-0.7508,0.2216,-1.6315,-0.0509,0.1148,-0.0180,
33.408666,-0.7508,0.2216,-1.6315,-0.0509,0.1148,-0.0180,
33.423600,0.1756,-1.7181,-2.8943,-0.0509,0.1148,-0.0180,
33.428729,0.1756,-1.7181,-2.8943,0.6663,0.6952,-0.0730,
33.475374,0.1756,-1.7181,-2.8943,0.6663,0.6952,-0.0730,
33.490487,-1.2833,0.7157,-1.4295,0.6663,0.6952,-0.0730,
33.493770,-1.2833,0.7157,-1.4295,0.7648,0.1234,-0.1083,
33.541206,-1.2833,0.7157,-1.4295,0.7648,0.1234,-0.1083,
33.555914,-0.1551,-1.3163,-1.0316,0.7648,0.1234,-0.1083,
33.558728,-0.1551,-1.3163,-1.0316,0.5447,-0.4395,0.0203,
33.604835,-0.1551,-1.3163,-1.0316,0.5447,-0.4395,0.0203,
33.620865,1.5381,-1.0050,-0.5344,0.5447,-0.4395,0.0203,
33.624840,1.5381,-1.0050,-0.5344,0.6594,-0.3222,-0.2816,
33.669673,1.5381,-1.0050,-0.5344,0.6594,-0.3222,-0.2816,
33.685902,1.8661,-0.3609,0.0478,0.6594,-0.3222,-0.2816,
33.689575,1.8661,-0.3609,0.0478,0.5705,-0.0837,-0.2798,
33.735762,1.8661,-0.3609,0.0478,0.5705,-0.0837,-0.2798,
33.753498,1.2969,-0.0048,0.1921,0.5705,-0.0837,-0.2798,
33.755820,1.2969,-0.0048,0.1921,0.3328,-0.0383,-0.2645,
33.801481,1.2969,-0.0048,0.1921,0.3328,-0.0383,-0.2645,
33.817667,1.9605,0.1864,0.4135,0.3328,-0.0383,-0.2645,
33.819952,1.9605,0.1864,0.4135,0.3538,-0.1999,-0.1700,
33.867557,1.9605,0.1864,0.4135,0.3538,-0.1999,-0.1700,
33.885845,1.7196,2.0579,0.1779,0.3538,-0.1999,-0.1700,
33.888800,1.7196,2.0579,0.1779,0.2471,-0.1952,-0.0293,
33.932250,1.7196,2.0579,0.1779,0.2471,-0.1952,-0.0293,
33.947668,-0.0192,1.2835,-1.3783,0.2471,-0.1952,-0.0293,
33.954999,-0.0192,1.2835,-1.3783,-0.3248,-0.1333,0.4305,
33.999770,-0.0192,1.2835,-1.3783,-0.3248,-0.1333,0.4305,
34.016800,-1.8244,-0.7371,-0.5326,-0.3248,-0.1333,0.4305,
34.019449,-1.8244,-0.7371,-0.5326,-0.8456,0.2135,0.6964,
34.063874,-1.8244,-0.7371,-0.5326,-0.8456,0.2135,0.6964,
34.081873,-0.0654,2.2876,-0.6972,-0.8456,0.2135,0.6964,
34.083933,-0.0654,2.2876,-0.6972,-0.8282,0.6041,0.3083,
34.128651,-0.0654,2.2876,-0.6972,-0.8282,0.6041,0.3083,
34.146133,-0.5021,-0.9503,-1.1338,-0.8282,0.6041,0.3083,
34.148586,-0.5021,-0.9503,-1.1338,-0.8094,1.2459,0.3803,
34.194210,-0.5021,-0.9503,-1.1338,-0.8094,1.2459,0.3803,
34.211115,-1.2447,-0.8109,-0.1481,-0.8094,1.2459,0.3803,
34.214862,-1.2447,-0.8109,-0.1481,-0.5765,1.3488,0.2363,
34.260316,-1.2447,-0.8109,-0.1481,-0.5765,1.3488,0.2363,
34.275780,-0.9230,-1.2825,0.2804,-0.5765,1.3488,0.2363,
34.282936,-0.9230,-1.2825,0.2804,-0.1281,0.7701,0.2363,
34.323527,-0.9230,-1.2825,0.2804,-0.1281,0.7701,0.2363,
34.340075,0.3988,-2.2821,0.8483,-0.1281,0.7701,0.2363,
34.343464,0.3988,-2.2821,0.8483,0.4259,0.4626,0.0469,
34.389890,0.3988,-2.2821,0.8483,0.4259,0.4626,0.0469,
34.406716,0.6259,0.4195,1.0682,0.4259,0.4626,0.0469,
34.410100,0.6259,0.4195,1.0682,0.1654,0.7459,-0.0000,
34.455528,0.6259,0.4195,1.0682,0.1654,0.7459,-0.0000,
34.471953,0.2899,0.4001,2.4303,0.1654,0.7459,-0.0000,
34.474522,0.2899,0.4001,2.4303,-0.0496,0.4640,0.2950,
34.520594,0.2899,0.4001,2.4303,-0.0496,0.4640,0.2950,
34.537856,-0.7659,3.9309,-0.7613,-0.0496,0.4640,0.2950,
34.540112,-0.7659,3.9309,-0.7613,-0.0724,0.0284,-0.0964,
34.587835,-0.7659,3.9309,-0.7613,-0.0724,0.0284,-0.0964,
34.603768,-1.1994,-0.8876,-1.6024,-0.0724,0.0284,-0.0964,
34.606716,-1.1994,-0.8876,-1.6024,0.1257,-0.1301,-0.0301,
34.651677,-1.1994,-0.8876,-1.6024,0.1257,-0.1301,-0.0301,
34.667985,-0.4709,-1.2325,-2.4017,0.1257,-0.1301,-0.0301,
34.671166,-0.4709,-1.2325,-2.4017,0.6078,0.2503,-0.0188,
34.717550,-0.4709,-1.2325,-2.4017,0.6078,0.2503,-0.0188,
34.733491,-0.9509,0.9901,-0.8641,0.6078,0.2503,-0.0188,
34.737023,-0.9509,0.9901,-0.8641,0.6290,-0.4586,0.0373,
34.784498,-0.9509,0.9901,-0.8641,0.6290,-0.4586,0.0373,
34.800827,-0.0255,-1.2182,-1.0105,0.6290,-0.4586,0.0373,
34.802901,-0.0255,-1.2182,-1.0105,0.4636,-0.7123,-0.0611,
34.847138,-0.0255,-1.2182,-1.0105,0.4636,-0.7123,-0.0611,
34.865827,0.8382,-0.9838,-0.4156,0.4636,-0.7123,-0.0611,
34.868830,0.8382,-0.9838,-0.4156,0.5852,-0.6336,-0.3406,
34.913690,0.8382,-0.9838,-0.4156,0.5852,-0.6336,-0.3406,
34.931723,1.3775,-0.4211,0.0005,0.5852,-0.6336,-0.3406,
34.933150,1.3775,-0.4211,0.0005,0.4557,-0.5337,-0.3482,
34.981146,1.3775,-0.4211,0.0005,0.4557,-0.5337,-0.3482,
34.998147,1.3373,-0.4830,0.7831,0.4557,-0.5337,-0.3482,
34.999743,1.3373,-0.4830,0.7831,0.2376,-0.4627,-0.3491,
35.044485,1.3373,-0.4830,0.7831,0.2376,-0.4627,-0.3491,
35.062819,2.0864,-0.1632,0.2871,0.2376,-0.4627,-0.3491,
35.063983,2.0864,-0.1632,0.2871,0.2541,-0.4401,-0.2688,
35.111969,2.0864,-0.1632,0.2871,0.2541,-0.4401,-0.2688,
35.127375,1.4642,1.2642,0.4484,0.2541,-0.4401,-0.2688,
35.129162,1.4642,1.2642,0.4484,0.1929,-0.3457,-0.0970,
35.174780,1.4642,1.2642,0.4484,0.1929,-0.3457,-0.0970,
35.192423,-0.3065,2.1445,-1.3196,0.1929,-0.3457,-0.0970,
35.196498,-0.3065,2.1445,-1.3196,-0.3926,-0.1538,0.5490,
35.240787,-0.3065,2.1445,-1.3196,-0.3926,-0.1538,0.5490,
35.258334,-1.6098,-0.2371,-0.3111,-0.3926,-0.1538,0.5490,
35.262464,-1.6098,-0.2371,-0.3111,-0.8196,0.1187,0.7567,
35.306933,-1.6098,-0.2371,-0.3111,-0.8196,0.1187,0.7567,
35.324584,0.0439,1.6400,-0.4403,-0.8196,0.1187,0.7567,
35.326662,0.0439,1.6400,-0.4403,-0.7802,0.6461,0.3600,
35.373075,0.0439,1.6400,-0.4403,-0.7802,0.6461,0.3600,
35.389554,-0.2931,-1.2233,-1.1266,-0.7802,0.6461,0.3600,
35.391922,-0.2931,-1.2233,-1.1266,-0.6848,1.3799,0.3699,
35.438472,-0.2931,-1.2233,-1.1266,-0.6848,1.3799,0.3699,
35.453333,-1.4189,-0.8869,-0.0286,-0.6848,1.3799,0.3699,
35.457056,-1.4189,-0.8869,-0.0286,-0.4607,1.4271,0.1443,
35.503842,-1.4189,-0.8869,-0.0286,-0.4607,1.4271,0.1443,
35.519522,-1.2692,-1.3903,0.5001,-0.4607,1.4271,0.1443,
35.522388,-1.2692,-1.3903,0.5001,0.1020,0.6716,0.1020,
35.570085,-1.2692,-1.3903,0.5001,0.1020,0.6716,0.1020,
35.586251,0.4478,-1.8662,1.0579,0.1020,0.6716,0.1020,
35.588483,0.4478,-1.8662,1.0579,0.4117,0.4192,-0.0881,
35.634118,0.4478,-1.8662,1.0579,0.4117,0.4192,-0.0881,
35.651588,0.7003,0.4373,1.2123,0.4117,0.4192,-0.0881,
35.654196,0.7003,0.4373,1.2123,-0.0728,0.6787,0.0568,
35.698702,0.7003,0.4373,1.2123,-0.0728,0.6787,0.0568,
35.715997,-0.0511,0.1606,2.1698,-0.0728,0.6787,0.0568,
35.719878,-0.0511,0.1606,2.1698,-0.2051,0.4621,0.2433,
35.764091,-0.0511,0.1606,2.1698,-0.2051,0.4621,0.2433,
35.783194,-2.1663,3.8929,-1.3706,-0.2051,0.4621,0.2433,
35.785209,-2.1663,3.8929,-1.3706,-0.2263,0.2472,-0.4349,
35.830867,-2.1663,3.8929,-1.3706,-0.2263,0.2472,-0.4349,
35.847760,-0.9284,-1.4142,-2.1739,-0.2263,0.2472,-0.4349,
35.850325,-0.9284,-1.4142,-2.1739,0.2779,-0.3380,0.0861,
35.896223,-0.9284,-1.4142,-2.1739,0.2779,-0.3380,0.0861,
35.914337,-0.1994,-0.5116,-2.0851,0.2779,-0.3380,0.0861,
35.916861,-0.1994,-0.5116,-2.0851,0.6255,0.1100,-0.1242,
35.961846,-0.1994,-0.5116,-2.0851,0.6255,0.1100,-0.1242,
35.978370,-0.8696,0.3089,-0.8502,0.6255,0.1100,-0.1242,
35.982581,-0.8696,0.3089,-0.8502,0.6066,-0.7213,-0.0330,
36.028143,-0.8696,0.3089,-0.8502,0.6066,-0.7213,-0.0330,
36.043882,0.6463,-1.2198,-0.6836,0.6066,-0.7213,-0.0330,
36.047445,0.6463,-1.2198,-0.6836,0.5096,-0.8128,-0.1381,
36.091595,0.6463,-1.2198,-0.6836,0.5096,-0.8128,-0.1381,
36.110278,1.4435,-0.6596,-0.1967,0.5096,-0.8128,-0.1381,
36.112389,1.4435,-0.6596,-0.1967,0.5449,-0.5434,-0.3574,
36.157467,1.4435,-0.6596,-0.1967,0.5449,-0.5434,-0.3574,
36.174170,1.7472,-0.3396,0.2940,0.5449,-0.5434,-0.3574,
36.177551,1.7472,-0.3396,0.2940,0.3848,-0.2705,-0.3900,
36.223383,1.7472,-0.3396,0.2940,0.3848,-0.2705,-0.3900,
36.239773,1.4005,-0.1971,0.5809,0.3848,-0.2705,-0.3900,
36.242943,1.4005,-0.1971,0.5809,0.2398,-0.2324,-0.3396,
36.288501,1.4005,-0.1971,0.5809,0.2398,-0.2324,-0.3396,
36.306081,2.3279,0.0567,0.6985,0.2398,-0.2324,-0.3396,
36.309546,2.3279,0.0567,0.6985,0.2599,-0.3231,-0.1840,
36.355631,2.3279,0.0567,0.6985,0.2599,-0.3231,-0.1840,
36.371696,2.0607,1.7687,0.0538,0.2599,-0.3231,-0.1840,
36.374705,2.0607,1.7687,0.0538,0.1416,0.0087,0.1767,
36.420658,2.0607,1.7687,0.0538,0.1416,0.0087,0.1767,
36.435753,-0.8023,0.8687,-1.8843,0.1416,0.0087,0.1767,
36.439284,-0.8023,0.8687,-1.8843,-0.6448,0.7005,0.7167,
36.486094,-0.8023,0.8687,-1.8843,-0.6448,0.7005,0.7167,
36.501926,-0.7901,1.8062,-0.4768,-0.6448,0.7005,0.7167,
36.506013,-0.7901,1.8062,-0.4768,-0.7289,0.8157,0.4656,
36.551263,-0.7901,1.8062,-0.4768,-0.7289,0.8157,0.4656,
36.566769,0.5067,0.3965,-1.5128,-0.7289,0.8157,0.4656,
36.570708,0.5067,0.3965,-1.5128,-0.8699,1.6768,0.2196,
36.617524,0.5067,0.3965,-1.5128,-0.8699,1.6768,0.2196,
36.631949,-1.1254,-1.2709,-1.4118,-0.8699,1.6768,0.2196,
36.636285,-1.1254,-1.2709,-1.4118,-0.7442,2.0449,0.2501,
36.680868,-1.1254,-1.2709,-1.4118,-0.7442,2.0449,0.2501,
36.699006,-2.2071,-1.0393,-0.2913,-0.7442,2.0449,0.2501,
36.701285,-2.2071,-1.0393,-0.2913,-0.5461,1.2572,0.2275,
36.748475,-2.2071,-1.0393,-0.2913,-0.5461,1.2572,0.2275,
36.764053,-0.6711,-1.7365,-0.1580,-0.5461,1.2572,0.2275,
36.767213,-0.6711,-1.7365,-0.1580,-0.0026,0.5681,0.2543,
36.813303,-0.6711,-1.7365,-0.1580,-0.0026,0.5681,0.2543,
36.831016,1.1247,-0.7724,0.9217,-0.0026,0.5681,0.2543,
36.833845,1.1247,-0.7724,0.9217,0.1932,0.6054,-0.0053,
36.879441,1.1247,-0.7724,0.9217,0.1932,0.6054,-0.0053,
36.897242,0.4027,0.4399,1.8917,0.1932,0.6054,-0.0053,
36.899103,0.4027,0.4399,1.8917,-0.0886,0.9439,0.0802,
36.944857,0.4027,0.4399,1.8917,-0.0886,0.9439,0.0802,
36.959871,0.3628,0.0260,1.7575,-0.0886,0.9439,0.0802,
36.963057,0.3628,0.0260,1.7575,-0.2057,0.4835,0.2758,
37.010384,0.3628,0.0260,1.7575,-0.2057,0.4835,0.2758,
37.026975,-0.9418,3.5218,-1.4110,-0.2057,0.4835,0.2758,
37.028964,-0.9418,3.5218,-1.4110,0.0075,0.3465,-0.3580,
37.075448,-0.9418,3.5218,-1.4110,0.0075,0.3465,-0.3580,
37.092012,0.1605,-2.0115,-2.8414,0.0075,0.3465,-0.3580,
37.093603,0.1605,-2.0115,-2.8414,0.3641,0.2561,0.0374,
37.141881,0.1605,-2.0115,-2.8414,0.3641,0.2561,0.0374,
37.157247,0.4794,-0.0799,-2.1558,0.3641,0.2561,0.0374,
37.159457,0.4794,-0.0799,-2.1558,0.8396,0.6622,-0.0851,
37.205846,0.4794,-0.0799,-2.1558,0.8396,0.6622,-0.0851,
37.222391,-0.2053,-0.0995,-0.9605,0.8396,0.6622,-0.0851,
37.226484,-0.2053,-0.0995,-0.9605,0.6301,0.1411,0.0086,
37.272269,-0.2053,-0.0995,-0.9605,0.6301,0.1411,0.0086,
37.288451,0.6871,-1.2203,-0.4867,0.6301,0.1411,0.0086,
37.291451,0.6871,-1.2203,-0.4867,0.6619,-0.0634,-0.1074,
37.336875,0.6871,-1.2203,-0.4867,0.6619,-0.0634,-0.1074,
37.353826,1.6877,-0.6221,-0.3682,0.6619,-0.0634,-0.1074,
37.357433,1.6877,-0.6221,-0.3682,0.6393,0.0573,-0.2642,
37.402263,1.6877,-0.6221,-0.3682,0.6393,0.0573,-0.2642,
37.418618,2.0439,-0.3470,-0.1742,0.6393,0.0573,-0.2642,
37.423280,2.0439,-0.3470,-0.1742,0.5330,0.1775,-0.3172,
37.467371,2.0439,-0.3470,-0.1742,0.5330,0.1775,-0.3172,
37.484538,1.4059,0.3274,0.4941,0.5330,0.1775,-0.3172,
37.487320,1.4059,0.3274,0.4941,0.3607,-0.0583,-0.2477,
37.532773,1.4059,0.3274,0.4941,0.3607,-0.0583,-0.2477,
37.549758,2.7101,1.2347,-0.6701,0.3607,-0.0583,-0.2477,
37.552589,2.7101,1.2347,-0.6701,0.2253,-0.2498,-0.1130,
37.598958,2.7101,1.2347,-0.6701,0.2253,-0.2498,-0.1130,
37.616148,0.4412,2.5073,-1.3215,0.2253,-0.2498,-0.1130,
37.619963,0.4412,2.5073,-1.3215,-0.3013,0.1503,0.4756,
37.665631,0.4412,2.5073,-1.3215,-0.3013,0.1503,0.4756,
37.680776,-2.0282,-0.2735,-0.7955,-0.3013,0.1503,0.4756,
37.683551,-2.0282,-0.2735,-0.7955,-0.9245,0.3511,0.7688,
37.729487,-2.0282,-0.2735,-0.7955,-0.9245,0.3511,0.7688,
37.747563,-0.1146,1.8758,-0.5942,-0.9245,0.3511,0.7688,
37.749758,-0.1146,1.8758,-0.5942,-0.8555,0.5481,0.3115,
37.796108,-0.1146,1.8758,-0.5942,-0.8555,0.5481,0.3115,
37.810787,-0.0716,-1.1629,-1.0242,-0.8555,0.5481,0.3115,
37.816005,-0.0716,-1.1629,-1.0242,-0.7844,1.3596,0.4588,
37.861068,-0.0716,-1.1629,-1.0242,-0.7844,1.3596,0.4588,
37.877090,-1.4106,-0.8938,-0.2916,-0.7844,1.3596,0.4588,
37.882093,-1.4106,-0.8938,-0.2916,-0.4745,1.4613,0.3914,
37.926413,-1.4106,-0.8938,-0.2916,-0.4745,1.4613,0.3914,
37.943171,-1.3574,-1.1378,0.2701,-0.4745,1.4613,0.3914,
37.946249,-1.3574,-1.1378,0.2701,-0.2728,0.7075,0.3745,
37.991650,-1.3574,-1.1378,0.2701,-0.2728,0.7075,0.3745,
38.008909,0.6275,-2.0566,0.2115,-0.2728,0.7075,0.3745,
38.010971,0.6275,-2.0566,0.2115,0.3506,0.5020,0.1813,
38.058240,0.6275,-2.0566,0.2115,0.3506,0.5020,0.1813,
38.074632,1.1989,-0.1596,1.0687,0.3506,0.5020,0.1813,
38.077264,1.1989,-0.1596,1.0687,0.3476,0.8257,0.0063,
38.123814,1.1989,-0.1596,1.0687,0.3476,0.8257,0.0063,
38.139750,0.6899,0.2537,1.9519,0.3476,0.8257,0.0063,
38.143243,0.6899,0.2537,1.9519,-0.0203,0.6698,0.3470,
38.190419,0.6899,0.2537,1.9519,-0.0203,0.6698,0.3470,
38.204457,-0.6291,5.2049,-0.1712,-0.0203,0.6698,0.3470,
38.207598,-0.6291,5.2049,-0.1712,-0.2680,0.3305,0.0522,
38.253816,-0.6291,5.2049,-0.1712,-0.2680,0.3305,0.0522,
38.271036,-1.9336,-0.7008,-1.5834,-0.2680,0.3305,0.0522,
38.273688,-1.9336,-0.7008,-1.5834,-0.0806,-0.1220,-0.3054,
38.319290,-1.9336,-0.7008,-1.5834,-0.0806,-0.1220,-0.3054,
38.335548,-0.3544,-1.0979,-2.4108,-0.0806,-0.1220,-0.3054,
38.340599,-0.3544,-1.0979,-2.4108,0.6558,0.2518,0.0020,
38.386924,-0.3544,-1.0979,-2.4108,0.6558,0.2518,0.0020,
38.402016,-1.2246,0.6865,-1.1456,0.6558,0.2518,0.0020,
38.404511,-1.2246,0.6865,-1.1456,0.6613,-0.4630,-0.0322,
38.450680,-1.2246,0.6865,-1.1456,0.6613,-0.4630,-0.0322,
38.469566,-0.1532,-1.4184,-1.0322,0.6613,-0.4630,-0.0322,
38.471688,-0.1532,-1.4184,-1.0322,0.5305,-0.8732,-0.1348,
38.514718,-0.1532,-1.4184,-1.0322,0.5305,-0.8732,-0.1348,
38.531699,1.3680,-0.7662,-0.2421,0.5305,-0.8732,-0.1348,
38.534634,1.3680,-0.7662,-0.2421,0.5982,-0.6080,-0.3538,
38.581990,1.3680,-0.7662,-0.2421,0.5982,-0.6080,-0.3538,
38.598474,1.5598,-0.4028,0.1030,0.5982,-0.6080,-0.3538,
38.600457,1.5598,-0.4028,0.1030,0.4835,-0.3063,-0.4019,
38.646121,1.5598,-0.4028,0.1030,0.4835,-0.3063,-0.4019,
38.663705,1.3883,-0.4600,0.6796,0.4835,-0.3063,-0.4019,
38.665711,1.3883,-0.4600,0.6796,0.3473,-0.2482,-0.3554,
38.712867,1.3883,-0.4600,0.6796,0.3473,-0.2482,-0.3554,
38.729905,1.7007,0.1900,0.3489,0.3473,-0.2482,-0.3554,
38.733043,1.7007,0.1900,0.3489,0.2521,-0.3684,-0.1487,
38.777339,1.7007,0.1900,0.3489,0.2521,-0.3684,-0.1487,
38.794241,2.0456,1.5284,-0.0066,0.2521,-0.3684,-0.1487,
38.797995,2.0456,1.5284,-0.0066,0.1895,-0.1222,-0.0397,
38.842298,2.0456,1.5284,-0.0066,0.1895,-0.1222,-0.0397,
38.858556,0.5361,2.0005,-1.1729,0.1895,-0.1222,-0.0397,
38.862617,0.5361,2.0005,-1.1729,-0.3729,0.3775,0.5418,
38.909475,0.5361,2.0005,-1.1729,-0.3729,0.3775,0.5418,
38.925339,-1.3761,-0.4205,-0.7243,-0.3729,0.3775,0.5418,
38.930467,-1.3761,-0.4205,-0.7243,-0.8740,0.6550,0.5985,
38.975305,-1.3761,-0.4205,-0.7243,-0.8740,0.6550,0.5985,
38.990792,0.5462,1.8519,-0.9791,-0.8740,0.6550,0.5985,
38.994230,0.5462,1.8519,-0.9791,-0.7651,1.1153,0.2369,
39.039150,0.5462,1.8519,-0.9791,-0.7651,1.1153,0.2369,
39.055523,-0.2791,-0.5907,-1.3273,-0.7651,1.1153,0.2369,
39.058991,-0.2791,-0.5907,-1.3273,-0.7715,1.8072,0.2870,
39.105098,-0.2791,-0.5907,-1.3273,-0.7715,1.8072,0.2870,
39.121979,-1.6723,-0.9728,-0.1713,-0.7715,1.8072,0.2870,
39.124716,-1.6723,-0.9728,-0.1713,-0.5287,1.5056,0.2870,
39.171153,-1.6723,-0.9728,-0.1713,-0.5287,1.5056,0.2870,
39.186798,-0.9573,-1.4309,0.1070,-0.5287,1.5056,0.2870,
39.189482,-0.9573,-1.4309,0.1070,-0.1235,0.7932,0.3085,
39.236492,-0.9573,-1.4309,0.1070,-0.1235,0.7932,0.3085,
39.251788,0.5146,-2.3532,0.6867,-0.1235,0.7932,0.3085,
39.255531,0.5146,-2.3532,0.6867,0.4954,0.4343,0.1196,
39.300254,0.5146,-2.3532,0.6867,0.4954,0.4343,0.1196,
39.317205,0.6816,0.2106,1.1854,0.4954,0.4343,0.1196,
39.320440,0.6816,0.2106,1.1854,0.2460,0.6709,-0.0124,
39.366663,0.6816,0.2106,1.1854,0.2460,0.6709,-0.0124,
39.383295,0.8069,0.3516,2.2363,0.2460,0.6709,-0.0124,
39.387530,0.8069,0.3516,2.2363,-0.0518,0.3251,0.2402,
39.431695,0.8069,0.3516,2.2363,-0.0518,0.3251,0.2402,
39.448936,0.2150,4.8676,-0.1737,-0.0518,0.3251,0.2402,
39.451360,0.2150,4.8676,-0.1737,-0.1961,0.1465,-0.0467,
39.499549,0.2150,4.8676,-0.1737,-0.1961,0.1465,-0.0467,
39.514030,-1.7913,-0.3661,-1.2355,-0.1961,0.1465,-0.0467,
39.517373,-1.7913,-0.3661,-1.2355,0.0333,-0.0777,-0.1042,
39.562902,-1.7913,-0.3661,-1.2355,0.0333,-0.0777,-0.1042,
39.580861,-0.8561,-2.2013,-2.9237,0.0333,-0.0777,-0.1042,
39.584035,-0.8561,-2.2013,-2.9237,0.6216,0.3186,-0.0912,
39.628766,-0.8561,-2.2013,-2.9237,0.6216,0.3186,-0.0912,
39.643783,-1.5701,0.7130,-0.8648,0.6216,0.3186,-0.0912,
39.647495,-1.5701,0.7130,-0.8648,0.5800,-0.5951,0.0182,
39.693152,-1.5701,0.7130,-0.8648,0.5800,-0.5951,0.0182,
39.711412,-0.1736,-0.9539,-0.9223,0.5800,-0.5951,0.0182,
39.713987,-0.1736,-0.9539,-0.9223,0.4220,-1.0098,0.1155,
39.760487,-0.1736,-0.9539,-0.9223,0.4220,-1.0098,0.1155,
39.777093,1.5047,-0.4866,-0.4829,0.4220,-1.0098,0.1155,
39.781399,1.5047,-0.4866,-0.4829,0.4983,-0.7039,-0.2088,
39.824076,1.5047,-0.4866,-0.4829,0.4983,-0.7039,-0.2088,
39.841114,1.6839,-0.7829,0.0119,0.4983,-0.7039,-0.2088,
39.843542,1.6839,-0.7829,0.0119,0.4603,-0.2647,-0.3464,
39.891248,1.6839,-0.7829,0.0119,0.4603,-0.2647,-0.3464,
39.907884,1.0341,-0.5765,0.8074,0.4603,-0.2647,-0.3464,
39.910096,1.0341,-0.5765,0.8074,0.4097,-0.2515,-0.4285,
39.956381,1.0341,-0.5765,0.8074,0.4097,-0.2515,-0.4285,
39.972550,1.8131,0.3811,-0.0258,0.4097,-0.2515,-0.4285,
39.975693,1.8131,0.3811,-0.0258,0.3624,-0.6161,-0.2161,
40.022163,1.8131,0.3811,-0.0258,0.3624,-0.6161,-0.2161,
40.037472,0.6645,1.9339,0.4550,0.3624,-0.6161,-0.2161,
40.040460,0.6645,1.9339,0.4550,0.0693,-0.4059,0.3299,
40.087596,0.6645,1.9339,0.4550,0.0693,-0.4059,0.3299,
40.103770,-1.5196,1.5975,-0.9882,0.0693,-0.4059,0.3299,
40.107110,-1.5196,1.5975,-0.9882,-0.5838,-0.2219,0.8923,
40.152308,-1.5196,1.5975,-0.9882,-0.5838,-0.2219,0.8923,
40.168507,-2.3149,1.0743,0.2929,-0.5838,-0.2219,0.8923,
40.172459,-2.3149,1.0743,0.2929,-0.8370,-0.1266,0.5231,
40.219143,-2.3149,1.0743,0.2929,-0.8370,-0.1266,0.5231,
40.234895,-0.5629,0.5494,-0.1882,-0.8370,-0.1266,0.5231,
40.239188,-0.5629,0.5494,-0.1882,-0.8520,0.2407,0.1112,
40.283602,-0.5629,0.5494,-0.1882,-0.8520,0.2407,0.1112,
40.300544,-0.7509,-1.6521,-0.2501,-0.8520,0.2407,0.1112,
40.304789,-0.7509,-1.6521,-0.2501,-0.5429,0.5431,0.2022,
40.347396,-0.7509,-1.6521,-0.2501,-0.5429,0.5431,0.2022,
40.364073,-1.3631,-1.5269,0.7106,-0.5429,0.5431,0.2022,
40.367565,-1.3631,-1.5269,0.7106,-0.3143,0.3629,-0.0315,
40.414236,-1.3631,-1.5269,0.7106,-0.3143,0.3629,-0.0315,
40.430592,-0.5963,-1.8306,0.8810,-0.3143,0.3629,-0.0315,
40.436325,-0.5963,-1.8306,0.8810,0.2248,-0.0290,-0.0347,
40.480023,-0.5963,-1.8306,0.8810,0.2248,-0.0290,-0.0347,
40.494959,0.4453,-0.5216,1.8621,0.2248,-0.0290,-0.0347,
40.499232,0.4453,-0.5216,1.8621,0.3818,0.0414,-0.0722,
40.545460,0.4453,-0.5216,1.8621,0.3818,0.0414,-0.0722,
40.560360,0.5110,1.4689,2.2267,0.3818,0.0414,-0.0722,
40.563940,0.5110,1.4689,2.2267,-0.1220,0.1078,0.0046,
40.610655,0.5110,1.4689,2.2267,-0.1220,0.1078,0.0046,
40.626767,-0.4432,4.6125,1.4942,-0.1220,0.1078,0.0046,
40.631599,-0.4432,4.6125,1.4942,-0.5423,-0.3903,-0.1342,
40.675782,-0.4432,4.6125,1.4942,-0.5423,-0.3903,-0.1342,
40.693091,-1.5756,-1.1128,-0.5501,-0.5423,-0.3903,-0.1342,
40.699013,-1.5756,-1.1128,-0.5501,-0.0670,-0.3797,-0.2231,
40.741122,-1.5756,-1.1128,-0.5501,-0.0670,-0.3797,-0.2231,
40.757929,-0.8911,-0.6248,-2.4262,-0.0670,-0.3797,-0.2231,
40.760296,-0.8911,-0.6248,-2.4262,0.4879,-0.2187,-0.3403,
40.807110,-0.8911,-0.6248,-2.4262,0.4879,-0.2187,-0.3403,
40.825126,-1.2236,-0.5118,-0.7853,0.4879,-0.2187,-0.3403,
40.827295,-1.2236,-0.5118,-0.7853,0.5724,-0.5734,-0.1681,
40.873972,-1.2236,-0.5118,-0.7853,0.5724,-0.5734,-0.1681,
40.888673,-0.7168,-0.3935,-0.7139,0.5724,-0.5734,-0.1681,
40.891993,-0.7168,-0.3935,-0.7139,0.4369,-1.1191,-0.0067,
40.938726,-0.7168,-0.3935,-0.7139,0.4369,-1.1191,-0.0067,
40.954610,1.0282,-1.0799,-0.2245,0.4369,-1.1191,-0.0067,
40.957768,1.0282,-1.0799,-0.2245,0.4514,-1.1939,-0.2227,
41.006603,1.0282,-1.0799,-0.2245,0.4514,-1.1939,-0.2227,
41.020783,1.6958,-0.8791,0.1922,0.4514,-1.1939,-0.2227,
41.023098,1.6958,-0.8791,0.1922,0.3998,-0.7315,-0.3810,
41.068640,1.6958,-0.8791,0.1922,0.3998,-0.7315,-0.3810,
41.086693,1.3655,-0.2633,0.8247,0.3998,-0.7315,-0.3810,
41.089539,1.3655,-0.2633,0.8247,0.2775,-0.5528,-0.4468,
41.135034,1.3655,-0.2633,0.8247,0.2775,-0.5528,-0.4468,
41.150080,2.2872,1.0206,0.6040,0.2775,-0.5528,-0.4468,
41.154298,2.2872,1.0206,0.6040,0.1842,-0.5936,-0.1225,
41.200579,2.2872,1.0206,0.6040,0.1842,-0.5936,-0.1225,
41.218596,1.3799,2.7311,0.7560,0.1842,-0.5936,-0.1225,
41.220684,1.3799,2.7311,0.7560,-0.0718,-0.0312,0.4658,
41.267043,1.3799,2.7311,0.7560,-0.0718,-0.0312,0.4658,
41.284001,-1.5749,0.8697,-1.0370,-0.0718,-0.0312,0.4658,
41.286214,-1.5749,0.8697,-1.0370,-0.7621,-0.1701,0.5307,
41.331137,-1.5749,0.8697,-1.0370,-0.7621,-0.1701,0.5307,
41.347290,-1.6229,0.7671,-0.1201,-0.7621,-0.1701,0.5307,
41.350952,-1.6229,0.7671,-0.1201,-0.8517,0.1170,0.3344,
41.395905,-1.6229,0.7671,-0.1201,-0.8517,0.1170,0.3344,
41.414573,-0.3818,-0.1993,-0.8582,-0.8517,0.1170,0.3344,
41.416723,-0.3818,-0.1993,-0.8582,-0.8694,0.5837,0.1915,
41.461849,-0.3818,-0.1993,-0.8582,-0.8694,0.5837,0.1915,
41.477690,-0.9343,-1.9230,-0.4140,-0.8694,0.5837,0.1915,
41.481028,-0.9343,-1.9230,-0.4140,-0.6805,0.8555,0.2250,
41.527997,-0.9343,-1.9230,-0.4140,-0.6805,0.8555,0.2250,
41.543883,-0.8289,-0.7154,0.6398,-0.6805,0.8555,0.2250,
41.547759,-0.8289,-0.7154,0.6398,-0.2735,0.6338,-0.0006,
41.591949,-0.8289,-0.7154,0.6398,-0.2735,0.6338,-0.0006,
41.609626,-0.1319,-1.6034,0.8614,-0.2735,0.6338,-0.0006,
41.612642,-0.1319,-1.6034,0.8614,0.1772,0.3445,-0.0258,
41.658096,-0.1319,-1.6034,0.8614,0.1772,0.3445,-0.0258,
41.674226,0.3553,0.0348,1.1925,0.1772,0.3445,-0.0258,
41.678083,0.3553,0.0348,1.1925,0.1387,0.4720,-0.1167,
41.723898,0.3553,0.0348,1.1925,0.1387,0.4720,-0.1167,
41.739834,0.4954,0.5360,2.3720,0.1387,0.4720,-0.1167,
41.742965,0.4954,0.5360,2.3720,-0.1930,0.3467,0.1138,
41.791982,0.4954,0.5360,2.3720,-0.1930,0.3467,0.1138,
41.806590,0.4903,3.7194,-0.3320,-0.1930,0.3467,0.1138,
41.810911,0.4903,3.7194,-0.3320,-0.1234,-0.2184,0.0779,
41.854532,0.4903,3.7194,-0.3320,-0.1234,-0.2184,0.0779,
41.870896,-1.1642,-0.9755,-1.1982,-0.1234,-0.2184,0.0779,
41.874875,-1.1642,-0.9755,-1.1982,-0.0480,0.0959,-0.1784,
41.920582,-1.1642,-0.9755,-1.1982,-0.0480,0.0959,-0.1784,
41.939115,-0.1804,-1.5375,-2.5091,-0.0480,0.0959,-0.1784,
41.941264,-0.1804,-1.5375,-2.5091,0.5490,0.3488,-0.1866,
41.984384,-0.1804,-1.5375,-2.5091,0.5490,0.3488,-0.1866,
42.002379,-0.5699,0.9017,-1.0317,0.5490,0.3488,-0.1866,
42.005930,-0.5699,0.9017,-1.0317,0.6501,-0.0983,0.0024,
42.052514,-0.5699,0.9017,-1.0317,0.6501,-0.0983,0.0024,
42.068497,-0.0886,-0.9738,-0.9759,0.6501,-0.0983,0.0024,
42.072987,-0.0886,-0.9738,-0.9759,0.4534,-0.5035,-0.0113,
42.117494,-0.0886,-0.9738,-0.9759,0.4534,-0.5035,-0.0113,
42.134550,0.9482,-1.0786,-0.5616,0.4534,-0.5035,-0.0113,
42.136910,0.9482,-1.0786,-0.5616,0.5857,-0.4003,-0.3227,
42.181342,0.9482,-1.0786,-0.5616,0.5857,-0.4003,-0.3227,
42.199525,1.5892,-0.2277,0.1174,0.5857,-0.4003,-0.3227,
42.201088,1.5892,-0.2277,0.1174,0.4704,-0.1706,-0.3286,
42.249729,1.5892,-0.2277,0.1174,0.4704,-0.1706,-0.3286,
42.264795,1.4948,-0.0698,0.8081,0.4704,-0.1706,-0.3286,
42.267013,1.4948,-0.0698,0.8081,0.3412,-0.1252,-0.4087,
42.312992,1.4948,-0.0698,0.8081,0.3412,-0.1252,-0.4087,
42.329866,1.7901,-0.1325,0.8558,0.3412,-0.1252,-0.4087,
42.332768,1.7901,-0.1325,0.8558,0.2859,-0.3983,-0.1846,
42.379298,1.7901,-0.1325,0.8558,0.2859,-0.3983,-0.1846,
42.395410,0.9987,3.2586,-0.7422,0.2859,-0.3983,-0.1846,
42.397726,0.9987,3.2586,-0.7422,0.1849,-0.0612,0.1274,
42.445144,0.9987,3.2586,-0.7422,0.1849,-0.0612,0.1274,
42.461539,-1.2920,0.0244,-1.6538,0.1849,-0.0612,0.1274,
42.464139,-1.2920,0.0244,-1.6538,-0.7676,0.0044,0.4404,
42.509153,-1.2920,0.0244,-1.6538,-0.7676,0.0044,0.4404,
42.526948,0.2845,0.7731,-0.3490,-0.7676,0.0044,0.4404,
42.529485,0.2845,0.7731,-0.3490,-0.6684,0.5353,0.3120,
42.574027,0.2845,0.7731,-0.3490,-0.6684,0.5353,0.3120,
42.591172,1.1041,-0.1266,-1.3222,-0.6684,0.5353,0.3120,
42.593914,1.1041,-0.1266,-1.3222,-0.7550,1.6247,0.1666,
42.639200,1.1041,-0.1266,-1.3222,-0.7550,1.6247,0.1666,
42.655274,-0.3741,-1.4600,-1.1799,-0.7550,1.6247,0.1666,
42.659461,-0.3741,-1.4600,-1.1799,-0.4898,2.1235,0.3477,
42.704666,-0.3741,-1.4600,-1.1799,-0.4898,2.1235,0.3477,
42.721094,-0.9174,-0.1992,-0.2448,-0.4898,2.1235,0.3477,
42.724540,-0.9174,-0.1992,-0.2448,-0.3459,1.8192,0.4087,
42.770414,-0.9174,-0.1992,-0.2448,-0.3459,1.8192,0.4087,
42.787947,-0.3763,-1.2248,-0.0575,-0.3459,1.8192,0.4087,
42.790864,-0.3763,-1.2248,-0.0575,-0.0104,1.2897,0.4563,
42.836903,-0.3763,-1.2248,-0.0575,-0.0104,1.2897,0.4563,
42.855039,0.5426,-0.7074,0.0969,-0.0104,1.2897,0.4563,
42.857191,0.5426,-0.7074,0.0969,0.1915,1.2199,0.1875,
42.901710,0.5426,-0.7074,0.0969,0.1915,1.2199,0.1875,
42.918977,0.1153,1.3621,1.6514,0.1915,1.2199,0.1875,
42.922822,0.1153,1.3621,1.6514,-0.1793,1.1197,0.2463,
42.968641,0.1153,1.3621,1.6514,-0.1793,1.1197,0.2463,
42.984974,-0.0128,0.9004,1.0098,-0.1793,1.1197,0.2463,
42.988561,-0.0128,0.9004,1.0098,-0.4607,0.5402,0.5321,
43.035235,-0.0128,0.9004,1.0098,-0.4607,0.5402,0.5321,
43.051689,-0.5873,1.8501,-1.8030,-0.4607,0.5402,0.5321,
43.054331,-0.5873,1.8501,-1.8030,-0.0591,0.6472,-0.1726,
43.099319,-0.5873,1.8501,-1.8030,-0.0591,0.6472,-0.1726,
43.116817,0.0077,-1.7564,-2.6644,-0.0591,0.6472,-0.1726,
43.119140,0.0077,-1.7564,-2.6644,0.3658,0.7069,-0.1529,
43.165657,0.0077,-1.7564,-2.6644,0.3658,0.7069,-0.1529,
43.182409,0.6058,-0.3410,-2.2233,0.3658,0.7069,-0.1529,
43.185839,0.6058,-0.3410,-2.2233,0.7468,0.9284,-0.0539,
43.229803,0.6058,-0.3410,-2.2233,0.7468,0.9284,-0.0539,
43.246976,-0.4094,-0.1899,-0.7514,0.7468,0.9284,-0.0539,
43.250075,-0.4094,-0.1899,-0.7514,0.6130,0.4751,0.0191,
43.296550,-0.4094,-0.1899,-0.7514,0.6130,0.4751,0.0191,
43.311937,0.8335,-1.0868,-0.8851,0.6130,0.4751,0.0191,
43.315886,0.8335,-1.0868,-0.8851,0.5614,0.1173,-0.1002,
43.362962,0.8335,-1.0868,-0.8851,0.5614,0.1173,-0.1002,
43.377972,1.7239,-0.6252,-0.2918,0.5614,0.1173,-0.1002,
43.381309,1.7239,-0.6252,-0.2918,0.5302,0.2978,-0.2317,
43.425872,1.7239,-0.6252,-0.2918,0.5302,0.2978,-0.2317,
43.444304,2.0296,0.0991,0.0138,0.5302,0.2978,-0.2317,
43.446016,2.0296,0.0991,0.0138,0.3795,0.2950,-0.2023,
43.493443,2.0296,0.0991,0.0138,0.3795,0.2950,-0.2023,
43.508581,1.7731,0.5760,0.3053,0.3795,0.2950,-0.2023,
43.510819,1.7731,0.5760,0.3053,0.2877,0.1741,-0.1397,
43.556887,1.7731,0.5760,0.3053,0.2877,0.1741,-0.1397,
43.573871,1.8528,1.3940,-0.6637,0.2877,0.1741,-0.1397,
43.576792,1.8528,1.3940,-0.6637,0.1972,0.1350,0.0666,
43.622141,1.8528,1.3940,-0.6637,0.1972,0.1350,0.0666,
43.638524,0.1158,1.9675,-1.1626,0.1972,0.1350,0.0666,
43.641996,0.1158,1.9675,-1.1626,-0.3001,0.3186,0.5727,
43.688513,0.1158,1.9675,-1.1626,-0.3001,0.3186,0.5727,
43.704907,-0.9277,-0.8084,-0.8412,-0.3001,0.3186,0.5727,
43.707424,-0.9277,-0.8084,-0.8412,-0.6852,0.5823,0.5683,
43.753298,-0.9277,-0.8084,-0.8412,-0.6852,0.5823,0.5683,
43.769719,0.9108,1.4062,-1.1638,-0.6852,0.5823,0.5683,
43.773804,0.9108,1.4062,-1.1638,-0.6657,1.3137,0.2917,
43.818257,0.9108,1.4062,-1.1638,-0.6657,1.3137,0.2917,
43.836498,-0.3410,-0.7610,-1.2615,-0.6657,1.3137,0.2917,
43.840415,-0.3410,-0.7610,-1.2615,-0.6542,1.9248,0.3609,
43.885289,-0.3410,-0.7610,-1.2615,-0.6542,1.9248,0.3609,
43.903917,-1.1745,-0.5115,-0.3595,-0.6542,1.9248,0.3609,
43.906421,-1.1745,-0.5115,-0.3595,-0.4334,1.7037,0.2879,
43.949844,-1.1745,-0.5115,-0.3595,-0.4334,1.7037,0.2879,
43.966554,-0.7349,-1.1284,-0.1790,-0.4334,1.7037,0.2879,
43.970243,-0.7349,-1.1284,-0.1790,-0.1917,1.0733,0.3286,
44.015930,-0.7349,-1.1284,-0.1790,-0.1917,1.0733,0.3286,
44.033644,0.2679,-1.4709,0.4251,-0.1917,1.0733,0.3286,
44.035209,0.2679,-1.4709,0.4251,0.2195,0.7700,0.1845,
44.081641,0.2679,-1.4709,0.4251,0.2195,0.7700,0.1845,
44.097651,0.2036,0.7825,1.2445,0.2195,0.7700,0.1845,
44.100495,0.2036,0.7825,1.2445,0.0406,0.9022,0.0741,
44.146880,0.2036,0.7825,1.2445,0.0406,0.9022,0.0741,
44.164524,0.6409,0.1492,2.1583,0.0406,0.9022,0.0741,
44.166897,0.6409,0.1492,2.1583,-0.1860,0.4397,0.4152,
44.212799,0.6409,0.1492,2.1583,-0.1860,0.4397,0.4152,
44.227351,0.6940,3.7462,-0.5747,-0.1860,0.4397,0.4152,
44.231377,0.6940,3.7462,-0.5747,0.0223,0.1691,0.1646,
44.277537,0.6940,3.7462,-0.5747,0.0223,0.1691,0.1646,
44.294958,-1.2300,-1.1034,-1.4688,0.0223,0.1691,0.1646,
44.297659,-1.2300,-1.1034,-1.4688,0.0550,0.3778,0.0228,
44.342959,-1.2300,-1.1034,-1.4688,0.0550,0.3778,0.0228,
44.360067,-0.5192,-1.2295,-2.7439,0.0550,0.3778,0.0228,
44.363266,-0.5192,-1.2295,-2.7439,0.6165,0.5043,-0.1066,
44.409857,-0.5192,-1.2295,-2.7439,0.6165,0.5043,-0.1066,
44.424630,-0.7743,0.8283,-0.8434,0.6165,0.5043,-0.1066,
44.428660,-0.7743,0.8283,-0.8434,0.6362,-0.1544,0.0250,
44.476012,-0.7743,0.8283,-0.8434,0.6362,-0.1544,0.0250,
44.490644,0.4868,-1.1062,-0.9142,0.6362,-0.1544,0.0250,
44.495224,0.4868,-1.1062,-0.9142,0.4517,-0.5108,0.0257,
44.539261,0.4868,-1.1062,-0.9142,0.4517,-0.5108,0.0257,
44.555244,1.3654,-0.9437,-0.6812,0.4517,-0.5108,0.0257,
44.559569,1.3654,-0.9437,-0.6812,0.6497,-0.1854,-0.3233,
44.604778,1.3654,-0.9437,-0.6812,0.6497,-0.1854,-0.3233,
44.622167,0.5445,-0.4089,-0.2150,0.6497,-0.1854,-0.3233,
44.625408,0.5445,-0.4089,-0.2150,0.5089,-0.1332,-0.2961,
44.671796,0.5445,-0.4089,-0.2150,0.5089,-0.1332,-0.2961,
44.688920,0.7597,0.0676,0.4768,0.5089,-0.1332,-0.2961,
44.691053,0.7597,0.0676,0.4768,0.3404,-0.5592,-0.2792,
44.735241,0.7597,0.0676,0.4768,0.3404,-0.5592,-0.2792,
44.753036,2.3928,0.3295,0.2575,0.3404,-0.5592,-0.2792,
44.756250,2.3928,0.3295,0.2575,0.1915,-0.7588,-0.1271,
44.802273,2.3928,0.3295,0.2575,0.1915,-0.7588,-0.1271,
44.818871,1.8879,2.4683,-0.2443,0.1915,-0.7588,-0.1271,
44.820839,1.8879,2.4683,-0.2443,0.1034,-0.0377,0.3015,
44.866864,1.8879,2.4683,-0.2443,0.1034,-0.0377,0.3015,
44.884110,-0.9166,-0.0761,-1.1507,0.1034,-0.0377,0.3015,
44.888627,-0.9166,-0.0761,-1.1507,-0.6550,0.0525,0.4862,
44.933181,-0.9166,-0.0761,-1.1507,-0.6550,0.0525,0.4862,
44.949178,-0.5155,0.7768,0.0037,-0.6550,0.0525,0.4862,
44.951586,-0.5155,0.7768,0.0037,-0.7569,0.5250,0.4336,
44.998265,-0.5155,0.7768,0.0037,-0.7569,0.5250,0.4336,
45.015122,0.3656,0.5095,-1.0144,-0.7569,0.5250,0.4336,
45.017607,0.3656,0.5095,-1.0144,-0.7694,1.2216,0.2682,
45.064520,0.3656,0.5095,-1.0144,-0.7694,1.2216,0.2682,
45.080162,-0.6705,-1.2962,-0.7897,-0.7694,1.2216,0.2682,
45.083314,-0.6705,-1.2962,-0.7897,-0.5191,1.6379,0.3010,
45.129895,-0.6705,-1.2962,-0.7897,-0.5191,1.6379,0.3010,
45.145179,-1.1084,-0.7910,0.0936,-0.5191,1.6379,0.3010,
45.147765,-1.1084,-0.7910,0.0936,-0.2996,1.3741,0.1593,
45.193827,-1.1084,-0.7910,0.0936,-0.2996,1.3741,0.1593,
45.211039,-0.6642,-1.5710,0.2067,-0.2996,1.3741,0.1593,
45.214729,-0.6642,-1.5710,0.2067,0.1591,0.6570,0.2347,
45.260993,-0.6642,-1.5710,0.2067,0.1591,0.6570,0.2347,
45.277216,0.5356,-0.8780,0.8459,0.1591,0.6570,0.2347,
45.280653,0.5356,-0.8780,0.8459,0.3271,0.6272,-0.0072,
45.325011,0.5356,-0.8780,0.8459,0.3271,0.6272,-0.0072,
45.341062,0.4367,1.2179,2.3059,0.3271,0.6272,-0.0072,
45.343760,0.4367,1.2179,2.3059,-0.2135,0.5652,0.1489,
45.390956,0.4367,1.2179,2.3059,-0.2135,0.5652,0.1489,
45.408638,0.6963,3.9599,0.4820,-0.2135,0.5652,0.1489,
45.410505,0.6963,3.9599,0.4820,-0.3207,0.1720,0.2385,
45.455854,0.6963,3.9599,0.4820,-0.3207,0.1720,0.2385,
45.472255,-1.2758,-0.1318,-0.8570,-0.3207,0.1720,0.2385,
45.475476,-1.2758,-0.1318,-0.8570,-0.0289,0.3152,-0.1593,
45.522415,-1.2758,-0.1318,-0.8570,-0.0289,0.3152,-0.1593,
45.538513,-0.5712,-1.5439,-2.8925,-0.0289,0.3152,-0.1593,
45.541719,-0.5712,-1.5439,-2.8925,0.5180,0.4056,-0.1515,
45.588119,-0.5712,-1.5439,-2.8925,0.5180,0.4056,-0.1515,
45.603893,-0.6913,0.2774,-0.8412,0.5180,0.4056,-0.1515,
45.607913,-0.6913,0.2774,-0.8412,0.6614,0.0209,-0.0458,
45.651845,-0.6913,0.2774,-0.8412,0.6614,0.0209,-0.0458,
45.669402,-0.0887,-0.5207,-1.0633,0.6614,0.0209,-0.0458,
45.672073,-0.0887,-0.5207,-1.0633,0.4432,-0.4655,0.0002,
45.718072,-0.0887,-0.5207,-1.0633,0.4432,-0.4655,0.0002,
45.734162,1.2247,-1.0956,-0.6246,0.4432,-0.4655,0.0002,
45.737598,1.2247,-1.0956,-0.6246,0.5875,-0.4053,-0.2453,
45.783500,1.2247,-1.0956,-0.6246,0.5875,-0.4053,-0.2453,
45.799855,1.3835,-0.5449,0.0501,0.5875,-0.4053,-0.2453,
45.804490,1.3835,-0.5449,0.0501,0.4884,-0.1449,-0.3134,
45.849292,1.3835,-0.5449,0.0501,0.4884,-0.1449,-0.3134,
45.867043,1.5150,-0.1228,0.5651,0.4884,-0.1449,-0.3134,
45.870062,1.5150,-0.1228,0.5651,0.3722,-0.1474,-0.3516,
45.915981,1.5150,-0.1228,0.5651,0.3722,-0.1474,-0.3516,
45.932013,2.0494,0.1675,0.2695,0.3722,-0.1474,-0.3516,
45.934197,2.0494,0.1675,0.2695,0.2859,-0.2610,-0.2524,
45.979807,2.0494,0.1675,0.2695,0.2859,-0.2610,-0.2524,
45.997240,1.2003,2.5684,0.0212,0.2859,-0.2610,-0.2524,
45.999158,1.2003,2.5684,0.0212,0.1220,0.0247,0.1446,
46.046826,1.2003,2.5684,0.0212,0.1220,0.0247,0.1446,
46.062400,-0.8221,1.2847,-1.3469,0.1220,0.0247,0.1446,
46.065617,-0.8221,1.2847,-1.3469,-0.5186,-0.0252,0.5579,
46.112073,-0.8221,1.2847,-1.3469,-0.5186,-0.0252,0.5579,
46.128462,-0.9861,-0.1739,-0.1466,-0.5186,-0.0252,0.5579,
46.131336,-0.9861,-0.1739,-0.1466,-0.7372,0.3009,0.5463,
46.176403,-0.9861,-0.1739,-0.1466,-0.7372,0.3009,0.5463,
46.192133,0.3898,0.7062,-0.8957,-0.7372,0.3009,0.5463,
46.195172,0.3898,0.7062,-0.8957,-0.7694,1.0302,0.2989,
46.243021,0.3898,0.7062,-0.8957,-0.7694,1.0302,0.2989,
46.259359,-0.5615,-1.3264,-1.0494,-0.7694,1.0302,0.2989,
46.262206,-0.5615,-1.3264,-1.0494,-0.5765,1.5957,0.3593,
46.307194,-0.5615,-1.3264,-1.0494,-0.5765,1.5957,0.3593,
46.324949,-1.4566,-0.7932,0.1016,-0.5765,1.5957,0.3593,
46.327410,-1.4566,-0.7932,0.1016,-0.3396,1.3630,0.2036,
46.371839,-1.4566,-0.7932,0.1016,-0.3396,1.3630,0.2036,
46.390885,-0.6615,-1.2859,0.2614,-0.3396,1.3630,0.2036,
46.393729,-0.6615,-1.2859,0.2614,0.0205,0.8005,0.2311,
46.439581,-0.6615,-1.2859,0.2614,0.0205,0.8005,0.2311,
46.455944,0.3637,-1.0230,0.9513,0.0205,0.8005,0.2311,
46.458253,0.3637,-1.0230,0.9513,0.2611,0.6122,0.0644,
46.503855,0.3637,-1.0230,0.9513,0.2611,0.6122,0.0644,
46.521435,0.1016,0.7459,1.9167,0.2611,0.6122,0.0644,
46.523009,0.1016,0.7459,1.9167,-0.0797,0.6840,0.0979,
46.569516,0.1016,0.7459,1.9167,-0.0797,0.6840,0.0979,
46.586375,-0.2990,3.9677,0.8459,-0.0797,0.6840,0.0979,
46.589584,-0.2990,3.9677,0.8459,-0.6429,0.1110,0.2967,
46.634487,-0.2990,3.9677,0.8459,-0.6429,0.1110,0.2967,
46.652118,-1.4193,0.0210,-1.0656,-0.6429,0.1110,0.2967,
46.656099,-1.4193,0.0210,-1.0656,-0.0278,0.1220,-0.2033,
46.700490,-1.4193,0.0210,-1.0656,-0.0278,0.1220,-0.2033,
46.717299,-0.5469,-1.5343,-2.1964,-0.0278,0.1220,-0.2033,
46.720104,-0.5469,-1.5343,-2.1964,0.4950,0.3044,-0.0816,
46.766047,-0.5469,-1.5343,-2.1964,0.4950,0.3044,-0.0816,
46.781319,-0.5422,0.0611,-1.7043,0.4950,0.3044,-0.0816,
46.784443,-0.5422,0.0611,-1.7043,0.6518,0.0014,-0.0864,
46.830961,-0.5422,0.0611,-1.7043,0.6518,0.0014,-0.0864,
46.847651,-0.5317,-0.3569,-0.7047,0.6518,0.0014,-0.0864,
46.850086,-0.5317,-0.3569,-0.7047,0.4850,-0.4904,0.0492,
46.896000,-0.5317,-0.3569,-0.7047,0.4850,-0.4904,0.0492,
46.913751,0.7701,-1.2795,-0.6486,0.4850,-0.4904,0.0492,
46.915864,0.7701,-1.2795,-0.6486,0.5695,-0.5912,-0.1382,
46.961942,0.7701,-1.2795,-0.6486,0.5695,-0.5912,-0.1382,
46.979731,1.3508,-0.7098,-0.0080,0.5695,-0.5912,-0.1382,
46.982030,1.3508,-0.7098,-0.0080,0.5331,-0.3125,-0.2998,
47.027263,1.3508,-0.7098,-0.0080,0.5331,-0.3125,-0.2998,
47.044506,1.3472,0.0711,0.5078,0.5331,-0.3125,-0.2998,
47.047893,1.3472,0.0711,0.5078,0.4029,-0.2075,-0.3870,
47.093097,1.3472,0.0711,0.5078,0.4029,-0.2075,-0.3870,
