
time,ax,ay,az,wx,wy,wz,
0.024908,0.0000,0.0000,0.0000,-0.0254,-0.0965,-0.0643,
0.025167,0.0000,0.0000,0.0000,-0.0254,-0.0965,-0.0643,
0.034107,0.0000,0.0000,0.0000,-0.0385,-0.2757,-0.0516,
0.080450,0.0000,0.0000,0.0000,-0.0385,-0.2757,-0.0516,
0.099657,0.0000,0.0000,0.0000,-0.0086,-0.2885,-0.0681,
0.145276,0.0000,0.0000,0.0000,-0.0086,-0.2885,-0.0681,
0.165452,0.0000,0.0000,0.0000,-0.0102,-0.2995,-0.0124,
0.210681,0.0000,0.0000,0.0000,-0.0102,-0.2995,-0.0124,
0.230812,0.0000,0.0000,0.0000,0.0672,-0.2349,-0.0052,
0.276845,0.0000,0.0000,0.0000,0.0672,-0.2349,-0.0052,
0.297096,0.0000,0.0000,0.0000,-0.0852,-0.1883,0.1103,
0.362216,0.0000,0.0000,0.0000,0.4650,0.2866,-0.2443,
0.375842,0.0000,0.0000,0.0000,0.4650,0.2866,-0.2443,
0.391113,0.0000,0.0000,0.0000,0.4650,0.2866,-0.2443,
0.427758,0.0000,0.0000,0.0000,1.0434,0.8033,-0.2686,
0.456268,0.0000,0.0000,0.0000,1.0434,0.8033,-0.2686,
0.456921,-0.4669,1.4564,-0.8173,1.0434,0.8033,-0.2686,
0.493376,-0.4669,1.4564,-0.8173,0.6008,0.9603,-0.7631,
0.522652,-0.4669,1.4564,-0.8173,0.6008,0.9603,-0.7631,
0.523147,-1.3308,-0.4016,-0.6564,0.6008,0.9603,-0.7631,
0.558218,-1.3308,-0.4016,-0.6564,-0.5615,-0.2407,-0.6380,
0.587480,-1.3308,-0.4016,-0.6564,-0.5615,-0.2407,-0.6380,
0.588674,-0.9388,0.4350,1.2945,-0.5615,-0.2407,-0.6380,
0.625408,-0.9388,0.4350,1.2945,-0.4794,-0.5964,0.0221,
0.652826,-0.9388,0.4350,1.2945,-0.4794,-0.5964,0.0221,
0.653586,0.5916,-0.4230,0.7751,-0.4794,-0.5964,0.0221,
0.689666,0.5916,-0.4230,0.7751,0.2062,-0.0032,-0.2981,
0.718736,0.5916,-0.4230,0.7751,0.2062,-0.0032,-0.2981,
0.719562,-0.2945,-1.3388,0.0965,0.2062,-0.0032,-0.2981,
0.754764,-0.2945,-1.3388,0.0965,-0.1907,0.2492,-0.0597,
0.784389,-0.2945,-1.3388,0.0965,-0.1907,0.2492,-0.0597,
0.785461,-0.9318,-0.3109,-1.0136,-0.1907,0.2492,-0.0597,
0.819947,-0.9318,-0.3109,-1.0136,-1.6579,0.2866,0.0122,
0.849148,-0.9318,-0.3109,-1.0136,-1.6579,0.2866,0.0122,
0.850842,-2.7655,0.4394,4.3300,-1.6579,0.2866,0.0122,
0.886619,-2.7655,0.4394,4.3300,-0.4177,0.1868,-0.0440,
0.914882,-2.7655,0.4394,4.3300,-0.4177,0.1868,-0.0440,
0.916051,-1.6826,1.8289,-1.8657,-0.4177,0.1868,-0.0440,
0.952244,-1.6826,1.8289,-1.8657,0.3448,-0.2972,0.7909,
0.981012,-1.6826,1.8289,-1.8657,0.3448,-0.2972,0.7909,
0.982465,2.1961,-1.2040,-1.2585,0.3448,-0.2972,0.7909,
1.017041,2.1961,-1.2040,-1.2585,0.8717,-0.1342,0.4581,
1.045628,2.1961,-1.2040,-1.2585,0.8717,-0.1342,0.4581,
1.046027,1.0077,-0.1710,-2.2800,0.8717,-0.1342,0.4581,
1.081901,1.0077,-0.1710,-2.2800,0.7914,0.2732,0.6240,
1.110466,1.0077,-0.1710,-2.2800,0.7914,0.2732,0.6240,
1.110824,0.1840,-0.4746,-1.4759,0.7914,0.2732,0.6240,
1.147142,0.1840,-0.4746,-1.4759,0.3922,-0.0785,0.3745,
1.176057,0.1840,-0.4746,-1.4759,0.3922,-0.0785,0.3745,
1.176489,0.0453,-0.1036,-0.7720,0.3922,-0.0785,0.3745,
1.213148,0.0453,-0.1036,-0.7720,0.3590,-0.1707,0.2457,
1.241442,0.0453,-0.1036,-0.7720,0.3590,-0.1707,0.2457,
1.241855,0.1800,-0.2919,-0.8604,0.3590,-0.1707,0.2457,
1.277961,0.1800,-0.2919,-0.8604,0.3071,-0.2598,-0.0593,
1.306913,0.1800,-0.2919,-0.8604,0.3071,-0.2598,-0.0593,
1.307329,0.6453,-0.2543,-0.7643,0.3071,-0.2598,-0.0593,
1.343289,0.6453,-0.2543,-0.7643,0.2816,-0.3580,-0.2975,
1.372569,0.6453,-0.2543,-0.7643,0.2816,-0.3580,-0.2975,
1.373065,1.7897,0.0386,-0.2582,0.2816,-0.3580,-0.2975,
1.408755,1.7897,0.0386,-0.2582,0.3341,-0.1381,-0.1933,
1.437725,1.7897,0.0386,-0.2582,0.3341,-0.1381,-0.1933,
1.438093,1.1487,0.8252,0.8216,0.3341,-0.1381,-0.1933,
1.474459,1.1487,0.8252,0.8216,0.2408,-0.3346,0.2427,
1.503877,1.1487,0.8252,0.8216,0.2408,-0.3346,0.2427,
1.504336,0.8490,3.1750,-2.0002,0.2408,-0.3346,0.2427,
1.540374,0.8490,3.1750,-2.0002,-0.3016,-0.2564,0.4230,
1.569483,0.8490,3.1750,-2.0002,-0.3016,-0.2564,0.4230,
1.570822,-2.9779,-1.1458,-2.9809,-0.3016,-0.2564,0.4230,
1.606487,-2.9779,-1.1458,-2.9809,-0.8482,-0.2673,0.0037,
1.635417,-2.9779,-1.1458,-2.9809,-0.8482,-0.2673,0.0037,
1.636142,-0.2543,1.3452,-1.0798,-0.8482,-0.2673,0.0037,
1.671702,-0.2543,1.3452,-1.0798,-0.8021,0.6361,-0.2607,
1.700245,-0.2543,1.3452,-1.0798,-0.8021,0.6361,-0.2607,
1.701338,-0.5960,-0.3172,-1.0199,-0.8021,0.6361,-0.2607,
1.737294,-0.5960,-0.3172,-1.0199,-0.7613,0.7017,-0.1830,
1.765813,-0.5960,-0.3172,-1.0199,-0.7613,0.7017,-0.1830,
1.767839,-1.5439,-1.7469,-0.6796,-0.7613,0.7017,-0.1830,
1.801881,-1.5439,-1.7469,-0.6796,-0.4256,0.7379,-0.1649,
1.831927,-1.5439,-1.7469,-0.6796,-0.4256,0.7379,-0.1649,
1.832963,-0.5115,-0.9749,-0.4189,-0.4256,0.7379,-0.1649,
1.869614,-0.5115,-0.9749,-0.4189,-0.3088,0.5680,0.0220,
1.896959,-0.5115,-0.9749,-0.4189,-0.3088,0.5680,0.0220,
1.898078,-0.5446,-1.7156,-0.4186,-0.3088,0.5680,0.0220,
1.933461,-0.5446,-1.7156,-0.4186,0.0612,0.4244,0.1176,
1.962807,-0.5446,-1.7156,-0.4186,0.0612,0.4244,0.1176,
1.964096,-1.0655,-0.4283,0.8041,0.0612,0.4244,0.1176,
1.998849,-1.0655,-0.4283,0.8041,0.0052,0.4998,0.1034,
2.028491,-1.0655,-0.4283,0.8041,0.0052,0.4998,0.1034,
2.029573,-0.3225,1.1806,1.9638,0.0052,0.4998,0.1034,
2.064780,-0.3225,1.1806,1.9638,-0.2201,0.6700,0.0997,
2.093043,-0.3225,1.1806,1.9638,-0.2201,0.6700,0.0997,
2.094753,-1.3739,2.1582,0.4837,-0.2201,0.6700,0.0997,
2.129854,-1.3739,2.1582,0.4837,-0.1242,-0.4446,-0.6625,
2.159396,-1.3739,2.1582,0.4837,-0.1242,-0.4446,-0.6625,
2.161421,-2.9681,0.0571,-2.8298,-0.1242,-0.4446,-0.6625,
2.196037,-2.9681,0.0571,-2.8298,0.4499,0.5770,0.3848,
2.224669,-2.9681,0.0571,-2.8298,0.4499,0.5770,0.3848,
2.227327,2.7649,-0.5957,-4.1812,0.4499,0.5770,0.3848,
2.260926,2.7649,-0.5957,-4.1812,0.6712,-0.3462,-0.0038,
2.289125,2.7649,-0.5957,-4.1812,0.6712,-0.3462,-0.0038,
2.290801,-2.9993,-2.1131,-1.1911,0.6712,-0.3462,-0.0038,
2.327563,-2.9993,-2.1131,-1.1911,1.2427,-0.8754,0.2376,
2.354611,-2.9993,-2.1131,-1.1911,1.2427,-0.8754,0.2376,
2.355370,0.2689,-0.6579,-3.6507,1.2427,-0.8754,0.2376,
2.391469,0.2689,-0.6579,-3.6507,0.4542,-1.0540,0.2404,
2.420550,0.2689,-0.6579,-3.6507,0.4542,-1.0540,0.2404,
2.421370,1.5689,0.2821,-1.1554,0.4542,-1.0540,0.2404,
2.457415,1.5689,0.2821,-1.1554,0.4910,-0.7162,0.0976,
2.486501,1.5689,0.2821,-1.1554,0.4910,-0.7162,0.0976,
2.487366,0.6590,-0.4716,-0.6205,0.4910,-0.7162,0.0976,
2.522368,0.6590,-0.4716,-0.6205,0.4191,-0.6567,-0.2405,
2.551657,0.6590,-0.4716,-0.6205,0.4191,-0.6567,-0.2405,
2.552394,0.4397,-0.3790,-0.5022,0.4191,-0.6567,-0.2405,
2.588998,0.4397,-0.3790,-0.5022,0.3439,-0.6804,-0.2615,
2.617181,0.4397,-0.3790,-0.5022,0.3439,-0.6804,-0.2615,
2.618449,1.7249,0.1927,-0.4751,0.3439,-0.6804,-0.2615,
2.654328,1.7249,0.1927,-0.4751,0.1596,-0.2979,0.0980,
2.682994,1.7249,0.1927,-0.4751,0.1596,-0.2979,0.0980,
2.684175,3.0957,2.3013,-1.6310,0.1596,-0.2979,0.0980,
2.720285,3.0957,2.3013,-1.6310,-0.0105,0.4322,0.6729,
2.747998,3.0957,2.3013,-1.6310,-0.0105,0.4322,0.6729,
2.749265,-3.6616,1.6748,-3.1398,-0.0105,0.4322,0.6729,
2.785166,-3.6616,1.6748,-3.1398,-1.6415,-0.3772,0.1002,
2.813661,-3.6616,1.6748,-3.1398,-1.6415,-0.3772,0.1002,
2.814569,-1.9856,1.3827,-1.1581,-1.6415,-0.3772,0.1002,
2.850031,-1.9856,1.3827,-1.1581,-1.0892,0.4754,-0.1199,
2.878952,-1.9856,1.3827,-1.1581,-1.0892,0.4754,-0.1199,
2.880015,-0.1418,0.2722,-0.7990,-1.0892,0.4754,-0.1199,
2.915509,-0.1418,0.2722,-0.7990,-1.0889,0.5611,-0.3009,
2.944942,-0.1418,0.2722,-0.7990,-1.0889,0.5611,-0.3009,
2.947095,-1.6851,-2.1075,-1.0892,-1.0889,0.5611,-0.3009,
2.980876,-1.6851,-2.1075,-1.0892,-0.6116,0.4514,-0.2292,
3.009848,-1.6851,-2.1075,-1.0892,-0.6116,0.4514,-0.2292,
3.010660,-1.5450,-2.0145,-0.9162,-0.6116,0.4514,-0.2292,
3.046487,-1.5450,-2.0145,-0.9162,-0.0406,0.2450,-0.0480,
3.076498,-1.5450,-2.0145,-0.9162,-0.0406,0.2450,-0.0480,
3.077570,-1.0998,-1.9049,-0.6718,-0.0406,0.2450,-0.0480,
3.111499,-1.0998,-1.9049,-0.6718,0.2987,0.4300,0.0594,
3.141393,-1.0998,-1.9049,-0.6718,0.2987,0.4300,0.0594,
3.142704,-0.6042,-0.2106,0.8857,0.2987,0.4300,0.0594,
3.178754,-0.6042,-0.2106,0.8857,0.2311,-0.0646,0.4088,
3.206522,-0.6042,-0.2106,0.8857,0.2311,-0.0646,0.4088,
3.207735,-1.1892,0.8099,2.0221,0.2311,-0.0646,0.4088,
3.242882,-1.1892,0.8099,2.0221,-0.1713,-0.1909,0.2801,
3.271986,-1.1892,0.8099,2.0221,-0.1713,-0.1909,0.2801,
3.273091,0.0777,0.4248,0.3673,-0.1713,-0.1909,0.2801,
3.308701,0.0777,0.4248,0.3673,-0.4537,-0.0655,-0.3419,
3.337415,0.0777,0.4248,0.3673,-0.4537,-0.0655,-0.3419,
3.339077,-3.1454,0.5483,-3.1756,-0.4537,-0.0655,-0.3419,
3.374807,-3.1454,0.5483,-3.1756,0.6784,1.1312,0.0386,
3.402969,-3.1454,0.5483,-3.1756,0.6784,1.1312,0.0386,
3.404493,1.0221,0.1834,-4.4494,0.6784,1.1312,0.0386,
3.439913,1.0221,0.1834,-4.4494,0.4366,-0.2650,-0.3636,
3.468932,1.0221,0.1834,-4.4494,0.4366,-0.2650,-0.3636,
3.470477,-4.4553,-0.8836,-0.6146,0.4366,-0.2650,-0.3636,
3.505593,-4.4553,-0.8836,-0.6146,0.8074,-1.4493,0.7439,
3.533748,-4.4553,-0.8836,-0.6146,0.8074,-1.4493,0.7439,
3.534973,0.4780,-1.7786,-3.3327,0.8074,-1.4493,0.7439,
3.571001,0.4780,-1.7786,-3.3327,0.4166,-1.4261,0.2404,
3.599166,0.4780,-1.7786,-3.3327,0.4166,-1.4261,0.2404,
3.600340,0.1120,-0.0251,-1.0253,0.4166,-1.4261,0.2404,
3.637244,0.1120,-0.0251,-1.0253,0.4461,-1.1190,0.0557,
3.664999,0.1120,-0.0251,-1.0253,0.4461,-1.1190,0.0557,
3.666101,0.6577,-0.6205,-0.3473,0.4461,-1.1190,0.0557,
3.701840,0.6577,-0.6205,-0.3473,0.4282,-0.8514,-0.2492,
3.730340,0.6577,-0.6205,-0.3473,0.4282,-0.8514,-0.2492,
3.731879,0.3252,0.4766,-0.0518,0.4282,-0.8514,-0.2492,
3.768280,0.3252,0.4766,-0.0518,0.2697,-0.6913,-0.2188,
3.796472,0.3252,0.4766,-0.0518,0.2697,-0.6913,-0.2188,
3.797586,2.3321,0.1990,-0.9404,0.2697,-0.6913,-0.2188,
3.833173,2.3321,0.1990,-0.9404,-0.1190,-0.5970,0.2419,
3.863555,2.3321,0.1990,-0.9404,-0.1190,-0.5970,0.2419,
3.864554,-0.9886,0.7464,0.4611,-0.1190,-0.5970,0.2419,
3.898567,-0.9886,0.7464,0.4611,0.1246,-0.3473,1.0182,
3.927608,-0.9886,0.7464,0.4611,0.1246,-0.3473,1.0182,
3.928946,-1.9305,2.5912,-2.8046,0.1246,-0.3473,1.0182,
3.964867,-1.9305,2.5912,-2.8046,-1.2649,-1.7604,0.2123,
3.992615,-1.9305,2.5912,-2.8046,-1.2649,-1.7604,0.2123,
3.994535,-7.0867,-0.5349,1.5524,-1.2649,-1.7604,0.2123,
4.029441,-7.0867,-0.5349,1.5524,-0.6660,-1.8036,-0.1727,
4.058563,-7.0867,-0.5349,1.5524,-0.6660,-1.8036,-0.1727,
4.060151,0.9309,-0.4348,-1.2079,-0.6660,-1.8036,-0.1727,
4.094853,0.9309,-0.4348,-1.2079,-1.0362,-0.5084,-0.2955,
4.124647,0.9309,-0.4348,-1.2079,-1.0362,-0.5084,-0.2955,
4.126599,-1.8260,-0.9242,-0.0649,-1.0362,-0.5084,-0.2955,
4.160640,-1.8260,-0.9242,-0.0649,-0.3624,-0.6271,-0.2712,
4.190639,-1.8260,-0.9242,-0.0649,-0.3624,-0.6271,-0.2712,
4.192050,-3.0099,-0.5783,1.4583,-0.3624,-0.6271,-0.2712,
4.225797,-3.0099,-0.5783,1.4583,-0.4943,-0.8829,-0.0515,
4.255042,-3.0099,-0.5783,1.4583,-0.4943,-0.8829,-0.0515,
4.256338,0.6727,-2.1461,0.2625,-0.4943,-0.8829,-0.0515,
4.291477,0.6727,-2.1461,0.2625,0.4808,0.0435,-0.1764,
4.320264,0.6727,-2.1461,0.2625,0.4808,0.0435,-0.1764,
4.321810,-1.2211,-1.0924,1.6124,0.4808,0.0435,-0.1764,
4.356118,-1.2211,-1.0924,1.6124,0.2480,0.2350,-0.1865,
4.386883,-1.2211,-1.0924,1.6124,0.2480,0.2350,-0.1865,
4.388510,-2.0702,1.0461,2.7003,0.2480,0.2350,-0.1865,
4.421963,-2.0702,1.0461,2.7003,0.2735,-0.1458,-0.1147,
4.451447,-2.0702,1.0461,2.7003,0.2735,-0.1458,-0.1147,
4.453330,-1.7719,2.1189,2.4506,0.2735,-0.1458,-0.1147,
4.487929,-1.7719,2.1189,2.4506,-0.6154,-0.8004,-0.3178,
4.515797,-1.7719,2.1189,2.4506,-0.6154,-0.8004,-0.3178,
4.517115,-5.3350,0.3670,-2.5744,-0.6154,-0.8004,-0.3178,
4.553263,-5.3350,0.3670,-2.5744,0.5704,-0.0686,-0.0299,
4.581573,-5.3350,0.3670,-2.5744,0.5704,-0.0686,-0.0299,
4.583274,-0.7258,-3.1022,-2.8057,0.5704,-0.0686,-0.0299,
4.618113,-0.7258,-3.1022,-2.8057,0.7026,-0.7483,-0.3684,
4.647119,-0.7258,-3.1022,-2.8057,0.7026,-0.7483,-0.3684,
4.648679,-3.6787,0.5771,-0.4072,0.7026,-0.7483,-0.3684,
4.685108,-3.6787,0.5771,-0.4072,0.8471,-2.1958,0.4615,
4.714072,-3.6787,0.5771,-0.4072,0.8471,-2.1958,0.4615,
4.715339,-1.8491,-0.1459,-1.7752,0.8471,-2.1958,0.4615,
4.750410,-1.8491,-0.1459,-1.7752,0.4693,-1.9945,0.4481,
4.781316,-1.8491,-0.1459,-1.7752,0.4693,-1.9945,0.4481,
4.783744,-0.3510,0.1641,-0.2326,0.4693,-1.9945,0.4481,
4.815270,-0.3510,0.1641,-0.2326,0.3007,-1.9233,0.2679,
4.844408,-0.3510,0.1641,-0.2326,0.3007,-1.9233,0.2679,
4.846735,-0.4393,-0.6825,0.4905,0.3007,-1.9233,0.2679,
4.881194,-0.4393,-0.6825,0.4905,0.2842,-1.7165,-0.0492,
4.909515,-0.4393,-0.6825,0.4905,0.2842,-1.7165,-0.0492,
4.911659,0.6407,0.0946,0.8560,0.2842,-1.7165,-0.0492,
4.945837,0.6407,0.0946,0.8560,0.2436,-1.1037,-0.3028,
4.975051,0.6407,0.0946,0.8560,0.2436,-1.1037,-0.3028,
4.976795,2.0401,0.5978,1.1476,0.2436,-1.1037,-0.3028,
5.012794,2.0401,0.5978,1.1476,0.2717,-0.2225,-0.1878,
5.040414,2.0401,0.5978,1.1476,0.2717,-0.2225,-0.1878,
5.042675,1.8828,1.0527,1.8391,0.2717,-0.2225,-0.1878,
5.077588,1.8828,1.0527,1.8391,0.0429,-0.2216,0.1313,
5.105606,1.8828,1.0527,1.8391,0.0429,-0.2216,0.1313,
5.107641,-1.4351,1.5318,0.8105,0.0429,-0.2216,0.1313,
5.142725,-1.4351,1.5318,0.8105,-0.0901,-0.3038,0.5971,
5.171865,-1.4351,1.5318,0.8105,-0.0901,-0.3038,0.5971,
5.173509,-3.7853,-0.0896,-1.8798,-0.0901,-0.3038,0.5971,
5.207896,-3.7853,-0.0896,-1.8798,-1.4801,-1.4097,0.3839,
5.236692,-3.7853,-0.0896,-1.8798,-1.4801,-1.4097,0.3839,
5.238975,-2.6618,1.4743,1.0951,-1.4801,-1.4097,0.3839,
5.273138,-2.6618,1.4743,1.0951,-0.8770,0.1292,-0.1547,
5.303015,-2.6618,1.4743,1.0951,-0.8770,0.1292,-0.1547,
5.304600,0.7719,-0.1117,0.7054,-0.8770,0.1292,-0.1547,
5.338627,0.7719,-0.1117,0.7054,-1.1707,0.6755,-0.1504,
5.367875,0.7719,-0.1117,0.7054,-1.1707,0.6755,-0.1504,
5.369553,-2.9376,-1.6801,0.9475,-1.1707,0.6755,-0.1504,
5.403690,-2.9376,-1.6801,0.9475,-0.5397,0.3346,-0.1666,
5.432802,-2.9376,-1.6801,0.9475,-0.5397,0.3346,-0.1666,
5.434422,-1.4998,-1.5750,1.0532,-0.5397,0.3346,-0.1666,
5.469327,-1.4998,-1.5750,1.0532,-0.2934,0.3280,-0.1268,
5.498693,-1.4998,-1.5750,1.0532,-0.2934,0.3280,-0.1268,
5.500487,-1.6444,-2.0154,1.1365,-0.2934,0.3280,-0.1268,
5.534981,-1.6444,-2.0154,1.1365,0.3742,0.2973,-0.2005,
5.564039,-1.6444,-2.0154,1.1365,0.3742,0.2973,-0.2005,
5.565701,-1.2439,0.0397,2.3239,0.3742,0.2973,-0.2005,
5.600935,-1.2439,0.0397,2.3239,0.1101,0.3207,-0.0254,
5.629291,-1.2439,0.0397,2.3239,0.1101,0.3207,-0.0254,
5.630346,-0.6554,1.2045,3.8184,0.1101,0.3207,-0.0254,
5.665926,-0.6554,1.2045,3.8184,-0.0898,0.7350,0.1581,
5.695694,-0.6554,1.2045,3.8184,-0.0898,0.7350,0.1581,
5.697113,-1.3477,4.0291,1.3402,-0.0898,0.7350,0.1581,
5.732251,-1.3477,4.0291,1.3402,-0.1923,-0.5794,-0.5990,
5.760757,-1.3477,4.0291,1.3402,-0.1923,-0.5794,-0.5990,
5.762814,-2.0907,-1.8027,-2.6858,-0.1923,-0.5794,-0.5990,
5.796715,-2.0907,-1.8027,-2.6858,0.6271,1.5675,0.1431,
5.825931,-2.0907,-1.8027,-2.6858,0.6271,1.5675,0.1431,
5.827879,1.6877,-1.7174,-3.4540,0.6271,1.5675,0.1431,
5.862868,1.6877,-1.7174,-3.4540,0.7876,0.2753,0.0670,
5.892282,1.6877,-1.7174,-3.4540,0.7876,0.2753,0.0670,
5.893951,-4.3588,-0.3531,-0.0568,0.7876,0.2753,0.0670,
5.929692,-4.3588,-0.3531,-0.0568,0.5976,-1.2541,0.4591,
5.956827,-4.3588,-0.3531,-0.0568,0.5976,-1.2541,0.4591,
5.958409,0.9387,-0.2739,0.0144,0.5976,-1.2541,0.4591,
5.994723,0.9387,-0.2739,0.0144,0.2801,-0.9542,0.3789,
6.023796,0.9387,-0.2739,0.0144,0.2801,-0.9542,0.3789,
6.025677,0.3070,-0.7430,0.7073,0.2801,-0.9542,0.3789,
6.059741,0.3070,-0.7430,0.7073,0.5024,-0.7682,0.0644,
6.088990,0.3070,-0.7430,0.7073,0.5024,-0.7682,0.0644,
6.091008,0.1421,-0.9219,0.7362,0.5024,-0.7682,0.0644,
6.125443,0.1421,-0.9219,0.7362,0.4494,-0.6338,-0.3109,
6.153326,0.1421,-0.9219,0.7362,0.4494,-0.6338,-0.3109,
6.155069,0.3191,0.3051,1.0119,0.4494,-0.6338,-0.3109,
6.190338,0.3191,0.3051,1.0119,0.4397,-0.5179,-0.2944,
6.219405,0.3191,0.3051,1.0119,0.4397,-0.5179,-0.2944,
6.221198,2.1162,1.4376,1.1699,0.4397,-0.5179,-0.2944,
6.255227,2.1162,1.4376,1.1699,0.2036,-0.4119,0.1969,
6.285474,2.1162,1.4376,1.1699,0.2036,-0.4119,0.1969,
6.287177,0.9975,2.6667,0.8859,0.2036,-0.4119,0.1969,
6.321861,0.9975,2.6667,0.8859,-0.0490,0.3534,0.6122,
6.349278,0.9975,2.6667,0.8859,-0.0490,0.3534,0.6122,
6.349912,-0.7550,0.8698,-1.5384,-0.0490,0.3534,0.6122,
6.387587,-0.7550,0.8698,-1.5384,-1.2156,-0.5565,-0.0063,
6.415159,-0.7550,0.8698,-1.5384,-1.2156,-0.5565,-0.0063,
6.416109,-4.5412,-0.8968,0.4256,-1.2156,-0.5565,-0.0063,
6.452195,-4.5412,-0.8968,0.4256,-0.7028,0.3580,0.0183,
6.481275,-4.5412,-0.8968,0.4256,-0.7028,0.3580,0.0183,
6.483178,1.1891,0.0208,0.0282,-0.7028,0.3580,0.0183,
6.516670,1.1891,0.0208,0.0282,-0.8848,1.0221,-0.1794,
6.545990,1.1891,0.0208,0.0282,-0.8848,1.0221,-0.1794,
6.547050,-1.7181,-0.7331,0.4650,-0.8848,1.0221,-0.1794,
6.582974,-1.7181,-0.7331,0.4650,-0.5678,0.9855,-0.1049,
6.611911,-1.7181,-0.7331,0.4650,-0.5678,0.9855,-0.1049,
6.613355,-1.8431,-1.6711,0.4408,-0.5678,0.9855,-0.1049,
6.649057,-1.8431,-1.6711,0.4408,-0.3354,0.7685,0.0525,
6.677578,-1.8431,-1.6711,0.4408,-0.3354,0.7685,0.0525,
6.678889,-1.4516,-2.0383,0.5043,-0.3354,0.7685,0.0525,
6.713272,-1.4516,-2.0383,0.5043,0.0625,0.7492,0.0247,
6.741620,-1.4516,-2.0383,0.5043,0.0625,0.7492,0.0247,
6.742881,-1.0709,-0.3061,1.3575,0.0625,0.7492,0.0247,
6.778447,-1.0709,-0.3061,1.3575,0.0643,0.5536,0.1373,
6.807371,-1.0709,-0.3061,1.3575,0.0643,0.5536,0.1373,
6.808294,-0.7197,0.9145,2.4683,0.0643,0.5536,0.1373,
6.844407,-0.7197,0.9145,2.4683,-0.0496,0.7109,-0.0301,
6.873845,-0.7197,0.9145,2.4683,-0.0496,0.7109,-0.0301,
6.874964,-0.9040,2.3666,1.8465,-0.0496,0.7109,-0.0301,
6.909688,-0.9040,2.3666,1.8465,-0.2129,-0.5545,-0.5728,
6.938610,-0.9040,2.3666,1.8465,-0.2129,-0.5545,-0.5728,
6.939889,-3.5063,-0.0983,-1.3972,-0.2129,-0.5545,-0.5728,
6.975294,-3.5063,-0.0983,-1.3972,0.2673,1.4253,-0.2552,
7.004647,-3.5063,-0.0983,-1.3972,0.2673,1.4253,-0.2552,
7.006230,2.1563,-3.0762,-3.1615,0.2673,1.4253,-0.2552,
7.041408,2.1563,-3.0762,-3.1615,0.9594,0.0020,-0.2219,
7.071113,2.1563,-3.0762,-3.1615,0.9594,0.0020,-0.2219,
7.073652,-4.3692,0.7965,0.5233,0.9594,0.0020,-0.2219,
7.107080,-4.3692,0.7965,0.5233,0.4921,-0.9704,0.5762,
7.136078,-4.3692,0.7965,0.5233,0.4921,-0.9704,0.5762,
7.138248,0.8438,-0.7255,-0.6344,0.4921,-0.9704,0.5762,
7.173040,0.8438,-0.7255,-0.6344,0.3374,-0.7827,0.5015,
7.201350,0.8438,-0.7255,-0.6344,0.3374,-0.7827,0.5015,
7.203467,-0.0354,-0.7658,0.5053,0.3374,-0.7827,0.5015,
7.237195,-0.0354,-0.7658,0.5053,0.5272,-0.7343,0.1501,
7.267639,-0.0354,-0.7658,0.5053,0.5272,-0.7343,0.1501,
7.269227,0.4492,-0.8191,0.6410,0.5272,-0.7343,0.1501,
7.303761,0.4492,-0.8191,0.6410,0.4076,-0.5315,-0.2700,
7.331586,0.4492,-0.8191,0.6410,0.4076,-0.5315,-0.2700,
7.332564,0.6660,0.2424,0.9104,0.4076,-0.5315,-0.2700,
7.370113,0.6660,0.2424,0.9104,0.3809,-0.4388,-0.3798,
7.397759,0.6660,0.2424,0.9104,0.3809,-0.4388,-0.3798,
7.399212,1.9555,1.2129,0.9790,0.3809,-0.4388,-0.3798,
7.433934,1.9555,1.2129,0.9790,0.1678,-0.4081,0.0973,
7.463764,1.9555,1.2129,0.9790,0.1678,-0.4081,0.0973,
7.464882,1.1786,3.1832,-0.1474,0.1678,-0.4081,0.0973,
7.499722,1.1786,3.1832,-0.1474,-0.0165,0.4426,0.7252,
7.528879,1.1786,3.1832,-0.1474,-0.0165,0.4426,0.7252,
7.530072,-2.6170,1.0989,-1.9390,-0.0165,0.4426,0.7252,
7.564566,-2.6170,1.0989,-1.9390,-1.1985,-0.2085,0.0735,
7.593915,-2.6170,1.0989,-1.9390,-1.1985,-0.2085,0.0735,
7.595657,-1.5819,0.3850,-0.5466,-1.1985,-0.2085,0.0735,
7.630520,-1.5819,0.3850,-0.5466,-0.9132,0.7732,-0.1361,
7.658863,-1.5819,0.3850,-0.5466,-0.9132,0.7732,-0.1361,
7.660660,0.4112,-1.7598,-0.7584,-0.9132,0.7732,-0.1361,
7.695683,0.4112,-1.7598,-0.7584,-0.6329,1.5640,-0.2405,
7.725146,0.4112,-1.7598,-0.7584,-0.6329,1.5640,-0.2405,
7.727058,-2.8290,-0.6863,-0.2748,-0.6329,1.5640,-0.2405,
7.761638,-2.8290,-0.6863,-0.2748,-0.4725,1.1385,-0.0861,
7.790563,-2.8290,-0.6863,-0.2748,-0.4725,1.1385,-0.0861,
7.792067,-1.9319,-0.9851,-0.1206,-0.4725,1.1385,-0.0861,
7.826911,-1.9319,-0.9851,-0.1206,-0.4021,0.6924,0.0817,
7.855839,-1.9319,-0.9851,-0.1206,-0.4021,0.6924,0.0817,
7.857373,-1.0506,-2.0382,-0.2577,-0.4021,0.6924,0.0817,
7.892252,-1.0506,-2.0382,-0.2577,0.1214,0.6089,0.0893,
7.921905,-1.0506,-2.0382,-0.2577,0.1214,0.6089,0.0893,
7.923749,-1.3785,-0.6227,0.7387,0.1214,0.6089,0.0893,
7.958949,-1.3785,-0.6227,0.7387,-0.0451,0.4725,0.1990,
7.987973,-1.3785,-0.6227,0.7387,-0.0451,0.4725,0.1990,
7.989608,-1.0960,1.1688,1.8895,-0.0451,0.4725,0.1990,
8.025066,-1.0960,1.1688,1.8895,-0.0339,0.6098,-0.0206,
8.054034,-1.0960,1.1688,1.8895,-0.0339,0.6098,-0.0206,
8.055702,0.5708,-0.2209,2.8544,-0.0339,0.6098,-0.0206,
8.088469,0.5708,-0.2209,2.8544,-0.2999,0.8644,0.1301,
8.117301,0.5708,-0.2209,2.8544,-0.2999,0.8644,0.1301,
8.119541,-2.7638,5.4971,-0.0159,-0.2999,0.8644,0.1301,
8.154514,-2.7638,5.4971,-0.0159,0.3496,0.2538,-0.5402,
8.182898,-2.7638,5.4971,-0.0159,0.3496,0.2538,-0.5402,
8.184346,0.0281,-3.5352,-3.5537,0.3496,0.2538,-0.5402,
8.220706,0.0281,-3.5352,-3.5537,0.8929,1.1733,-0.1135,
8.249037,0.0281,-3.5352,-3.5537,0.8929,1.1733,-0.1135,
8.250272,-3.5804,1.8254,-1.6283,0.8929,1.1733,-0.1135,
8.284377,-3.5804,1.8254,-1.6283,0.4606,-0.4977,0.6145,
8.313680,-3.5804,1.8254,-1.6283,0.4606,-0.4977,0.6145,
8.314746,-0.0892,-0.5055,-1.4592,0.4606,-0.4977,0.6145,
8.350429,-0.0892,-0.5055,-1.4592,0.5354,-0.4968,0.5797,
8.379300,-0.0892,-0.5055,-1.4592,0.5354,-0.4968,0.5797,
8.380679,0.0842,-0.9711,-0.3115,0.5354,-0.4968,0.5797,
8.415825,0.0842,-0.9711,-0.3115,0.2715,-0.5322,0.2303,
8.444582,0.0842,-0.9711,-0.3115,0.2715,-0.5322,0.2303,
8.446003,0.1116,-0.7991,0.0623,0.2715,-0.5322,0.2303,
8.482647,0.1116,-0.7991,0.0623,0.3322,-0.4172,-0.0441,
8.510410,0.1116,-0.7991,0.0623,0.3322,-0.4172,-0.0441,
8.512164,0.5249,-0.7578,0.4136,0.3322,-0.4172,-0.0441,
8.546641,0.5249,-0.7578,0.4136,0.4265,-0.1600,-0.2175,
8.575995,0.5249,-0.7578,0.4136,0.4265,-0.1600,-0.2175,
8.576969,0.7409,0.4661,0.3403,0.4265,-0.1600,-0.2175,
8.613098,0.7409,0.4661,0.3403,0.4116,-0.1394,-0.3024,
8.641017,0.7409,0.4661,0.3403,0.4116,-0.1394,-0.3024,
8.642637,1.3306,1.6020,1.2621,0.4116,-0.1394,-0.3024,
8.677834,1.3306,1.6020,1.2621,0.1715,-0.4782,0.1772,
8.708937,1.3306,1.6020,1.2621,0.1715,-0.4782,0.1772,
8.710893,1.7164,3.0262,-1.6856,0.1715,-0.4782,0.1772,
8.743499,1.7164,3.0262,-1.6856,-0.2489,0.4268,0.5855,
8.773066,1.7164,3.0262,-1.6856,-0.2489,0.4268,0.5855,
8.774984,-2.7557,0.2640,-2.4172,-0.2489,0.4268,0.5855,
8.809351,-2.7557,0.2640,-2.4172,-1.3158,-0.2595,0.0449,
8.839042,-2.7557,0.2640,-2.4172,-1.3158,-0.2595,0.0449,
8.840984,-2.0260,0.0079,-0.3170,-1.3158,-0.2595,0.0449,
8.874666,-2.0260,0.0079,-0.3170,-0.8413,0.6425,-0.1863,
8.903379,-2.0260,0.0079,-0.3170,-0.8413,0.6425,-0.1863,
8.904619,0.2798,-0.6640,-0.4295,-0.8413,0.6425,-0.1863,
8.939832,0.2798,-0.6640,-0.4295,-0.7219,1.3822,-0.1735,
8.968775,0.2798,-0.6640,-0.4295,-0.7219,1.3822,-0.1735,
8.970113,-1.3002,-0.8140,-0.1679,-0.7219,1.3822,-0.1735,
9.005429,-1.3002,-0.8140,-0.1679,-0.3774,1.3234,-0.0823,
9.034081,-1.3002,-0.8140,-0.1679,-0.3774,1.3234,-0.0823,
9.035828,-1.9096,-1.1781,-0.0227,-0.3774,1.3234,-0.0823,
9.071032,-1.9096,-1.1781,-0.0227,-0.3224,1.0956,0.1196,
9.100487,-1.9096,-1.1781,-0.0227,-0.3224,1.0956,0.1196,
9.101977,-1.3841,-1.6554,-0.4192,-0.3224,1.0956,0.1196,
9.137066,-1.3841,-1.6554,-0.4192,0.0925,0.8519,0.1266,
9.165431,-1.3841,-1.6554,-0.4192,0.0925,0.8519,0.1266,
9.167148,-1.9133,-0.3167,0.5459,0.0925,0.8519,0.1266,
9.203829,-1.9133,-0.3167,0.5459,0.1031,0.6173,0.0846,
9.230601,-1.9133,-0.3167,0.5459,0.1031,0.6173,0.0846,
9.232662,-0.5506,0.7746,1.6851,0.1031,0.6173,0.0846,
9.267095,-0.5506,0.7746,1.6851,0.0133,0.7746,-0.0258,
9.296814,-0.5506,0.7746,1.6851,0.0133,0.7746,-0.0258,
9.297949,0.3274,-0.0188,1.6356,0.0133,0.7746,-0.0258,
9.332941,0.3274,-0.0188,1.6356,-0.6130,0.8942,-0.0929,
9.361197,0.3274,-0.0188,1.6356,-0.6130,0.8942,-0.0929,
9.362485,-3.7863,5.1122,-1.4286,-0.6130,0.8942,-0.0929,
9.398630,-3.7863,5.1122,-1.4286,-0.1669,1.1003,-0.3309,
9.428343,-3.7863,5.1122,-1.4286,-0.1669,1.1003,-0.3309,
9.429343,1.3828,-4.8879,-3.6048,-0.1669,1.1003,-0.3309,
9.465303,1.3828,-4.8879,-3.6048,1.0620,1.3990,-0.4977,
9.493153,1.3828,-4.8879,-3.6048,1.0620,1.3990,-0.4977,
9.494370,-4.4543,2.1541,-1.7768,1.0620,1.3990,-0.4977,
9.529931,-4.4543,2.1541,-1.7768,0.4636,-0.5195,0.5313,
9.558552,-4.4543,2.1541,-1.7768,0.4636,-0.5195,0.5313,
9.560672,0.1127,-0.4130,-2.2467,0.4636,-0.5195,0.5313,
9.594919,0.1127,-0.4130,-2.2467,0.4922,-0.5597,0.6254,
9.623720,0.1127,-0.4130,-2.2467,0.4922,-0.5597,0.6254,
9.625396,1.0117,-0.6909,-1.0233,0.4922,-0.5597,0.6254,
9.660953,1.0117,-0.6909,-1.0233,0.4386,-0.3893,0.2772,
9.689192,1.0117,-0.6909,-1.0233,0.4386,-0.3893,0.2772,
9.691229,-0.1989,-0.7391,-0.1895,0.4386,-0.3893,0.2772,
9.725881,-0.1989,-0.7391,-0.1895,0.4207,-0.4134,0.0327,
9.755920,-0.1989,-0.7391,-0.1895,0.4207,-0.4134,0.0327,
9.757513,-0.0227,-0.5399,0.0700,0.4207,-0.4134,0.0327,
9.792388,-0.0227,-0.5399,0.0700,0.3858,-0.3876,-0.2314,
9.820806,-0.0227,-0.5399,0.0700,0.3858,-0.3876,-0.2314,
9.822763,1.0923,0.2895,0.1528,0.3858,-0.3876,-0.2314,
9.856754,1.0923,0.2895,0.1528,0.3945,-0.3711,-0.4157,
9.887080,1.0923,0.2895,0.1528,0.3945,-0.3711,-0.4157,
9.888830,1.9122,1.0179,0.5537,0.3945,-0.3711,-0.4157,
9.922394,1.9122,1.0179,0.5537,0.1316,-0.2553,0.1437,
9.951589,1.9122,1.0179,0.5537,0.1316,-0.2553,0.1437,
9.953302,1.6481,2.0596,-0.4220,0.1316,-0.2553,0.1437,
9.987465,1.6481,2.0596,-0.4220,-0.1087,0.6956,0.6953,
10.017183,1.6481,2.0596,-0.4220,-0.1087,0.6956,0.6953,
10.019139,-0.9076,1.6803,-2.5186,-0.1087,0.6956,0.6953,
10.057037,-0.9076,1.6803,-2.5186,-1.1651,-0.0536,0.0218,
10.083635,-0.9076,1.6803,-2.5186,-1.1651,-0.0536,0.0218,
10.084346,-2.5083,-0.5880,-1.3762,-1.1651,-0.0536,0.0218,
10.097455,-2.5083,-0.5880,-1.3762,-1.1651,-0.0536,0.0218,
10.116426,-2.5083,-0.5880,-1.3762,-1.1651,-0.0536,0.0218,
10.117446,-2.5083,-0.5880,-1.3762,-0.9371,1.2048,-0.2485,
10.131228,-2.5083,-0.5880,-1.3762,-0.9371,1.2048,-0.2485,
10.146494,-2.5083,-0.5880,-1.3762,-0.9371,1.2048,-0.2485,
10.147488,0.6214,-0.1251,-1.2211,-0.9371,1.2048,-0.2485,
10.162744,0.6214,-0.1251,-1.2211,-0.9371,1.2048,-0.2485,
10.180506,0.6214,-0.1251,-1.2211,-0.9371,1.2048,-0.2485,
10.183091,0.6214,-0.1251,-1.2211,-0.9525,1.4717,-0.1139,
10.195496,0.6214,-0.1251,-1.2211,-0.9525,1.4717,-0.1139,
10.211818,0.6214,-0.1251,-1.2211,-0.9525,1.4717,-0.1139,
10.212666,-1.7248,-0.8142,-0.8917,-0.9525,1.4717,-0.1139,
10.228931,-1.7248,-0.8142,-0.8917,-0.9525,1.4717,-0.1139,
10.245466,-1.7248,-0.8142,-0.8917,-0.9525,1.4717,-0.1139,
10.249083,-1.7248,-0.8142,-0.8917,-0.6232,1.3476,0.0197,
10.261459,-1.7248,-0.8142,-0.8917,-0.6232,1.3476,0.0197,
10.277713,-1.7248,-0.8142,-0.8917,-0.6232,1.3476,0.0197,
10.279084,-1.7284,-1.0569,-0.7741,-0.6232,1.3476,0.0197,
10.294567,-1.7284,-1.0569,-0.7741,-0.6232,1.3476,0.0197,
10.311039,-1.7284,-1.0569,-0.7741,-0.6232,1.3476,0.0197,
10.314578,-1.7284,-1.0569,-0.7741,-0.4943,1.0249,0.1658,
10.327067,-1.7284,-1.0569,-0.7741,-0.4943,1.0249,0.1658,
10.347816,-1.7284,-1.0569,-0.7741,-0.4943,1.0249,0.1658,
10.350723,-1.0015,-1.9626,-0.6343,-0.4943,1.0249,0.1658,
10.362355,-1.0015,-1.9626,-0.6343,-0.4943,1.0249,0.1658,
10.376540,-1.0015,-1.9626,-0.6343,-0.4943,1.0249,0.1658,
10.379430,-1.0015,-1.9626,-0.6343,-0.0382,0.8601,0.0637,
10.392568,-1.0015,-1.9626,-0.6343,-0.0382,0.8601,0.0637,
10.412072,-1.0015,-1.9626,-0.6343,-0.0382,0.8601,0.0637,
10.413242,-0.8280,-0.8760,0.2981,-0.0382,0.8601,0.0637,
10.426558,-0.8280,-0.8760,0.2981,-0.0382,0.8601,0.0637,
10.442680,-0.8280,-0.8760,0.2981,-0.0382,0.8601,0.0637,
10.444831,-0.8280,-0.8760,0.2981,0.2133,0.4893,0.0941,
10.458623,-0.8280,-0.8760,0.2981,0.2133,0.4893,0.0941,
10.475010,-0.8280,-0.8760,0.2981,0.2133,0.4893,0.0941,
10.476492,-0.8307,-0.1641,1.5403,0.2133,0.4893,0.0941,
10.491135,-0.8307,-0.1641,1.5403,0.2133,0.4893,0.0941,
10.508055,-0.8307,-0.1641,1.5403,0.2133,0.4893,0.0941,
10.510656,-0.8307,-0.1641,1.5403,0.0531,0.8728,-0.0835,
10.523956,-0.8307,-0.1641,1.5403,0.0531,0.8728,-0.0835,
10.540494,-0.8307,-0.1641,1.5403,0.0531,0.8728,-0.0835,
10.541964,0.4841,-0.3907,1.7757,0.0531,0.8728,-0.0835,
10.557037,0.4841,-0.3907,1.7757,0.0531,0.8728,-0.0835,
10.572858,0.4841,-0.3907,1.7757,0.0531,0.8728,-0.0835,
10.576968,0.4841,-0.3907,1.7757,-0.1830,0.9559,0.1914,
10.588943,0.4841,-0.3907,1.7757,-0.1830,0.9559,0.1914,
10.605905,0.4841,-0.3907,1.7757,-0.1830,0.9559,0.1914,
10.607561,-2.2224,7.2191,-2.3896,-0.1830,0.9559,0.1914,
10.622097,-2.2224,7.2191,-2.3896,-0.1830,0.9559,0.1914,
10.638827,-2.2224,7.2191,-2.3896,-0.1830,0.9559,0.1914,
10.641674,-2.2224,7.2191,-2.3896,-0.0609,1.1582,-0.2416,
10.654820,-2.2224,7.2191,-2.3896,-0.0609,1.1582,-0.2416,
10.671408,-2.2224,7.2191,-2.3896,-0.0609,1.1582,-0.2416,
10.672877,0.7896,-3.3689,-5.4343,-0.0609,1.1582,-0.2416,
10.686646,0.7896,-3.3689,-5.4343,-0.0609,1.1582,-0.2416,
10.703711,0.7896,-3.3689,-5.4343,-0.0609,1.1582,-0.2416,
10.707495,0.7896,-3.3689,-5.4343,0.7986,1.1394,-0.0654,
10.720138,0.7896,-3.3689,-5.4343,0.7986,1.1394,-0.0654,
10.737858,0.7896,-3.3689,-5.4343,0.7986,1.1394,-0.0654,
10.739635,-2.9055,1.7906,-0.8906,0.7986,1.1394,-0.0654,
10.753132,-2.9055,1.7906,-0.8906,0.7986,1.1394,-0.0654,
10.770232,-2.9055,1.7906,-0.8906,0.7986,1.1394,-0.0654,
10.773123,-2.9055,1.7906,-0.8906,0.4443,-0.2589,0.8178,
10.785676,-2.9055,1.7906,-0.8906,0.4443,-0.2589,0.8178,
10.801874,-2.9055,1.7906,-0.8906,0.4443,-0.2589,0.8178,
10.803494,1.3062,-0.7420,-1.7683,0.4443,-0.2589,0.8178,
10.818325,1.3062,-0.7420,-1.7683,0.4443,-0.2589,0.8178,
10.834628,1.3062,-0.7420,-1.7683,0.4443,-0.2589,0.8178,
10.838701,1.3062,-0.7420,-1.7683,0.4888,-0.0881,0.4090,
10.850774,1.3062,-0.7420,-1.7683,0.4888,-0.0881,0.4090,
10.868398,1.3062,-0.7420,-1.7683,0.4888,-0.0881,0.4090,
10.870062,1.2351,-1.4498,-0.7512,0.4888,-0.0881,0.4090,
10.884070,1.2351,-1.4498,-0.7512,0.4888,-0.0881,0.4090,
10.900201,1.2351,-1.4498,-0.7512,0.4888,-0.0881,0.4090,
10.904050,1.2351,-1.4498,-0.7512,0.6713,0.1090,-0.0834,
10.916609,1.2351,-1.4498,-0.7512,0.6713,0.1090,-0.0834,
10.932882,1.2351,-1.4498,-0.7512,0.6713,0.1090,-0.0834,
10.934445,0.4542,-0.2508,-0.7192,0.6713,0.1090,-0.0834,
10.949226,0.4542,-0.2508,-0.7192,0.6713,0.1090,-0.0834,
10.967096,0.4542,-0.2508,-0.7192,0.6713,0.1090,-0.0834,
10.969294,0.4542,-0.2508,-0.7192,0.3769,0.0058,-0.1684,
10.981678,0.4542,-0.2508,-0.7192,0.3769,0.0058,-0.1684,
10.998276,0.4542,-0.2508,-0.7192,0.3769,0.0058,-0.1684,
10.999963,0.0311,-0.1192,-0.8254,0.3769,0.0058,-0.1684,
11.014481,0.0311,-0.1192,-0.8254,0.3769,0.0058,-0.1684,
11.030723,0.0311,-0.1192,-0.8254,0.3769,0.0058,-0.1684,
11.034653,0.0311,-0.1192,-0.8254,0.1924,-0.3187,-0.2379,
11.047247,0.0311,-0.1192,-0.8254,0.1924,-0.3187,-0.2379,
11.063913,0.0311,-0.1192,-0.8254,0.1924,-0.3187,-0.2379,
11.065742,0.2900,-0.3192,-0.7231,0.1924,-0.3187,-0.2379,
11.080453,0.2900,-0.3192,-0.7231,0.1924,-0.3187,-0.2379,
11.097114,0.2900,-0.3192,-0.7231,0.1924,-0.3187,-0.2379,
11.100713,0.2900,-0.3192,-0.7231,0.2407,-0.4296,-0.2089,
11.113284,0.2900,-0.3192,-0.7231,0.2407,-0.4296,-0.2089,
11.130627,0.2900,-0.3192,-0.7231,0.2407,-0.4296,-0.2089,
11.132635,1.3907,0.4643,-0.2012,0.2407,-0.4296,-0.2089,
11.146788,1.3907,0.4643,-0.2012,0.2407,-0.4296,-0.2089,
11.162484,1.3907,0.4643,-0.2012,0.2407,-0.4296,-0.2089,
11.165267,1.3907,0.4643,-0.2012,0.2671,-0.4450,-0.0063,
11.178307,1.3907,0.4643,-0.2012,0.2671,-0.4450,-0.0063,
11.195041,1.3907,0.4643,-0.2012,0.2671,-0.4450,-0.0063,
11.196988,3.2520,1.7567,0.3473,0.2671,-0.4450,-0.0063,
11.211201,3.2520,1.7567,0.3473,0.2671,-0.4450,-0.0063,
11.228424,3.2520,1.7567,0.3473,0.2671,-0.4450,-0.0063,
11.231200,3.2520,1.7567,0.3473,-0.1283,0.4985,0.3691,
11.244516,3.2520,1.7567,0.3473,-0.1283,0.4985,0.3691,
11.261169,3.2520,1.7567,0.3473,-0.1283,0.4985,0.3691,
11.262949,1.0060,2.5972,-1.7790,-0.1283,0.4985,0.3691,
11.277486,1.0060,2.5972,-1.7790,-0.1283,0.4985,0.3691,
11.294081,1.0060,2.5972,-1.7790,-0.1283,0.4985,0.3691,
11.296566,1.0060,2.5972,-1.7790,-0.8615,0.0638,0.2610,
11.310462,1.0060,2.5972,-1.7790,-0.8615,0.0638,0.2610,
11.324860,1.0060,2.5972,-1.7790,-0.8615,0.0638,0.2610,
11.325926,-4.2076,-2.0950,-2.5738,-0.8615,0.0638,0.2610,
11.342673,-4.2076,-2.0950,-2.5738,-0.8615,0.0638,0.2610,
11.358973,-4.2076,-2.0950,-2.5738,-0.8615,0.0638,0.2610,
11.362357,-4.2076,-2.0950,-2.5738,-0.9508,1.0189,-0.0192,
11.374097,-4.2076,-2.0950,-2.5738,-0.9508,1.0189,-0.0192,
11.391785,-4.2076,-2.0950,-2.5738,-0.9508,1.0189,-0.0192,
11.393249,1.0088,2.1951,-1.2410,-0.9508,1.0189,-0.0192,
11.408014,1.0088,2.1951,-1.2410,-0.9508,1.0189,-0.0192,
11.424268,1.0088,2.1951,-1.2410,-0.9508,1.0189,-0.0192,
11.427518,1.0088,2.1951,-1.2410,-1.1661,0.8468,-0.1587,
11.440437,1.0088,2.1951,-1.2410,-1.1661,0.8468,-0.1587,
11.458643,1.0088,2.1951,-1.2410,-1.1661,0.8468,-0.1587,
11.460274,-0.7166,-0.6804,-1.4153,-1.1661,0.8468,-0.1587,
11.473345,-0.7166,-0.6804,-1.4153,-1.1661,0.8468,-0.1587,
11.489209,-0.7166,-0.6804,-1.4153,-1.1661,0.8468,-0.1587,
11.494831,-0.7166,-0.6804,-1.4153,-0.7422,1.1220,0.0615,
11.505850,-0.7166,-0.6804,-1.4153,-0.7422,1.1220,0.0615,
11.522899,-0.7166,-0.6804,-1.4153,-0.7422,1.1220,0.0615,
11.524484,-0.7088,-0.8944,-1.2187,-0.7422,1.1220,0.0615,
11.538974,-0.7088,-0.8944,-1.2187,-0.7422,1.1220,0.0615,
11.554579,-0.7088,-0.8944,-1.2187,-0.7422,1.1220,0.0615,
11.557864,-0.7088,-0.8944,-1.2187,-0.5753,1.0432,0.1707,
11.571231,-0.7088,-0.8944,-1.2187,-0.5753,1.0432,0.1707,
11.588362,-0.7088,-0.8944,-1.2187,-0.5753,1.0432,0.1707,
11.589320,-0.5771,-1.6515,-0.9311,-0.5753,1.0432,0.1707,
11.604179,-0.5771,-1.6515,-0.9311,-0.5753,1.0432,0.1707,
11.620012,-0.5771,-1.6515,-0.9311,-0.5753,1.0432,0.1707,
11.623728,-0.5771,-1.6515,-0.9311,-0.1637,1.0922,0.0728,
11.636940,-0.5771,-1.6515,-0.9311,-0.1637,1.0922,0.0728,
11.653217,-0.5771,-1.6515,-0.9311,-0.1637,1.0922,0.0728,
11.654944,-0.1105,-1.7807,-0.4912,-0.1637,1.0922,0.0728,
11.669321,-0.1105,-1.7807,-0.4912,-0.1637,1.0922,0.0728,
11.685401,-0.1105,-1.7807,-0.4912,-0.1637,1.0922,0.0728,
11.689345,-0.1105,-1.7807,-0.4912,0.3592,1.0780,-0.0577,
11.702269,-0.1105,-1.7807,-0.4912,0.3592,1.0780,-0.0577,
11.718934,-0.1105,-1.7807,-0.4912,0.3592,1.0780,-0.0577,
11.720338,-0.3191,0.1413,0.5412,0.3592,1.0780,-0.0577,
11.735314,-0.3191,0.1413,0.5412,0.3592,1.0780,-0.0577,
11.751582,-0.3191,0.1413,0.5412,0.3592,1.0780,-0.0577,
11.755242,-0.3191,0.1413,0.5412,0.0284,0.7175,0.0472,
11.768083,-0.3191,0.1413,0.5412,0.0284,0.7175,0.0472,
11.783406,-0.3191,0.1413,0.5412,0.0284,0.7175,0.0472,
11.784267,0.3400,0.4527,1.5562,0.0284,0.7175,0.0472,
11.800120,0.3400,0.4527,1.5562,0.0284,0.7175,0.0472,
11.816380,0.3400,0.4527,1.5562,0.0284,0.7175,0.0472,
11.819993,0.3400,0.4527,1.5562,0.0350,0.8537,0.0840,
11.833424,0.3400,0.4527,1.5562,0.0350,0.8537,0.0840,
11.849684,0.3400,0.4527,1.5562,0.0350,0.8537,0.0840,
11.851206,1.2337,0.2051,1.4607,0.0350,0.8537,0.0840,
11.865690,1.2337,0.2051,1.4607,0.0350,0.8537,0.0840,
11.882706,1.2337,0.2051,1.4607,0.0350,0.8537,0.0840,
11.886376,1.2337,0.2051,1.4607,-0.4330,0.8091,0.0452,
11.898770,1.2337,0.2051,1.4607,-0.4330,0.8091,0.0452,
11.914765,1.2337,0.2051,1.4607,-0.4330,0.8091,0.0452,
11.915904,-4.3696,4.0066,-3.5533,-0.4330,0.8091,0.0452,
11.931111,-4.3696,4.0066,-3.5533,-0.4330,0.8091,0.0452,
11.948166,-4.3696,4.0066,-3.5533,-0.4330,0.8091,0.0452,
11.951587,-4.3696,4.0066,-3.5533,0.2094,0.8526,-0.2225,
11.963923,-4.3696,4.0066,-3.5533,0.2094,0.8526,-0.2225,
11.981731,-4.3696,4.0066,-3.5533,0.2094,0.8526,-0.2225,
11.983453,2.4547,-2.9791,-3.5908,0.2094,0.8526,-0.2225,
11.997161,2.4547,-2.9791,-3.5908,0.2094,0.8526,-0.2225,
12.013357,2.4547,-2.9791,-3.5908,0.2094,0.8526,-0.2225,
12.017194,2.4547,-2.9791,-3.5908,1.0288,1.0562,-0.0814,
12.029668,2.4547,-2.9791,-3.5908,1.0288,1.0562,-0.0814,
12.046621,2.4547,-2.9791,-3.5908,1.0288,1.0562,-0.0814,
12.047531,-2.9695,1.2440,-1.8707,1.0288,1.0562,-0.0814,
12.063646,-2.9695,1.2440,-1.8707,1.0288,1.0562,-0.0814,
12.079312,-2.9695,1.2440,-1.8707,1.0288,1.0562,-0.0814,
12.083402,-2.9695,1.2440,-1.8707,0.4629,-0.4131,0.7818,
12.094986,-2.9695,1.2440,-1.8707,0.4629,-0.4131,0.7818,
12.111735,-2.9695,1.2440,-1.8707,0.4629,-0.4131,0.7818,
12.112801,1.7726,-0.5436,-1.9855,0.4629,-0.4131,0.7818,
12.127452,1.7726,-0.5436,-1.9855,0.4629,-0.4131,0.7818,
12.144408,1.7726,-0.5436,-1.9855,0.4629,-0.4131,0.7818,
12.147971,1.7726,-0.5436,-1.9855,0.4016,0.0612,0.6183,
12.161751,1.7726,-0.5436,-1.9855,0.4016,0.0612,0.6183,
12.177421,1.7726,-0.5436,-1.9855,0.4016,0.0612,0.6183,
12.179111,0.7448,-1.1236,-0.6832,0.4016,0.0612,0.6183,
12.193663,0.7448,-1.1236,-0.6832,0.4016,0.0612,0.6183,
12.210876,0.7448,-1.1236,-0.6832,0.4016,0.0612,0.6183,
12.213301,0.7448,-1.1236,-0.6832,0.5877,-0.1619,0.2430,
12.227751,0.7448,-1.1236,-0.6832,0.5877,-0.1619,0.2430,
12.244804,0.7448,-1.1236,-0.6832,0.5877,-0.1619,0.2430,
12.246311,0.2124,-0.7882,-0.9147,0.5877,-0.1619,0.2430,
12.261432,0.2124,-0.7882,-0.9147,0.5877,-0.1619,0.2430,
12.275390,0.2124,-0.7882,-0.9147,0.5877,-0.1619,0.2430,
12.278809,0.2124,-0.7882,-0.9147,0.4381,-0.4224,-0.1533,
12.292213,0.2124,-0.7882,-0.9147,0.4381,-0.4224,-0.1533,
12.309283,0.2124,-0.7882,-0.9147,0.4381,-0.4224,-0.1533,
12.310417,0.4814,-0.5611,-0.0266,0.4381,-0.4224,-0.1533,
12.324790,0.4814,-0.5611,-0.0266,0.4381,-0.4224,-0.1533,
12.341922,0.4814,-0.5611,-0.0266,0.4381,-0.4224,-0.1533,
12.344935,0.4814,-0.5611,-0.0266,0.5382,-0.6820,-0.2894,
12.357860,0.4814,-0.5611,-0.0266,0.5382,-0.6820,-0.2894,
12.374553,0.4814,-0.5611,-0.0266,0.5382,-0.6820,-0.2894,
12.375979,2.5903,-0.0911,-0.5989,0.5382,-0.6820,-0.2894,
12.390703,2.5903,-0.0911,-0.5989,0.5382,-0.6820,-0.2894,
12.407492,2.5903,-0.0911,-0.5989,0.5382,-0.6820,-0.2894,
12.410671,2.5903,-0.0911,-0.5989,0.5382,-0.3471,-0.2315,
12.423236,2.5903,-0.0911,-0.5989,0.5382,-0.3471,-0.2315,
12.438818,2.5903,-0.0911,-0.5989,0.5382,-0.3471,-0.2315,
12.440294,1.6629,1.7205,0.4247,0.5382,-0.3471,-0.2315,
12.455152,1.6629,1.7205,0.4247,0.5382,-0.3471,-0.2315,
12.472038,1.6629,1.7205,0.4247,0.5382,-0.3471,-0.2315,
12.477201,1.6629,1.7205,0.4247,0.1297,-0.8282,0.1881,
12.488710,1.6629,1.7205,0.4247,0.1297,-0.8282,0.1881,
12.504780,1.6629,1.7205,0.4247,0.1297,-0.8282,0.1881,
12.506367,1.0881,2.2578,-1.5539,0.1297,-0.8282,0.1881,
12.520879,1.0881,2.2578,-1.5539,0.1297,-0.8282,0.1881,
12.536648,1.0881,2.2578,-1.5539,0.1297,-0.8282,0.1881,
12.540529,1.0881,2.2578,-1.5539,-0.2627,-0.2253,0.6358,
12.553529,1.0881,2.2578,-1.5539,-0.2627,-0.2253,0.6358,
12.569303,1.0881,2.2578,-1.5539,-0.2627,-0.2253,0.6358,
12.570755,-1.3730,1.1501,-3.6151,-0.2627,-0.2253,0.6358,
12.585930,-1.3730,1.1501,-3.6151,-0.2627,-0.2253,0.6358,
12.603009,-1.3730,1.1501,-3.6151,-0.2627,-0.2253,0.6358,
12.605960,-1.3730,1.1501,-3.6151,-1.3647,-0.8147,0.2398,
12.619901,-1.3730,1.1501,-3.6151,-1.3647,-0.8147,0.2398,
12.636247,-1.3730,1.1501,-3.6151,-1.3647,-0.8147,0.2398,
12.637752,-1.6311,-0.1199,-0.8247,-1.3647,-0.8147,0.2398,
12.652214,-1.6311,-0.1199,-0.8247,-1.3647,-0.8147,0.2398,
12.668632,-1.6311,-0.1199,-0.8247,-1.3647,-0.8147,0.2398,
12.672314,-1.6311,-0.1199,-0.8247,-1.1533,-0.1414,-0.0768,
12.684562,-1.6311,-0.1199,-0.8247,-1.1533,-0.1414,-0.0768,
12.701590,-1.6311,-0.1199,-0.8247,-1.1533,-0.1414,-0.0768,
12.703262,1.1194,0.3688,-1.4435,-1.1533,-0.1414,-0.0768,
12.717602,1.1194,0.3688,-1.4435,-1.1533,-0.1414,-0.0768,
12.733205,1.1194,0.3688,-1.4435,-1.1533,-0.1414,-0.0768,
12.736564,1.1194,0.3688,-1.4435,-1.0505,0.6975,-0.2506,
12.749183,1.1194,0.3688,-1.4435,-1.0505,0.6975,-0.2506,
12.765688,1.1194,0.3688,-1.4435,-1.0505,0.6975,-0.2506,
12.767214,-1.3457,-1.1479,-0.8126,-1.0505,0.6975,-0.2506,
12.782617,-1.3457,-1.1479,-0.8126,-1.0505,0.6975,-0.2506,
12.799604,-1.3457,-1.1479,-0.8126,-1.0505,0.6975,-0.2506,
12.802887,-1.3457,-1.1479,-0.8126,-0.4992,0.4638,-0.0286,
12.814891,-1.3457,-1.1479,-0.8126,-0.4992,0.4638,-0.0286,
12.831355,-1.3457,-1.1479,-0.8126,-0.4992,0.4638,-0.0286,
12.832871,-0.8993,-2.1313,-0.4956,-0.4992,0.4638,-0.0286,
12.849148,-0.8993,-2.1313,-0.4956,-0.4992,0.4638,-0.0286,
12.864377,-0.8993,-2.1313,-0.4956,-0.4992,0.4638,-0.0286,
12.868500,-0.8993,-2.1313,-0.4956,-0.1326,0.4418,0.0417,
12.880883,-0.8993,-2.1313,-0.4956,-0.1326,0.4418,0.0417,
12.899242,-0.8993,-2.1313,-0.4956,-0.1326,0.4418,0.0417,
12.900159,-0.1684,-1.5994,-0.2897,-0.1326,0.4418,0.0417,
12.913649,-0.1684,-1.5994,-0.2897,-0.1326,0.4418,0.0417,
12.929461,-0.1684,-1.5994,-0.2897,-0.1326,0.4418,0.0417,
12.933350,-0.1684,-1.5994,-0.2897,0.1744,0.6541,-0.0108,
12.945635,-0.1684,-1.5994,-0.2897,0.1744,0.6541,-0.0108,
12.962605,-0.1684,-1.5994,-0.2897,0.1744,0.6541,-0.0108,
12.963526,1.3707,-0.7002,0.5857,0.1744,0.6541,-0.0108,
12.979647,1.3707,-0.7002,0.5857,0.1744,0.6541,-0.0108,
12.995420,1.3707,-0.7002,0.5857,0.1744,0.6541,-0.0108,
12.999309,1.3707,-0.7002,0.5857,0.2750,0.8868,0.0761,
13.012068,1.3707,-0.7002,0.5857,0.2750,0.8868,0.0761,
13.027526,1.3707,-0.7002,0.5857,0.2750,0.8868,0.0761,
13.028705,0.6619,0.0965,1.0749,0.2750,0.8868,0.0761,
13.044932,0.6619,0.0965,1.0749,0.2750,0.8868,0.0761,
13.060940,0.6619,0.0965,1.0749,0.2750,0.8868,0.0761,
13.064836,0.6619,0.0965,1.0749,0.2561,0.9995,0.0547,
13.077254,0.6619,0.0965,1.0749,0.2561,0.9995,0.0547,
13.093736,0.6619,0.0965,1.0749,0.2561,0.9995,0.0547,
13.095486,1.1110,0.1974,2.1909,0.2561,0.9995,0.0547,
13.111413,1.1110,0.1974,2.1909,0.2561,0.9995,0.0547,
13.127776,1.1110,0.1974,2.1909,0.2561,0.9995,0.0547,
13.130060,1.1110,0.1974,2.1909,0.0032,1.4120,0.0706,
13.142682,1.1110,0.1974,2.1909,0.0032,1.4120,0.0706,
13.159351,1.1110,0.1974,2.1909,0.0032,1.4120,0.0706,
13.161193,0.0083,5.9168,-0.5748,0.0032,1.4120,0.0706,
13.177262,0.0083,5.9168,-0.5748,0.0032,1.4120,0.0706,
13.192099,0.0083,5.9168,-0.5748,0.0032,1.4120,0.0706,
13.195755,0.0083,5.9168,-0.5748,0.2735,-0.4375,-0.7630,
13.207985,0.0083,5.9168,-0.5748,0.2735,-0.4375,-0.7630,
13.224250,0.0083,5.9168,-0.5748,0.2735,-0.4375,-0.7630,
13.226528,-2.3114,-1.8092,-3.2549,0.2735,-0.4375,-0.7630,
13.241311,-2.3114,-1.8092,-3.2549,0.2735,-0.4375,-0.7630,
13.258048,-2.3114,-1.8092,-3.2549,0.2735,-0.4375,-0.7630,
13.260865,-2.3114,-1.8092,-3.2549,0.2915,1.3245,-0.0663,
13.273392,-2.3114,-1.8092,-3.2549,0.2915,1.3245,-0.0663,
13.290330,-2.3114,-1.8092,-3.2549,0.2915,1.3245,-0.0663,
13.292084,1.3794,-1.7421,-3.8714,0.2915,1.3245,-0.0663,
13.306883,1.3794,-1.7421,-3.8714,0.2915,1.3245,-0.0663,
13.322826,1.3794,-1.7421,-3.8714,0.2915,1.3245,-0.0663,
13.327057,1.3794,-1.7421,-3.8714,0.8358,0.2121,0.1092,
13.339426,1.3794,-1.7421,-3.8714,0.8358,0.2121,0.1092,
13.355771,1.3794,-1.7421,-3.8714,0.8358,0.2121,0.1092,
13.357378,-1.6759,0.9517,-0.5662,0.8358,0.2121,0.1092,
13.372069,-1.6759,0.9517,-0.5662,0.8358,0.2121,0.1092,
13.388402,-1.6759,0.9517,-0.5662,0.8358,0.2121,0.1092,
13.391751,-1.6759,0.9517,-0.5662,0.4036,-0.8019,0.7358,
13.404548,-1.6759,0.9517,-0.5662,0.4036,-0.8019,0.7358,
13.420824,-1.6759,0.9517,-0.5662,0.4036,-0.8019,0.7358,
13.422353,2.0447,-1.3830,-1.6058,0.4036,-0.8019,0.7358,
13.437435,2.0447,-1.3830,-1.6058,0.4036,-0.8019,0.7358,
13.453279,2.0447,-1.3830,-1.6058,0.4036,-0.8019,0.7358,
13.456929,2.0447,-1.3830,-1.6058,0.3755,-0.4618,0.3897,
13.470429,2.0447,-1.3830,-1.6058,0.3755,-0.4618,0.3897,
13.486552,2.0447,-1.3830,-1.6058,0.3755,-0.4618,0.3897,
13.488197,0.5192,-0.7425,-0.6849,0.3755,-0.4618,0.3897,
13.523394,0.5192,-0.7425,-0.6849,0.3552,-0.5145,0.0463,
13.554664,0.5192,-0.7425,-0.6849,0.3552,-0.5145,0.0463,
13.555621,1.4465,-0.8734,-0.3921,0.3552,-0.5145,0.0463,
13.588543,1.4465,-0.8734,-0.3921,0.2992,-0.5044,-0.3096,
13.618473,1.4465,-0.8734,-0.3921,0.2992,-0.5044,-0.3096,
13.619988,1.3023,-0.7528,-0.0142,0.2992,-0.5044,-0.3096,
13.655418,1.3023,-0.7528,-0.0142,0.4986,-0.4487,-0.3332,
13.683327,1.3023,-0.7528,-0.0142,0.4986,-0.4487,-0.3332,
13.685698,1.8862,0.2386,-0.7222,0.4986,-0.4487,-0.3332,
13.721285,1.8862,0.2386,-0.7222,0.2587,-0.3322,-0.0735,
13.750649,1.8862,0.2386,-0.7222,0.2587,-0.3322,-0.0735,
13.752429,0.9771,1.6830,0.5579,0.2587,-0.3322,-0.0735,
13.786320,0.9771,1.6830,0.5579,0.0286,-0.2140,0.7147,
13.814454,0.9771,1.6830,0.5579,0.0286,-0.2140,0.7147,
13.816162,1.2329,3.8700,-3.1904,0.0286,-0.2140,0.7147,
13.851017,1.2329,3.8700,-3.1904,-1.0388,-0.9195,0.4922,
13.879281,1.2329,3.8700,-3.1904,-1.0388,-0.9195,0.4922,
13.880740,-3.5978,-1.1138,0.3706,-1.0388,-0.9195,0.4922,
13.915680,-3.5978,-1.1138,0.3706,-1.0047,-0.2498,-0.0770,
13.946349,-3.5978,-1.1138,0.3706,-1.0047,-0.2498,-0.0770,
13.947916,1.4501,0.5321,-1.8314,-1.0047,-0.2498,-0.0770,
13.982807,1.4501,0.5321,-1.8314,-1.0047,0.5757,-0.3734,
14.010711,1.4501,0.5321,-1.8314,-1.0047,0.5757,-0.3734,
14.012363,-0.6530,-0.5544,-0.9111,-1.0047,0.5757,-0.3734,
14.049413,-0.6530,-0.5544,-0.9111,-0.5411,0.3421,-0.1055,
14.078425,-0.6530,-0.5544,-0.9111,-0.5411,0.3421,-0.1055,
14.080174,-0.2838,-2.3823,-0.8587,-0.5411,0.3421,-0.1055,
14.113490,-0.2838,-2.3823,-0.8587,-0.0412,0.5996,-0.0241,
14.141542,-0.2838,-2.3823,-0.8587,-0.0412,0.5996,-0.0241,
14.143140,-0.0352,-1.7721,-0.5699,-0.0412,0.5996,-0.0241,
14.178735,-0.0352,-1.7721,-0.5699,0.0863,0.7943,0.0312,
14.206987,-0.0352,-1.7721,-0.5699,0.0863,0.7943,0.0312,
14.209222,0.5576,-0.8002,-0.2553,0.0863,0.7943,0.0312,
14.243482,0.5576,-0.8002,-0.2553,0.3128,0.8835,0.0835,
14.272111,0.5576,-0.8002,-0.2553,0.3128,0.8835,0.0835,
14.273548,-0.3028,0.7664,0.7302,0.3128,0.8835,0.0835,
14.308735,-0.3028,0.7664,0.7302,0.0269,0.7711,-0.0197,
14.338600,-0.3028,0.7664,0.7302,0.0269,0.7711,-0.0197,
14.339796,0.8273,0.2567,1.6812,0.0269,0.7711,-0.0197,
14.375306,0.8273,0.2567,1.6812,0.2312,0.7205,-0.0715,
14.403742,0.8273,0.2567,1.6812,0.2312,0.7205,-0.0715,
14.404922,1.3752,0.6478,1.4030,0.2312,0.7205,-0.0715,
14.440132,1.3752,0.6478,1.4030,-0.5127,0.1646,0.0958,
14.470328,1.3752,0.6478,1.4030,-0.5127,0.1646,0.0958,
14.470865,-5.3824,3.3153,-3.3154,-0.5127,0.1646,0.0958,
14.505507,-5.3824,3.3153,-3.3154,0.2999,0.7701,-0.1032,
14.533661,-5.3824,3.3153,-3.3154,0.2999,0.7701,-0.1032,
14.535329,2.9760,-1.7955,-3.0166,0.2999,0.7701,-0.1032,
14.570918,2.9760,-1.7955,-3.0166,0.6226,0.7146,-0.2576,
14.599361,2.9760,-1.7955,-3.0166,0.6226,0.7146,-0.2576,
14.601233,-2.3937,0.8682,-0.1624,0.6226,0.7146,-0.2576,
14.637773,-2.3937,0.8682,-0.1624,0.3209,-0.4704,0.7103,
14.664949,-2.3937,0.8682,-0.1624,0.3209,-0.4704,0.7103,
14.666412,0.6430,-1.9182,-1.5683,0.3209,-0.4704,0.7103,
14.701774,0.6430,-1.9182,-1.5683,0.6742,-0.4359,0.3989,
14.730513,0.6430,-1.9182,-1.5683,0.6742,-0.4359,0.3989,
14.732023,0.0952,-0.5970,-0.2298,0.6742,-0.4359,0.3989,
14.766624,0.0952,-0.5970,-0.2298,0.2596,-0.7266,0.1332,
14.795936,0.0952,-0.5970,-0.2298,0.2596,-0.7266,0.1332,
14.797597,0.8626,-1.2641,0.1670,0.2596,-0.7266,0.1332,
14.832554,0.8626,-1.2641,0.1670,0.2761,-0.5945,-0.2156,
14.862653,0.8626,-1.2641,0.1670,0.2761,-0.5945,-0.2156,
14.864044,1.9107,-0.4769,0.4067,0.2761,-0.5945,-0.2156,
14.899207,1.9107,-0.4769,0.4067,0.5096,-0.0278,-0.2053,
14.927135,1.9107,-0.4769,0.4067,0.5096,-0.0278,-0.2053,
14.928804,1.3711,0.8477,-0.7057,0.5096,-0.0278,-0.2053,
14.963447,1.3711,0.8477,-0.7057,0.1174,-0.0892,0.0626,
14.992858,1.3711,0.8477,-0.7057,0.1174,-0.0892,0.0626,
14.995199,0.0990,1.2477,0.0406,0.1174,-0.0892,0.0626,
15.028868,0.0990,1.2477,0.0406,-0.1428,-0.2885,0.4371,
15.058740,0.0990,1.2477,0.0406,-0.1428,-0.2885,0.4371,
15.060416,2.0069,2.6585,-3.5320,-0.1428,-0.2885,0.4371,
15.094026,2.0069,2.6585,-3.5320,-0.9980,-0.3457,0.1645,
15.122415,2.0069,2.6585,-3.5320,-0.9980,-0.3457,0.1645,
15.123449,-2.5080,-0.5626,-2.4546,-0.9980,-0.3457,0.1645,
15.159538,-2.5080,-0.5626,-2.4546,-0.8073,0.8034,-0.1830,
15.188571,-2.5080,-0.5626,-2.4546,-0.8073,0.8034,-0.1830,
15.189780,1.4577,0.4717,-1.0073,-0.8073,0.8034,-0.1830,
15.225285,1.4577,0.4717,-1.0073,-0.8749,1.4213,-0.3172,
15.254052,1.4577,0.4717,-1.0073,-0.8749,1.4213,-0.3172,
15.254759,0.7988,-0.2943,-0.8022,-0.8749,1.4213,-0.3172,
15.290747,0.7988,-0.2943,-0.8022,-0.6452,2.1751,-0.4221,
15.320353,0.7988,-0.2943,-0.8022,-0.6452,2.1751,-0.4221,
15.321479,1.9335,-1.3675,-1.0683,-0.6452,2.1751,-0.4221,
15.357062,1.9335,-1.3675,-1.0683,-0.3367,2.2529,-0.2427,
15.385750,1.9335,-1.3675,-1.0683,-0.3367,2.2529,-0.2427,
15.386357,1.2380,-1.8047,-0.7655,-0.3367,2.2529,-0.2427,
15.422029,1.2380,-1.8047,-0.7655,-0.0096,1.9717,-0.0483,
15.451454,1.2380,-1.8047,-0.7655,-0.0096,1.9717,-0.0483,
15.452734,0.6144,-1.2285,-0.4462,-0.0096,1.9717,-0.0483,
15.488514,0.6144,-1.2285,-0.4462,0.0819,1.6031,0.2020,
15.516334,0.6144,-1.2285,-0.4462,0.0819,1.6031,0.2020,
15.517295,-0.0746,-0.2305,0.0207,0.0819,1.6031,0.2020,
15.554237,-0.0746,-0.2305,0.0207,-0.0347,0.8850,0.1510,
15.581695,-0.0746,-0.2305,0.0207,-0.0347,0.8850,0.1510,
15.583239,-0.6655,-0.5462,1.8276,-0.0347,0.8850,0.1510,
15.618724,-0.6655,-0.5462,1.8276,-0.3841,0.4804,0.2778,
15.649705,-0.6655,-0.5462,1.8276,-0.3841,0.4804,0.2778,
15.652332,-3.3528,8.5851,-0.5281,-0.3841,0.4804,0.2778,
15.684551,-3.3528,8.5851,-0.5281,0.0738,-0.4792,-0.2876,
15.712706,-3.3528,8.5851,-0.5281,0.0738,-0.4792,-0.2876,
15.713979,2.3718,-2.2538,-1.0566,0.0738,-0.4792,-0.2876,
15.749652,2.3718,-2.2538,-1.0566,0.3444,0.2702,0.9838,
15.779646,2.3718,-2.2538,-1.0566,0.3444,0.2702,0.9838,
15.780811,2.9227,0.1345,-2.4482,0.3444,0.2702,0.9838,
15.815017,2.9227,0.1345,-2.4482,0.8317,0.7761,0.1639,
15.844400,2.9227,0.1345,-2.4482,0.8317,0.7761,0.1639,
15.845635,0.5700,-0.4195,-1.4887,0.8317,0.7761,0.1639,
15.882424,0.5700,-0.4195,-1.4887,0.5690,-0.1353,0.5623,
15.909602,0.5700,-0.4195,-1.4887,0.5690,-0.1353,0.5623,
15.911091,-0.0486,-1.5814,-2.2089,0.5690,-0.1353,0.5623,
15.945864,-0.0486,-1.5814,-2.2089,0.5409,0.2314,0.0182,
15.974687,-0.0486,-1.5814,-2.2089,0.5409,0.2314,0.0182,
15.976098,0.8363,-0.1579,-0.7372,0.5409,0.2314,0.0182,
16.011549,0.8363,-0.1579,-0.7372,0.4209,-0.2637,0.0793,
16.039934,0.8363,-0.1579,-0.7372,0.4209,-0.2637,0.0793,
16.041188,1.1668,-1.2873,-0.0816,0.4209,-0.2637,0.0793,
16.077008,1.1668,-1.2873,-0.0816,0.4178,-0.2905,-0.2935,
16.106708,1.1668,-1.2873,-0.0816,0.4178,-0.2905,-0.2935,
16.108440,1.3945,-0.4514,0.4148,0.4178,-0.2905,-0.2935,
16.143777,1.3945,-0.4514,0.4148,0.4085,-0.4476,-0.4270,
16.171839,1.3945,-0.4514,0.4148,0.4085,-0.4476,-0.4270,
16.174060,1.9870,0.1737,0.9153,0.4085,-0.4476,-0.4270,
16.208473,1.9870,0.1737,0.9153,0.3231,-0.4417,-0.2321,
16.236548,1.9870,0.1737,0.9153,0.3231,-0.4417,-0.2321,
16.238651,2.9048,1.6807,1.1803,0.3231,-0.4417,-0.2321,
16.274049,2.9048,1.6807,1.1803,0.0312,-0.1413,0.1165,
16.301971,2.9048,1.6807,1.1803,0.0312,-0.1413,0.1165,
16.303688,1.9809,3.7152,-3.9365,0.0312,-0.1413,0.1165,
16.338735,1.9809,3.7152,-3.9365,-0.6573,0.2465,0.6750,
16.368833,1.9809,3.7152,-3.9365,-0.6573,0.2465,0.6750,
16.370806,-2.7541,-0.2733,-2.6959,-0.6573,0.2465,0.6750,
16.406039,-2.7541,-0.2733,-2.6959,-0.8726,-0.5548,-0.0254,
16.434740,-2.7541,-0.2733,-2.6959,-0.8726,-0.5548,-0.0254,
16.436422,1.5434,0.6285,-1.1343,-0.8726,-0.5548,-0.0254,
16.469371,1.5434,0.6285,-1.1343,-0.9609,0.6866,0.0116,
16.498851,1.5434,0.6285,-1.1343,-0.9609,0.6866,0.0116,
16.500407,0.4490,0.8080,-0.4138,-0.9609,0.6866,0.0116,
16.535248,0.4490,0.8080,-0.4138,-0.9113,0.8595,-0.0449,
16.565906,0.4490,0.8080,-0.4138,-0.9113,0.8595,-0.0449,
16.568332,0.7979,-1.3046,-0.5363,-0.9113,0.8595,-0.0449,
16.600759,0.7979,-1.3046,-0.5363,-0.4931,0.8535,0.1445,
16.630021,0.7979,-1.3046,-0.5363,-0.4931,0.8535,0.1445,
16.632010,-0.2565,-2.3765,-1.1822,-0.4931,0.8535,0.1445,
16.667261,-0.2565,-2.3765,-1.1822,-0.0487,1.1516,-0.0626,
16.695141,-0.2565,-2.3765,-1.1822,-0.0487,1.1516,-0.0626,
16.697470,0.0974,-1.5028,-0.6740,-0.0487,1.1516,-0.0626,
16.732125,0.0974,-1.5028,-0.6740,0.3537,0.7285,0.0131,
16.760036,0.0974,-1.5028,-0.6740,0.3537,0.7285,0.0131,
16.761794,-0.0115,0.2722,0.7135,0.3537,0.7285,0.0131,
16.797550,-0.0115,0.2722,0.7135,-0.0574,0.4194,0.0525,
16.825818,-0.0115,0.2722,0.7135,-0.0574,0.4194,0.0525,
16.827464,1.9492,0.4589,2.4550,-0.0574,0.4194,0.0525,
16.862613,1.9492,0.4589,2.4550,0.0799,1.1112,0.0545,
16.893126,1.9492,0.4589,2.4550,0.0799,1.1112,0.0545,
16.894984,2.6949,-1.6053,1.2338,0.0799,1.1112,0.0545,
16.929570,2.6949,-1.6053,1.2338,0.3644,1.1768,0.1260,
16.957822,2.6949,-1.6053,1.2338,0.3644,1.1768,0.1260,
16.959788,-5.5635,5.9335,-2.7334,0.3644,1.1768,0.1260,
16.994383,-5.5635,5.9335,-2.7334,-0.0551,0.7149,-0.3125,
17.022806,-5.5635,5.9335,-2.7334,-0.0551,0.7149,-0.3125,
17.024401,2.7144,-3.2339,-3.2699,-0.0551,0.7149,-0.3125,
17.059671,2.7144,-3.2339,-3.2699,0.7286,0.9931,0.1495,
17.088674,2.7144,-3.2339,-3.2699,0.7286,0.9931,0.1495,
17.090371,0.4505,0.9335,-0.7962,0.7286,0.9931,0.1495,
17.125017,0.4505,0.9335,-0.7962,0.4045,0.2906,0.5586,
17.154804,0.4505,0.9335,-0.7962,0.4045,0.2906,0.5586,
17.156595,1.7005,-1.5168,-0.6880,0.4045,0.2906,0.5586,
17.190318,1.7005,-1.5168,-0.6880,0.5840,0.3433,0.3835,
17.220213,1.7005,-1.5168,-0.6880,0.5840,0.3433,0.3835,
17.221761,1.0305,-0.5482,-0.1226,0.5840,0.3433,0.3835,
17.255851,1.0305,-0.5482,-0.1226,0.4036,0.1080,0.0238,
17.284445,1.0305,-0.5482,-0.1226,0.4036,0.1080,0.0238,
17.285830,1.1030,-0.5118,0.2004,0.4036,0.1080,0.0238,
17.321210,1.1030,-0.5118,0.2004,0.3146,-0.0948,-0.1833,
17.351058,1.1030,-0.5118,0.2004,0.3146,-0.0948,-0.1833,
17.352891,2.0620,-0.4404,0.5581,0.3146,-0.0948,-0.1833,
17.387757,2.0620,-0.4404,0.5581,0.3381,-0.0531,-0.3149,
17.416440,2.0620,-0.4404,0.5581,0.3381,-0.0531,-0.3149,
17.418841,2.6266,0.1943,0.4305,0.3381,-0.0531,-0.3149,
17.452156,2.6266,0.1943,0.4305,0.1994,-0.0834,-0.1213,
17.480676,2.6266,0.1943,0.4305,0.1994,-0.0834,-0.1213,
17.482241,1.3125,1.6783,1.5502,0.1994,-0.0834,-0.1213,
17.517714,1.3125,1.6783,1.5502,-0.2419,-0.7231,0.3583,
17.546424,1.3125,1.6783,1.5502,-0.2419,-0.7231,0.3583,
17.548000,2.1513,3.2231,-3.0372,-0.2419,-0.7231,0.3583,
17.583493,2.1513,3.2231,-3.0372,-0.5875,-0.4294,0.7924,
17.612817,2.1513,3.2231,-3.0372,-0.5875,-0.4294,0.7924,
17.613949,-2.7111,0.5103,-2.4349,-0.5875,-0.4294,0.7924,
17.649332,-2.7111,0.5103,-2.4349,-1.0852,-0.2161,-0.1649,
17.677778,-2.7111,0.5103,-2.4349,-1.0852,-0.2161,-0.1649,
17.679564,1.5776,0.5773,-1.1375,-1.0852,-0.2161,-0.1649,
17.713997,1.5776,0.5773,-1.1375,-1.1593,0.5548,-0.1556,
17.742722,1.5776,0.5773,-1.1375,-1.1593,0.5548,-0.1556,
17.744627,0.0160,-0.9228,-0.6522,-1.1593,0.5548,-0.1556,
17.778714,0.0160,-0.9228,-0.6522,-0.7533,0.5841,-0.0421,
17.808178,0.0160,-0.9228,-0.6522,-0.7533,0.5841,-0.0421,
17.809636,-0.3109,-1.4965,-0.2536,-0.7533,0.5841,-0.0421,
17.844985,-0.3109,-1.4965,-0.2536,-0.3882,0.4346,0.0470,
17.873925,-0.3109,-1.4965,-0.2536,-0.3882,0.4346,0.0470,
17.875618,-0.0050,-2.1520,-0.0686,-0.3882,0.4346,0.0470,
17.910299,-0.0050,-2.1520,-0.0686,0.0567,0.5124,0.0015,
17.939599,-0.0050,-2.1520,-0.0686,0.0567,0.5124,0.0015,
17.941129,1.2788,-1.5807,0.5910,0.0567,0.5124,0.0015,
17.977472,1.2788,-1.5807,0.5910,0.4006,0.5884,0.0695,
18.004759,1.2788,-1.5807,0.5910,0.4006,0.5884,0.0695,
18.006303,1.0402,0.1482,1.1868,0.4006,0.5884,0.0695,
18.041649,1.0402,0.1482,1.1868,0.0958,0.6713,0.1109,
18.070614,1.0402,0.1482,1.1868,0.0958,0.6713,0.1109,
18.072265,0.8885,0.9080,2.7542,0.0958,0.6713,0.1109,
18.107729,0.8885,0.9080,2.7542,0.0565,0.8312,0.0449,
18.136219,0.8885,0.9080,2.7542,0.0565,0.8312,0.0449,
18.137730,2.3708,0.2780,1.1600,0.0565,0.8312,0.0449,
18.173012,2.3708,0.2780,1.1600,-0.0985,0.4875,-0.3412,
18.201581,2.3708,0.2780,1.1600,-0.0985,0.4875,-0.3412,
18.203586,-6.4869,3.9185,-2.8567,-0.0985,0.4875,-0.3412,
18.237925,-6.4869,3.9185,-2.8567,0.0541,0.4586,-0.1836,
18.266858,-6.4869,3.9185,-2.8567,0.0541,0.4586,-0.1836,
18.268325,1.4575,-4.1122,-2.8784,0.0541,0.4586,-0.1836,
18.303634,1.4575,-4.1122,-2.8784,0.9751,0.4873,-0.1657,
18.331827,1.4575,-4.1122,-2.8784,0.9751,0.4873,-0.1657,
18.333321,-0.9830,1.4121,-0.9840,0.9751,0.4873,-0.1657,
18.368791,-0.9830,1.4121,-0.9840,0.3343,-0.7466,0.4136,
18.397267,-0.9830,1.4121,-0.9840,0.3343,-0.7466,0.4136,
18.399106,1.2027,-0.9235,-0.9022,0.3343,-0.7466,0.4136,
18.433683,1.2027,-0.9235,-0.9022,0.4545,-0.3396,0.4169,
18.463097,1.2027,-0.9235,-0.9022,0.4545,-0.3396,0.4169,
18.464576,1.2274,-0.5071,0.7391,0.4545,-0.3396,0.4169,
18.499803,1.2274,-0.5071,0.7391,0.4658,-0.4033,0.1768,
18.529210,1.2274,-0.5071,0.7391,0.4658,-0.4033,0.1768,
18.531409,1.0017,-0.7269,0.3707,0.4658,-0.4033,0.1768,
18.565202,1.0017,-0.7269,0.3707,0.3183,-0.4155,-0.1967,
18.594938,1.0017,-0.7269,0.3707,0.3183,-0.4155,-0.1967,
18.596051,1.0121,-0.3370,0.4446,0.3183,-0.4155,-0.1967,
18.630924,1.0121,-0.3370,0.4446,0.2758,-0.6380,-0.2556,
18.659450,1.0121,-0.3370,0.4446,0.2758,-0.6380,-0.2556,
18.660684,1.6937,-0.1744,0.0646,0.2758,-0.6380,-0.2556,
18.695798,1.6937,-0.1744,0.0646,0.2578,-0.5924,0.0115,
18.725388,1.6937,-0.1744,0.0646,0.2578,-0.5924,0.0115,
18.726770,1.9627,1.0249,1.0466,0.2578,-0.5924,0.0115,
18.761602,1.9627,1.0249,1.0466,0.1350,-0.6807,0.4282,
18.790665,1.9627,1.0249,1.0466,0.1350,-0.6807,0.4282,
18.792129,2.1279,4.8783,-1.6396,0.1350,-0.6807,0.4282,
18.826864,2.1279,4.8783,-1.6396,-0.3807,-0.4919,0.6403,
18.856176,2.1279,4.8783,-1.6396,-0.3807,-0.4919,0.6403,
18.857672,-1.3951,-0.8810,-3.0943,-0.3807,-0.4919,0.6403,
18.892112,-1.3951,-0.8810,-3.0943,-1.1011,0.0501,-0.1416,
18.922678,-1.3951,-0.8810,-3.0943,-1.1011,0.0501,-0.1416,
18.924157,1.4373,-0.9813,-1.0968,-1.1011,0.0501,-0.1416,
18.958653,1.4373,-0.9813,-1.0968,-0.6988,1.0432,-0.1355,
18.987744,1.4373,-0.9813,-1.0968,-0.6988,1.0432,-0.1355,
18.989385,0.8419,0.1478,-0.4030,-0.6988,1.0432,-0.1355,
19.023568,0.8419,0.1478,-0.4030,-0.6903,1.3390,-0.0693,
19.054671,0.8419,0.1478,-0.4030,-0.6903,1.3390,-0.0693,
19.057387,0.2161,-0.8842,-0.7321,-0.6903,1.3390,-0.0693,
19.089359,0.2161,-0.8842,-0.7321,-0.1903,1.5391,-0.0619,
19.118930,0.2161,-0.8842,-0.7321,-0.1903,1.5391,-0.0619,
19.120578,-0.0619,-1.0882,0.2851,-0.1903,1.5391,-0.0619,
19.155148,-0.0619,-1.0882,0.2851,-0.2749,1.4508,0.1417,
19.183090,-0.0619,-1.0882,0.2851,-0.2749,1.4508,0.1417,
19.184906,0.8763,-0.9672,0.0271,-0.2749,1.4508,0.1417,
19.219320,0.8763,-0.9672,0.0271,0.0325,1.5104,0.1541,
19.249429,0.8763,-0.9672,0.0271,0.0325,1.5104,0.1541,
19.251378,0.4930,-0.2789,0.3796,0.0325,1.5104,0.1541,
19.285635,0.4930,-0.2789,0.3796,-0.0742,1.4775,0.0290,
19.315197,0.4930,-0.2789,0.3796,-0.0742,1.4775,0.0290,
19.316759,-0.3588,-0.2458,1.0191,-0.0742,1.4775,0.0290,
19.351575,-0.3588,-0.2458,1.0191,-0.1193,1.4212,0.0463,
19.380797,-0.3588,-0.2458,1.0191,-0.1193,1.4212,0.0463,
19.381927,1.7548,-0.4612,2.5717,-0.1193,1.4212,0.0463,
19.416272,1.7548,-0.4612,2.5717,-0.5179,1.8667,0.2779,
19.446758,1.7548,-0.4612,2.5717,-0.5179,1.8667,0.2779,
19.448208,0.9215,7.7598,-1.8675,-0.5179,1.8667,0.2779,
19.483451,0.9215,7.7598,-1.8675,-0.1176,1.2101,0.1523,
19.511760,0.9215,7.7598,-1.8675,-0.1176,1.2101,0.1523,
19.513490,1.4302,-5.2164,-2.3549,-0.1176,1.2101,0.1523,
19.548013,1.4302,-5.2164,-2.3549,1.3725,2.3468,0.0454,
19.576288,1.4302,-5.2164,-2.3549,1.3725,2.3468,0.0454,
19.577940,-0.7696,0.9032,-2.5802,1.3725,2.3468,0.0454,
19.613125,-0.7696,0.9032,-2.5802,0.3447,0.8354,-0.0237,
19.641613,-0.7696,0.9032,-2.5802,0.3447,0.8354,-0.0237,
19.642993,-1.3757,-0.2958,-0.6654,0.3447,0.8354,-0.0237,
19.678968,-1.3757,-0.2958,-0.6654,0.5605,-0.0973,0.4557,
19.708646,-1.3757,-0.2958,-0.6654,0.5605,-0.0973,0.4557,
19.710552,3.2184,0.1859,-0.4721,0.5605,-0.0973,0.4557,
19.743984,3.2184,0.1859,-0.4721,0.3348,0.4065,0.3204,
19.773490,3.2184,0.1859,-0.4721,0.3348,0.4065,0.3204,
19.775614,-0.0681,-0.6055,0.3202,0.3348,0.4065,0.3204,
19.809798,-0.0681,-0.6055,0.3202,0.3401,-0.1113,0.2871,
19.838440,-0.0681,-0.6055,0.3202,0.3401,-0.1113,0.2871,
19.840112,-0.2822,-0.5068,0.6776,0.3401,-0.1113,0.2871,
19.875765,-0.2822,-0.5068,0.6776,0.2775,-0.3792,-0.1539,
19.906002,-0.2822,-0.5068,0.6776,0.2775,-0.3792,-0.1539,
19.908087,2.0122,-0.4443,0.4402,0.2775,-0.3792,-0.1539,
19.940900,2.0122,-0.4443,0.4402,0.4455,-0.3149,-0.2868,
19.971349,2.0122,-0.4443,0.4402,0.4455,-0.3149,-0.2868,
19.972931,2.1995,0.7692,0.5337,0.4455,-0.3149,-0.2868,
20.007165,2.1995,0.7692,0.5337,0.4630,-0.4693,-0.1791,
20.035273,2.1995,0.7692,0.5337,0.4630,-0.4693,-0.1791,
20.037313,1.7395,2.2397,1.7317,0.4630,-0.4693,-0.1791,
20.072130,1.7395,2.2397,1.7317,-0.0551,-0.9458,-0.0029,
20.100032,1.7395,2.2397,1.7317,-0.0551,-0.9458,-0.0029,
20.101775,3.0140,2.7600,-0.3039,-0.0551,-0.9458,-0.0029,
20.135128,3.0140,2.7600,-0.3039,-0.5360,-0.2298,0.3760,
20.165194,3.0140,2.7600,-0.3039,-0.5360,-0.2298,0.3760,
20.166447,-0.1565,0.1479,-1.4590,-0.5360,-0.2298,0.3760,
20.202300,-0.1565,0.1479,-1.4590,-1.0153,-0.3056,0.1234,
20.230634,-0.1565,0.1479,-1.4590,-1.0153,-0.3056,0.1234,
20.231878,-0.6506,-0.7145,-0.4415,-1.0153,-0.3056,0.1234,
20.267004,-0.6506,-0.7145,-0.4415,-1.0701,0.1384,0.0793,
20.297950,-0.6506,-0.7145,-0.4415,-1.0701,0.1384,0.0793,
20.299206,0.8327,0.1274,0.0475,-1.0701,0.1384,0.0793,
20.333571,0.8327,0.1274,0.0475,-0.9271,0.5637,0.0014,
20.362788,0.8327,0.1274,0.0475,-0.9271,0.5637,0.0014,
20.363848,0.0194,-1.5136,0.0913,-0.9271,0.5637,0.0014,
20.397864,0.0194,-1.5136,0.0913,-0.4493,0.9421,0.1191,
20.427332,0.0194,-1.5136,0.0913,-0.4493,0.9421,0.1191,
20.429112,-0.2568,-1.4384,0.5542,-0.4493,0.9421,0.1191,
20.464197,-0.2568,-1.4384,0.5542,-0.2190,0.7689,0.2127,
20.492620,-0.2568,-1.4384,0.5542,-0.2190,0.7689,0.2127,
20.493538,0.1271,-1.5671,0.1752,-0.2190,0.7689,0.2127,
20.530217,0.1271,-1.5671,0.1752,0.1410,0.9035,0.1257,
20.558673,0.1271,-1.5671,0.1752,0.1410,0.9035,0.1257,
20.560520,0.1201,-0.4501,0.8306,0.1410,0.9035,0.1257,
20.594747,0.1201,-0.4501,0.8306,0.1130,0.8172,0.0869,
20.625104,0.1201,-0.4501,0.8306,0.1130,0.8172,0.0869,
20.626746,0.0564,0.4240,1.9853,0.1130,0.8172,0.0869,
20.660193,0.0564,0.4240,1.9853,0.0263,0.7419,0.0357,
20.688398,0.0564,0.4240,1.9853,0.0263,0.7419,0.0357,
20.689842,1.2033,-0.1495,2.7085,0.0263,0.7419,0.0357,
20.725611,1.2033,-0.1495,2.7085,0.1523,1.1229,0.0333,
20.754754,1.2033,-0.1495,2.7085,0.1523,1.1229,0.0333,
20.756348,-0.6971,3.5169,1.1878,0.1523,1.1229,0.0333,
20.790891,-0.6971,3.5169,1.1878,0.2624,-0.6495,-0.5591,
20.820542,-0.6971,3.5169,1.1878,0.2624,-0.6495,-0.5591,
20.821989,-2.9034,-0.2966,-0.8136,0.2624,-0.6495,-0.5591,
20.857224,-2.9034,-0.2966,-0.8136,-0.0238,0.5463,-0.0200,
20.884582,-2.9034,-0.2966,-0.8136,-0.0238,0.5463,-0.0200,
20.885596,2.2843,-2.5928,-3.3831,-0.0238,0.5463,-0.0200,
20.922613,2.2843,-2.5928,-3.3831,0.7292,0.5785,-0.1260,
20.951471,2.2843,-2.5928,-3.3831,0.7292,0.5785,-0.1260,
20.951983,-1.0815,0.1931,0.4291,0.7292,0.5785,-0.1260,
20.988392,-1.0815,0.1931,0.4291,0.5825,-0.3847,0.4815,
21.016397,-1.0815,0.1931,0.4291,0.5825,-0.3847,0.4815,
21.017954,0.2102,-0.4482,-0.2917,0.5825,-0.3847,0.4815,
21.053760,0.2102,-0.4482,-0.2917,0.2676,-0.6469,0.3826,
21.082442,0.2102,-0.4482,-0.2917,0.2676,-0.6469,0.3826,
21.083450,0.2248,-0.6418,0.3653,0.2676,-0.6469,0.3826,
21.120112,0.2248,-0.6418,0.3653,0.2815,-0.7537,0.2413,
21.147678,0.2248,-0.6418,0.3653,0.2815,-0.7537,0.2413,
21.149360,1.3843,-0.7878,0.4381,0.2815,-0.7537,0.2413,
21.183958,1.3843,-0.7878,0.4381,0.3088,-0.5913,-0.1376,
21.212670,1.3843,-0.7878,0.4381,0.3088,-0.5913,-0.1376,
21.214561,1.1941,-0.6116,0.5109,0.3088,-0.5913,-0.1376,
21.250601,1.1941,-0.6116,0.5109,0.5979,-0.4536,-0.2526,
21.279994,1.1941,-0.6116,0.5109,0.5979,-0.4536,-0.2526,
21.281633,1.0913,0.3900,0.1784,0.5979,-0.4536,-0.2526,
21.316159,1.0913,0.3900,0.1784,0.4820,-0.6776,-0.0602,
21.344643,1.0913,0.3900,0.1784,0.4820,-0.6776,-0.0602,
21.346661,0.8010,1.5886,1.4630,0.4820,-0.6776,-0.0602,
21.380724,0.8010,1.5886,1.4630,0.0932,-1.2912,0.3091,
21.409982,0.8010,1.5886,1.4630,0.0932,-1.2912,0.3091,
21.412000,2.7829,3.4940,-1.0339,0.0932,-1.2912,0.3091,
21.446080,2.7829,3.4940,-1.0339,-0.3826,-0.3457,0.6426,
21.476588,2.7829,3.4940,-1.0339,-0.3826,-0.3457,0.6426,
21.478474,-2.2529,-0.0622,-1.3187,-0.3826,-0.3457,0.6426,
21.511750,-2.2529,-0.0622,-1.3187,-1.0148,-1.0918,0.1258,
21.541329,-2.2529,-0.0622,-1.3187,-1.0148,-1.0918,0.1258,
21.543149,-0.9067,-0.9474,-0.7136,-1.0148,-1.0918,0.1258,
21.578619,-0.9067,-0.9474,-0.7136,-0.6310,-0.2505,-0.1210,
21.607116,-0.9067,-0.9474,-0.7136,-0.6310,-0.2505,-0.1210,
21.608865,0.1935,0.7103,0.4210,-0.6310,-0.2505,-0.1210,
21.646075,0.1935,0.7103,0.4210,-0.8945,-0.4230,-0.1011,
21.670614,0.1935,0.7103,0.4210,-0.8945,-0.4230,-0.1011,
21.671684,-0.3602,-1.5765,0.3036,-0.8945,-0.4230,-0.1011,
21.708994,-0.3602,-1.5765,0.3036,-0.3291,-0.0631,-0.0386,
21.738099,-0.3602,-1.5765,0.3036,-0.3291,-0.0631,-0.0386,
21.739839,-0.0216,-1.6417,0.9634,-0.3291,-0.0631,-0.0386,
21.773535,-0.0216,-1.6417,0.9634,-0.2155,-0.1211,0.0513,
21.802504,-0.0216,-1.6417,0.9634,-0.2155,-0.1211,0.0513,
21.804572,-0.0283,-1.0012,0.7558,-0.2155,-0.1211,0.0513,
21.839777,-0.0283,-1.0012,0.7558,0.1390,0.1555,-0.0805,
21.867903,-0.0283,-1.0012,0.7558,0.1390,0.1555,-0.0805,
21.869125,0.3613,0.1549,1.5929,0.1390,0.1555,-0.0805,
21.903964,0.3613,0.1549,1.5929,-0.1014,0.0825,-0.0111,
21.935956,0.3613,0.1549,1.5929,-0.1014,0.0825,-0.0111,
21.937897,-0.0514,0.1908,2.0049,-0.1014,0.0825,-0.0111,
21.970028,-0.0514,0.1908,2.0049,0.1255,0.2100,0.0131,
21.998347,-0.0514,0.1908,2.0049,0.1255,0.2100,0.0131,
21.998842,0.9768,-0.1458,2.2397,0.1255,0.2100,0.0131,
22.034967,0.9768,-0.1458,2.2397,-0.2633,0.1008,-0.1936,
22.064344,0.9768,-0.1458,2.2397,-0.2633,0.1008,-0.1936,
22.065889,-4.0412,2.6913,-2.3010,-0.2633,0.1008,-0.1936,
22.100909,-4.0412,2.6913,-2.3010,-0.0023,0.1484,-0.2170,
22.130512,-4.0412,2.6913,-2.3010,-0.0023,0.1484,-0.2170,
22.132857,0.0005,-3.0025,-2.1966,-0.0023,0.1484,-0.2170,
22.166491,0.0005,-3.0025,-2.1966,0.8338,0.1417,-0.4062,
22.195382,0.0005,-3.0025,-2.1966,0.8338,0.1417,-0.4062,
22.196850,-1.3677,0.8137,0.0156,0.8338,0.1417,-0.4062,
22.231630,-1.3677,0.8137,0.0156,0.5870,-1.0237,0.3584,
22.260480,-1.3677,0.8137,0.0156,0.5870,-1.0237,0.3584,
22.261973,0.3747,-0.1828,-0.6105,0.5870,-1.0237,0.3584,
22.296530,0.3747,-0.1828,-0.6105,0.4129,-0.9641,0.2712,
22.326406,0.3747,-0.1828,-0.6105,0.4129,-0.9641,0.2712,
22.327885,1.3124,-0.8167,0.8428,0.4129,-0.9641,0.2712,
22.363525,1.3124,-0.8167,0.8428,0.4417,-0.7120,0.0273,
22.392198,1.3124,-0.8167,0.8428,0.4417,-0.7120,0.0273,
22.393602,1.3900,-0.6987,1.4071,0.4417,-0.7120,0.0273,
22.429164,1.3900,-0.6987,1.4071,0.3771,-0.6051,-0.1875,
22.458533,1.3900,-0.6987,1.4071,0.3771,-0.6051,-0.1875,
22.459985,1.6107,-0.6151,0.9713,0.3771,-0.6051,-0.1875,
22.492774,1.6107,-0.6151,0.9713,0.4611,-0.4539,-0.2599,
22.523759,1.6107,-0.6151,0.9713,0.4611,-0.4539,-0.2599,
22.525238,1.5619,0.2249,0.6515,0.4611,-0.4539,-0.2599,
22.559629,1.5619,0.2249,0.6515,0.3532,-0.4804,0.0518,
22.589511,1.5619,0.2249,0.6515,0.3532,-0.4804,0.0518,
22.591545,1.8125,2.7107,1.3738,0.3532,-0.4804,0.0518,
22.624588,1.8125,2.7107,1.3738,-0.0728,-0.2990,0.5426,
22.654948,1.8125,2.7107,1.3738,-0.0728,-0.2990,0.5426,
22.656420,2.1968,3.6191,-1.3068,-0.0728,-0.2990,0.5426,
22.690664,2.1968,3.6191,-1.3068,-0.9226,-0.2734,0.2955,
22.719754,2.1968,3.6191,-1.3068,-0.9226,-0.2734,0.2955,
22.720891,-3.1753,-2.6162,-0.8527,-0.9226,-0.2734,0.2955,
22.755649,-3.1753,-2.6162,-0.8527,-0.7445,0.1843,-0.1043,
22.785083,-3.1753,-2.6162,-0.8527,-0.7445,0.1843,-0.1043,
22.785674,0.0304,1.0742,0.1503,-0.7445,0.1843,-0.1043,
22.821283,0.0304,1.0742,0.1503,-0.8146,0.2227,-0.2184,
22.850056,0.0304,1.0742,0.1503,-0.8146,0.2227,-0.2184,
22.850720,-0.0404,-0.7760,0.2550,-0.8146,0.2227,-0.2184,
22.887090,-0.0404,-0.7760,0.2550,-0.5279,0.4731,-0.1507,
22.915665,-0.0404,-0.7760,0.2550,-0.5279,0.4731,-0.1507,
22.917001,0.0833,-1.6561,0.4002,-0.5279,0.4731,-0.1507,
22.953039,0.0833,-1.6561,0.4002,-0.0735,0.5415,-0.1142,
22.980951,0.0833,-1.6561,0.4002,-0.0735,0.5415,-0.1142,
22.982554,-0.2818,-2.2254,0.9242,-0.0735,0.5415,-0.1142,
23.018352,-0.2818,-2.2254,0.9242,0.1727,0.4088,0.0136,
23.047733,-0.2818,-2.2254,0.9242,0.1727,0.4088,0.0136,
23.049347,-0.3063,-1.0968,0.8659,0.1727,0.4088,0.0136,
23.082788,-0.3063,-1.0968,0.8659,0.3647,0.4520,-0.0096,
23.111845,-0.3063,-1.0968,0.8659,0.3647,0.4520,-0.0096,
23.112834,0.4674,1.1632,2.1168,0.3647,0.4520,-0.0096,
23.148425,0.4674,1.1632,2.1168,-0.0473,0.3676,-0.0444,
23.177844,0.4674,1.1632,2.1168,-0.0473,0.3676,-0.0444,
23.179999,1.0470,0.4739,3.3448,-0.0473,0.3676,-0.0444,
23.213534,1.0470,0.4739,3.3448,-0.4494,1.0524,-0.0246,
23.243514,1.0470,0.4739,3.3448,-0.4494,1.0524,-0.0246,
23.245203,-1.8195,6.3878,0.3017,-0.4494,1.0524,-0.0246,
23.279852,-1.8195,6.3878,0.3017,0.2712,-0.4630,-0.3870,
23.308916,-1.8195,6.3878,0.3017,0.2712,-0.4630,-0.3870,
23.311069,-0.1382,-3.2444,-1.9309,0.2712,-0.4630,-0.3870,
23.344614,-0.1382,-3.2444,-1.9309,0.2135,0.5614,-0.2230,
23.374324,-0.1382,-3.2444,-1.9309,0.2135,0.5614,-0.2230,
23.375781,-0.5996,0.3574,-2.6561,0.2135,0.5614,-0.2230,
23.410444,-0.5996,0.3574,-2.6561,0.4087,-0.0565,0.2010,
23.439912,-0.5996,0.3574,-2.6561,0.4087,-0.0565,0.2010,
23.441753,0.6537,-0.4404,-0.6026,0.4087,-0.0565,0.2010,
23.476943,0.6537,-0.4404,-0.6026,0.7184,-0.3086,0.4771,
23.506588,0.6537,-0.4404,-0.6026,0.7184,-0.3086,0.4771,
23.507973,1.5793,-0.8171,-0.4711,0.7184,-0.3086,0.4771,
23.541947,1.5793,-0.8171,-0.4711,0.3135,-0.4326,0.2217,
23.570529,1.5793,-0.8171,-0.4711,0.3135,-0.4326,0.2217,
23.571829,0.4910,-0.9124,0.0960,0.3135,-0.4326,0.2217,
23.608176,0.4910,-0.9124,0.0960,0.4904,-0.6194,-0.0588,
23.636131,0.4910,-0.9124,0.0960,0.4904,-0.6194,-0.0588,
23.637259,1.6357,-0.5283,0.6391,0.4904,-0.6194,-0.0588,
23.673266,1.6357,-0.5283,0.6391,0.4519,-0.5754,-0.3737,
23.702092,1.6357,-0.5283,0.6391,0.4519,-0.5754,-0.3737,
23.704016,1.8957,0.8336,0.4064,0.4519,-0.5754,-0.3737,
23.737256,1.8957,0.8336,0.4064,0.1367,-0.7085,-0.2248,
23.766921,1.8957,0.8336,0.4064,0.1367,-0.7085,-0.2248,
23.768646,1.8844,1.5855,0.7152,0.1367,-0.7085,-0.2248,
23.802697,1.8844,1.5855,0.7152,-0.1431,-0.4380,0.4797,
23.832083,1.8844,1.5855,0.7152,-0.1431,-0.4380,0.4797,
23.833796,2.2972,3.3023,-2.2652,-0.1431,-0.4380,0.4797,
23.868787,2.2972,3.3023,-2.2652,-0.8189,-0.5692,0.6374,
23.897399,2.2972,3.3023,-2.2652,-0.8189,-0.5692,0.6374,
23.899262,-2.9122,-1.3009,-0.8360,-0.8189,-0.5692,0.6374,
23.934815,-2.9122,-1.3009,-0.8360,-0.8505,0.4200,-0.0310,
23.963520,-2.9122,-1.3009,-0.8360,-0.8505,0.4200,-0.0310,
23.965596,2.0184,0.0699,-0.0398,-0.8505,0.4200,-0.0310,
23.999904,2.0184,0.0699,-0.0398,-0.6368,0.9081,-0.0589,
24.028100,2.0184,0.0699,-0.0398,-0.6368,0.9081,-0.0589,
24.029327,0.9372,-1.9418,-0.5356,-0.6368,0.9081,-0.0589,
24.065557,0.9372,-1.9418,-0.5356,-0.3293,1.7211,0.0359,
24.094319,0.9372,-1.9418,-0.5356,-0.3293,1.7211,0.0359,
24.096111,1.1931,-0.0618,-0.4016,-0.3293,1.7211,0.0359,
24.130749,1.1931,-0.0618,-0.4016,-0.3477,1.9384,0.1365,
24.159873,1.1931,-0.0618,-0.4016,-0.3477,1.9384,0.1365,
24.161632,0.0991,-0.8159,-0.3786,-0.3477,1.9384,0.1365,
24.196031,0.0991,-0.8159,-0.3786,-0.2034,1.5388,0.1506,
24.226660,0.0991,-0.8159,-0.3786,-0.2034,1.5388,0.1506,
24.228190,-0.0317,-0.6467,-0.1928,-0.2034,1.5388,0.1506,
24.262682,-0.0317,-0.6467,-0.1928,0.0090,1.4859,-0.0211,
24.291356,-0.0317,-0.6467,-0.1928,0.0090,1.4859,-0.0211,
24.292437,0.4038,-0.1723,0.8200,0.0090,1.4859,-0.0211,
24.328214,0.4038,-0.1723,0.8200,-0.1962,1.5985,0.0875,
24.357310,0.4038,-0.1723,0.8200,-0.1962,1.5985,0.0875,
24.358599,2.8640,-0.6500,2.2138,-0.1962,1.5985,0.0875,
24.394264,2.8640,-0.6500,2.2138,0.0803,1.9485,0.4380,
24.423085,2.8640,-0.6500,2.2138,0.0803,1.9485,0.4380,
24.424852,-0.1863,4.9575,-3.4052,0.0803,1.9485,0.4380,
24.458622,-0.1863,4.9575,-3.4052,0.2955,2.3593,-0.8676,
24.488702,-0.1863,4.9575,-3.4052,0.2955,2.3593,-0.8676,
24.490441,-1.0780,-2.9104,-1.6560,0.2955,2.3593,-0.8676,
24.524985,-1.0780,-2.9104,-1.6560,0.4722,1.9177,-0.0661,
24.554256,-1.0780,-2.9104,-1.6560,0.4722,1.9177,-0.0661,
24.555932,-0.0554,1.7868,-0.1227,0.4722,1.9177,-0.0661,
24.590106,-0.0554,1.7868,-0.1227,0.3193,0.7366,0.6266,
24.617923,-0.0554,1.7868,-0.1227,0.3193,0.7366,0.6266,
24.618787,1.7098,-1.1040,-0.7988,0.3193,0.7366,0.6266,
24.655441,1.7098,-1.1040,-0.7988,0.3587,1.2604,0.2604,
24.683641,1.7098,-1.1040,-0.7988,0.3587,1.2604,0.2604,
24.684164,-0.3610,-1.3155,0.5859,0.3587,1.2604,0.2604,
24.719607,-0.3610,-1.3155,0.5859,0.3627,0.4933,-0.0032,
24.749381,-0.3610,-1.3155,0.5859,0.3627,0.4933,-0.0032,
24.750858,0.2698,-0.3685,0.6850,0.3627,0.4933,-0.0032,
24.785326,0.2698,-0.3685,0.6850,0.2283,0.0421,-0.1946,
24.814107,0.2698,-0.3685,0.6850,0.2283,0.0421,-0.1946,
24.815818,1.4355,-0.7553,0.3600,0.2283,0.0421,-0.1946,
24.850585,1.4355,-0.7553,0.3600,0.4656,-0.1414,-0.2430,
24.879270,1.4355,-0.7553,0.3600,0.4656,-0.1414,-0.2430,
24.880887,3.5106,1.6196,0.5448,0.4656,-0.1414,-0.2430,
24.916221,3.5106,1.6196,0.5448,0.3131,0.0878,0.1341,
24.946663,3.5106,1.6196,0.5448,0.3131,0.0878,0.1341,
24.948842,3.0541,4.5911,-1.7276,0.3131,0.0878,0.1341,
24.980952,3.0541,4.5911,-1.7276,-0.3383,0.5018,0.5867,
25.010859,3.0541,4.5911,-1.7276,-0.3383,0.5018,0.5867,
25.012741,-1.0368,0.4781,-1.7580,-0.3383,0.5018,0.5867,
25.046638,-1.0368,0.4781,-1.7580,-1.2205,0.0812,-0.0559,
25.076589,-1.0368,0.4781,-1.7580,-1.2205,0.0812,-0.0559,
25.078758,-0.8391,-1.8978,-0.8392,-1.2205,0.0812,-0.0559,
25.112811,-0.8391,-1.8978,-0.8392,-0.9568,0.9157,-0.0615,
25.141951,-0.8391,-1.8978,-0.8392,-0.9568,0.9157,-0.0615,
25.143751,0.6187,0.5375,-0.3052,-0.9568,0.9157,-0.0615,
25.179248,0.6187,0.5375,-0.3052,-0.8259,1.0852,0.0038,
25.208694,0.6187,0.5375,-0.3052,-0.8259,1.0852,0.0038,
25.210482,-0.1696,-1.1632,0.1513,-0.8259,1.0852,0.0038,
25.243113,-0.1696,-1.1632,0.1513,-0.4076,1.3674,0.0547,
25.273692,-0.1696,-1.1632,0.1513,-0.4076,1.3674,0.0547,
25.275284,-0.0784,-1.0557,0.3778,-0.4076,1.3674,0.0547,
25.309363,-0.0784,-1.0557,0.3778,-0.2676,1.3818,0.1521,
25.338260,-0.0784,-1.0557,0.3778,-0.2676,1.3818,0.1521,
25.339769,-0.2540,-1.9646,-0.1203,-0.2676,1.3818,0.1521,
25.374799,-0.2540,-1.9646,-0.1203,0.2208,1.2934,0.1371,
25.403846,-0.2540,-1.9646,-0.1203,0.2208,1.2934,0.1371,
25.405333,-0.9691,-0.0772,0.9898,0.2208,1.2934,0.1371,
25.441389,-0.9691,-0.0772,0.9898,-0.0373,0.9007,0.1292,
25.469011,-0.9691,-0.0772,0.9898,-0.0373,0.9007,0.1292,
25.470424,-0.0848,0.3550,2.1513,-0.0373,0.9007,0.1292,
25.506277,-0.0848,0.3550,2.1513,-0.0869,1.0467,0.2101,
25.534429,-0.0848,0.3550,2.1513,-0.0869,1.0467,0.2101,
25.534982,2.0755,3.6041,1.3872,-0.0869,1.0467,0.2101,
25.570850,2.0755,3.6041,1.3872,-0.2621,0.3167,-0.2592,
25.600369,2.0755,3.6041,1.3872,-0.2621,0.3167,-0.2592,
25.600896,-2.1718,-0.0701,-2.2782,-0.2621,0.3167,-0.2592,
25.636394,-2.1718,-0.0701,-2.2782,0.4317,1.8506,-0.2141,
25.666074,-2.1718,-0.0701,-2.2782,0.4317,1.8506,-0.2141,
25.666608,0.8355,-3.1632,-3.1203,0.4317,1.8506,-0.2141,
25.703137,0.8355,-3.1632,-3.1203,0.7662,0.8873,0.0368,
25.731280,0.8355,-3.1632,-3.1203,0.7662,0.8873,0.0368,
25.733148,-1.6771,0.9582,-0.5900,0.7662,0.8873,0.0368,
25.768761,-1.6771,0.9582,-0.5900,0.4556,-0.4296,0.4762,
25.797697,-1.6771,0.9582,-0.5900,0.4556,-0.4296,0.4762,
25.799435,1.9568,-1.2176,-0.3683,0.4556,-0.4296,0.4762,
25.833159,1.9568,-1.2176,-0.3683,0.5505,0.1391,0.2246,
25.862867,1.9568,-1.2176,-0.3683,0.5505,0.1391,0.2246,
25.864441,-0.3566,-0.3591,0.2860,0.5505,0.1391,0.2246,
25.898208,-0.3566,-0.3591,0.2860,0.5099,-0.2625,0.0367,
25.928054,-0.3566,-0.3591,0.2860,0.5099,-0.2625,0.0367,
25.929547,0.2819,-0.2736,0.1345,0.5099,-0.2625,0.0367,
25.964467,0.2819,-0.2736,0.1345,0.2859,-0.4832,-0.2616,
25.994089,0.2819,-0.2736,0.1345,0.2859,-0.4832,-0.2616,
25.996198,1.3849,-0.1279,0.1767,0.2859,-0.4832,-0.2616,
26.028946,1.3849,-0.1279,0.1767,0.3089,-0.3051,-0.1978,
26.058732,1.3849,-0.1279,0.1767,0.3089,-0.3051,-0.1978,
26.060563,1.7776,1.0836,1.0357,0.3089,-0.3051,-0.1978,
26.094789,1.7776,1.0836,1.0357,0.0441,-0.3638,0.0796,
26.123912,1.7776,1.0836,1.0357,0.0441,-0.3638,0.0796,
26.125375,1.8754,1.3153,0.6486,0.0441,-0.3638,0.0796,
26.159562,1.8754,1.3153,0.6486,-0.2405,0.2960,0.6455,
26.188654,1.8754,1.3153,0.6486,-0.2405,0.2960,0.6455,
26.190052,0.2935,2.0192,-1.9333,-0.2405,0.2960,0.6455,
26.225168,0.2935,2.0192,-1.9333,-1.1532,-0.5350,0.2793,
26.255719,0.2935,2.0192,-1.9333,-1.1532,-0.5350,0.2793,
26.256259,-2.0410,-1.5208,-0.4137,-1.1532,-0.5350,0.2793,
26.291496,-2.0410,-1.5208,-0.4137,-0.8741,0.6745,-0.0067,
26.321085,-2.0410,-1.5208,-0.4137,-0.8741,0.6745,-0.0067,
26.321575,1.5923,1.4538,-0.7612,-0.8741,0.6745,-0.0067,
26.356227,1.5923,1.4538,-0.7612,-0.9374,1.0756,-0.3209,
26.385681,1.5923,1.4538,-0.7612,-0.9374,1.0756,-0.3209,
26.386249,-0.7866,-1.0660,-0.1330,-0.9374,1.0756,-0.3209,
26.422865,-0.7866,-1.0660,-0.1330,-0.6115,1.2588,-0.1054,
26.450899,-0.7866,-1.0660,-0.1330,-0.6115,1.2588,-0.1054,
26.451971,-0.6093,-1.7730,-0.3138,-0.6115,1.2588,-0.1054,
26.487464,-0.6093,-1.7730,-0.3138,-0.2618,1.2283,0.1103,
26.517213,-0.6093,-1.7730,-0.3138,-0.2618,1.2283,0.1103,
26.519084,-0.4978,-2.0329,-0.4118,-0.2618,1.2283,0.1103,
26.553743,-0.4978,-2.0329,-0.4118,0.1461,1.1510,0.1483,
26.582764,-0.4978,-2.0329,-0.4118,0.1461,1.1510,0.1483,
26.583379,-0.7283,-0.7582,0.4261,0.1461,1.1510,0.1483,
26.619368,-0.7283,-0.7582,0.4261,0.2370,0.8352,0.0634,
26.647151,-0.7283,-0.7582,0.4261,0.2370,0.8352,0.0634,
26.648034,0.1367,0.5917,1.6500,0.2370,0.8352,0.0634,
26.685031,0.1367,0.5917,1.6500,-0.0380,0.7335,0.0910,
26.712951,0.1367,0.5917,1.6500,-0.0380,0.7335,0.0910,
26.714773,1.8228,0.4733,2.6018,-0.0380,0.7335,0.0910,
26.749688,1.8228,0.4733,2.6018,-0.4491,1.2645,0.2949,
26.778698,1.8228,0.4733,2.6018,-0.4491,1.2645,0.2949,
26.780199,-1.5692,6.5860,0.1990,-0.4491,1.2645,0.2949,
26.816239,-1.5692,6.5860,0.1990,0.3728,0.3978,-0.2949,
26.844451,-1.5692,6.5860,0.1990,0.3728,0.3978,-0.2949,
26.845921,-0.0293,-3.8187,-2.2996,0.3728,0.3978,-0.2949,
26.881455,-0.0293,-3.8187,-2.2996,0.3085,1.1135,-0.4084,
26.909315,-0.0293,-3.8187,-2.2996,0.3085,1.1135,-0.4084,
26.910987,-3.4102,0.9335,-2.8743,0.3085,1.1135,-0.4084,
26.945928,-3.4102,0.9335,-2.8743,0.3888,-0.1785,0.4458,
26.975302,-3.4102,0.9335,-2.8743,0.3888,-0.1785,0.4458,
26.977266,-0.8046,-0.8253,-0.7497,0.3888,-0.1785,0.4458,
27.011253,-0.8046,-0.8253,-0.7497,0.6125,-0.2834,0.6052,
27.039888,-0.8046,-0.8253,-0.7497,0.6125,-0.2834,0.6052,
27.042208,0.9060,-0.9332,0.5210,0.6125,-0.2834,0.6052,
27.077251,0.9060,-0.9332,0.5210,0.2483,-0.4875,0.2870,
27.107144,0.9060,-0.9332,0.5210,0.2483,-0.4875,0.2870,
27.108818,0.5733,-1.2564,0.6945,0.2483,-0.4875,0.2870,
27.143737,0.5733,-1.2564,0.6945,0.5102,-0.4586,-0.0069,
27.171573,0.5733,-1.2564,0.6945,0.5102,-0.4586,-0.0069,
27.173932,0.7371,-0.6671,0.2259,0.5102,-0.4586,-0.0069,
27.208467,0.7371,-0.6671,0.2259,0.4881,-0.4669,-0.2248,
27.237222,0.7371,-0.6671,0.2259,0.4881,-0.4669,-0.2248,
27.238898,0.7033,-0.2221,0.0452,0.4881,-0.4669,-0.2248,
27.273428,0.7033,-0.2221,0.0452,0.4731,-0.5079,-0.0037,
27.302542,0.7033,-0.2221,0.0452,0.4731,-0.5079,-0.0037,
27.304347,1.7958,2.7944,0.8324,0.4731,-0.5079,-0.0037,
27.339337,1.7958,2.7944,0.8324,0.0706,-0.8181,0.2349,
27.368650,1.7958,2.7944,0.8324,0.0706,-0.8181,0.2349,
27.369991,1.0514,1.6283,0.7802,0.0706,-0.8181,0.2349,
27.404887,1.0514,1.6283,0.7802,-0.2279,-0.2005,0.5145,
27.433789,1.0514,1.6283,0.7802,-0.2279,-0.2005,0.5145,
27.435628,0.0310,0.8880,-2.6020,-0.2279,-0.2005,0.5145,
27.470378,0.0310,0.8880,-2.6020,-1.2014,-0.8496,0.2303,
27.498618,0.0310,0.8880,-2.6020,-1.2014,-0.8496,0.2303,
27.499790,-4.2394,-0.8091,-0.0450,-1.2014,-0.8496,0.2303,
27.536539,-4.2394,-0.8091,-0.0450,-0.9406,-0.3393,0.0295,
27.564300,-4.2394,-0.8091,-0.0450,-0.9406,-0.3393,0.0295,
27.565858,1.1040,0.6018,-0.3401,-0.9406,-0.3393,0.0295,
27.601065,1.1040,0.6018,-0.3401,-1.0653,0.1819,-0.1634,
27.630334,1.1040,0.6018,-0.3401,-1.0653,0.1819,-0.1634,
27.631894,-1.0487,-1.3998,0.1352,-1.0653,0.1819,-0.1634,
27.667032,-1.0487,-1.3998,0.1352,-0.4565,0.2960,-0.1075,
27.697499,-1.0487,-1.3998,0.1352,-0.4565,0.2960,-0.1075,
27.699743,-1.0453,-2.2497,0.5484,-0.4565,0.2960,-0.1075,
27.734510,-1.0453,-2.2497,0.5484,-0.1009,0.2550,0.0356,
27.761852,-1.0453,-2.2497,0.5484,-0.1009,0.2550,0.0356,
27.763382,-0.4252,-2.0431,0.4241,-0.1009,0.2550,0.0356,
27.797194,-0.4252,-2.0431,0.4241,0.2326,0.3945,0.0087,
27.825598,-0.4252,-2.0431,0.4241,0.2326,0.3945,0.0087,
27.826874,-0.3005,-0.4535,0.9622,0.2326,0.3945,0.0087,
27.863074,-0.3005,-0.4535,0.9622,0.1434,0.3910,0.0049,
27.891908,-0.3005,-0.4535,0.9622,0.1434,0.3910,0.0049,
27.893130,0.0820,0.9387,2.1949,0.1434,0.3910,0.0049,
27.929421,0.0820,0.9387,2.1949,0.1741,0.5406,-0.0573,
27.957661,0.0820,0.9387,2.1949,0.1741,0.5406,-0.0573,
27.958955,1.0365,-0.0997,3.0359,0.1741,0.5406,-0.0573,
27.994324,1.0365,-0.0997,3.0359,-0.4320,1.2544,-0.1669,
28.022557,1.0365,-0.0997,3.0359,-0.4320,1.2544,-0.1669,
28.024403,-3.7036,6.9600,0.3846,-0.4320,1.2544,-0.1669,
28.060748,-3.7036,6.9600,0.3846,0.6547,0.2585,-0.2457,
28.087876,-3.7036,6.9600,0.3846,0.6547,0.2585,-0.2457,
28.089464,0.2811,-4.3360,-2.6158,0.6547,0.2585,-0.2457,
28.124894,0.2811,-4.3360,-2.6158,0.6420,1.2023,-0.4187,
28.155095,0.2811,-4.3360,-2.6158,0.6420,1.2023,-0.4187,
28.156794,-2.9725,1.5721,-3.8143,0.6420,1.2023,-0.4187,
28.191855,-2.9725,1.5721,-3.8143,0.0547,-0.4192,0.4742,
28.219527,-2.9725,1.5721,-3.8143,0.0547,-0.4192,0.4742,
28.221170,0.1854,-0.8300,-1.3068,0.0547,-0.4192,0.4742,
28.255279,0.1854,-0.8300,-1.3068,0.5321,-0.0229,0.5461,
28.284414,0.1854,-0.8300,-1.3068,0.5321,-0.0229,0.5461,
28.285452,0.7862,-1.1887,-0.1833,0.5321,-0.0229,0.5461,
28.320914,0.7862,-1.1887,-0.1833,0.2987,-0.3118,0.0695,
28.350078,0.7862,-1.1887,-0.1833,0.2987,-0.3118,0.0695,
28.351876,0.7630,-0.8499,0.0003,0.2987,-0.3118,0.0695,
28.386643,0.7630,-0.8499,0.0003,0.3300,-0.4171,-0.0796,
28.415093,0.7630,-0.8499,0.0003,0.3300,-0.4171,-0.0796,
28.416656,0.8556,-0.9013,0.1995,0.3300,-0.4171,-0.0796,
28.451879,0.8556,-0.9013,0.1995,0.3459,-0.4339,-0.3571,
28.480395,0.8556,-0.9013,0.1995,0.3459,-0.4339,-0.3571,
28.481432,0.9407,0.0445,0.6990,0.3459,-0.4339,-0.3571,
28.517251,0.9407,0.0445,0.6990,0.5359,-0.6223,-0.1886,
28.546017,0.9407,0.0445,0.6990,0.5359,-0.6223,-0.1886,
28.547766,2.2906,1.7907,0.7253,0.5359,-0.6223,-0.1886,
28.582607,2.2906,1.7907,0.7253,0.2796,-0.4936,0.2891,
28.611402,2.2906,1.7907,0.7253,0.2796,-0.4936,0.2891,
28.612925,1.5672,3.6786,-1.3151,0.2796,-0.4936,0.2891,
28.647766,1.5672,3.6786,-1.3151,-0.2300,0.3577,0.6712,
28.677170,1.5672,3.6786,-1.3151,-0.2300,0.3577,0.6712,
28.678894,-3.2065,0.6791,-2.5932,-0.2300,0.3577,0.6712,
28.713438,-3.2065,0.6791,-2.5932,-1.1849,-0.4216,0.0492,
28.742812,-3.2065,0.6791,-2.5932,-1.1849,-0.4216,0.0492,
28.744535,-0.7198,-0.3971,-1.1390,-1.1849,-0.4216,0.0492,
28.778532,-0.7198,-0.3971,-1.1390,-1.0276,-0.0899,-0.1619,
28.808246,-0.7198,-0.3971,-1.1390,-1.0276,-0.0899,-0.1619,
28.809275,0.4212,-1.1013,-0.0227,-1.0276,-0.0899,-0.1619,
28.844592,0.4212,-1.1013,-0.0227,-0.7556,0.4979,-0.0505,
28.874370,0.4212,-1.1013,-0.0227,-0.7556,0.4979,-0.0505,
28.875483,-0.4443,-1.6291,0.2106,-0.7556,0.4979,-0.0505,
28.910051,-0.4443,-1.6291,0.2106,-0.2616,0.6674,0.0197,
28.940219,-0.4443,-1.6291,0.2106,-0.2616,0.6674,0.0197,
28.941202,-1.0022,-1.7334,0.7405,-0.2616,0.6674,0.0197,
28.975853,-1.0022,-1.7334,0.7405,-0.0823,0.3916,0.2275,
29.004204,-1.0022,-1.7334,0.7405,-0.0823,0.3916,0.2275,
29.005609,-0.4899,-2.1913,0.3226,-0.0823,0.3916,0.2275,
29.042884,-0.4899,-2.1913,0.3226,0.3980,0.5771,0.1203,
29.069744,-0.4899,-2.1913,0.3226,0.3980,0.5771,0.1203,
29.071314,-0.4213,0.2445,1.0129,0.3980,0.5771,0.1203,
29.106624,-0.4213,0.2445,1.0129,-0.0252,0.4601,0.0773,
29.135385,-0.4213,0.2445,1.0129,-0.0252,0.4601,0.0773,
29.136887,0.6236,0.6972,2.5896,-0.0252,0.4601,0.0773,
29.171931,0.6236,0.6972,2.5896,0.1877,1.0325,0.0276,
29.200957,0.6236,0.6972,2.5896,0.1877,1.0325,0.0276,
29.202489,1.2690,1.4248,0.5986,0.1877,1.0325,0.0276,
29.237141,1.2690,1.4248,0.5986,-0.4446,0.6828,-0.5139,
29.266274,1.2690,1.4248,0.5986,-0.4446,0.6828,-0.5139,
29.267201,-7.2208,2.4226,-1.0270,-0.4446,0.6828,-0.5139,
29.302469,-7.2208,2.4226,-1.0270,0.1049,0.7332,-0.1434,
29.331818,-7.2208,2.4226,-1.0270,0.1049,0.7332,-0.1434,
29.333257,1.6535,-4.9873,-2.7890,0.1049,0.7332,-0.1434,
29.368256,1.6535,-4.9873,-2.7890,1.0079,0.7596,-0.5053,
29.396551,1.6535,-4.9873,-2.7890,1.0079,0.7596,-0.5053,
29.397510,-2.2599,1.8378,0.0130,1.0079,0.7596,-0.5053,
29.433932,-2.2599,1.8378,0.0130,0.1669,-0.7776,0.5075,
29.463305,-2.2599,1.8378,0.0130,0.1669,-0.7776,0.5075,
29.464719,-0.0169,-1.5096,-1.2685,0.1669,-0.7776,0.5075,
29.499622,-0.0169,-1.5096,-1.2685,0.5867,-0.2442,0.3387,
29.528618,-0.0169,-1.5096,-1.2685,0.5867,-0.2442,0.3387,
29.529979,0.2502,-0.5714,-0.5408,0.5867,-0.2442,0.3387,
29.565113,0.2502,-0.5714,-0.5408,0.3960,-0.3059,0.1150,
29.594740,0.2502,-0.5714,-0.5408,0.3960,-0.3059,0.1150,
29.596734,0.3872,-0.8039,0.0938,0.3960,-0.3059,0.1150,
29.630695,0.3872,-0.8039,0.0938,0.4797,-0.4655,-0.0476,
29.660911,0.3872,-0.8039,0.0938,0.4797,-0.4655,-0.0476,
29.662725,0.3459,-0.5052,0.3062,0.4797,-0.4655,-0.0476,
29.698737,0.3459,-0.5052,0.3062,0.5684,-0.5353,-0.2019,
29.725837,0.3459,-0.5052,0.3062,0.5684,-0.5353,-0.2019,
29.726643,1.0962,1.0324,0.1174,0.5684,-0.5353,-0.2019,
29.760256,1.0962,1.0324,0.1174,0.3328,-0.6164,0.0738,
29.791530,1.0962,1.0324,0.1174,0.3328,-0.6164,0.0738,
29.792118,1.0577,1.6556,1.8837,0.3328,-0.6164,0.0738,
29.828161,1.0577,1.6556,1.8837,0.0359,-0.7060,0.4895,
29.857644,1.0577,1.6556,1.8837,0.0359,-0.7060,0.4895,
29.858361,1.5183,3.2669,-2.0162,0.0359,-0.7060,0.4895,
29.893330,1.5183,3.2669,-2.0162,-0.8993,-0.6150,0.4261,
29.922728,1.5183,3.2669,-2.0162,-0.8993,-0.6150,0.4261,
29.923715,-4.2634,-1.1760,-0.0000,-0.8993,-0.6150,0.4261,
29.958444,-4.2634,-1.1760,-0.0000,-0.9224,-0.3002,0.0040,
29.986914,-4.2634,-1.1760,-0.0000,-0.9224,-0.3002,0.0040,
29.987625,1.3514,1.0769,-0.1996,-0.9224,-0.3002,0.0040,
30.025119,1.3514,1.0769,-0.1996,-1.0435,0.4244,-0.3702,
30.052039,1.3514,1.0769,-0.1996,-1.0435,0.4244,-0.3702,
30.052708,-0.8527,-1.0067,0.3857,-1.0435,0.4244,-0.3702,
30.088588,-0.8527,-1.0067,0.3857,-0.7280,0.4762,-0.0997,
30.118303,-0.8527,-1.0067,0.3857,-0.7280,0.4762,-0.0997,
30.119751,-0.8254,-2.3712,-0.0176,-0.7280,0.4762,-0.0997,
30.154889,-0.8254,-2.3712,-0.0176,-0.2529,0.4019,-0.0411,
30.184669,-0.8254,-2.3712,-0.0176,-0.2529,0.4019,-0.0411,
30.186612,-0.9640,-2.1503,0.7571,-0.2529,0.4019,-0.0411,
30.220909,-0.9640,-2.1503,0.7571,-0.1174,0.0663,0.2146,
30.249787,-0.9640,-2.1503,0.7571,-0.1174,0.0663,0.2146,
30.251361,-0.1010,-2.0202,0.5494,-0.1174,0.0663,0.2146,
30.285915,-0.1010,-2.0202,0.5494,0.3932,0.5058,0.0623,
30.314736,-0.1010,-2.0202,0.5494,0.3932,0.5058,0.0623,
30.315833,-0.1331,1.0608,1.5808,0.3932,0.5058,0.0623,
30.350713,-0.1331,1.0608,1.5808,-0.2217,0.4783,0.0243,
30.380259,-0.1331,1.0608,1.5808,-0.2217,0.4783,0.0243,
30.381712,0.0820,0.8562,2.6013,-0.2217,0.4783,0.0243,
30.418616,0.0820,0.8562,2.6013,-1.0224,1.0446,0.1874,
30.445354,0.0820,0.8562,2.6013,-1.0224,1.0446,0.1874,
30.447236,-2.1134,5.6008,0.1848,-1.0224,1.0446,0.1874,
30.482011,-2.1134,5.6008,0.1848,0.0440,0.1619,0.1874,
30.511808,-2.1134,5.6008,0.1848,0.0440,0.1619,0.1874,
30.513551,0.4182,-2.6296,-1.8857,0.0440,0.1619,0.1874,
30.547873,0.4182,-2.6296,-1.8857,0.6907,0.6912,-0.3816,
30.576020,0.4182,-2.6296,-1.8857,0.6907,0.6912,-0.3816,
30.577432,-0.9950,1.1273,-2.5777,0.6907,0.6912,-0.3816,
30.613224,-0.9950,1.1273,-2.5777,0.5085,0.3740,0.3210,
30.643366,-0.9950,1.1273,-2.5777,0.5085,0.3740,0.3210,
30.645103,0.2628,-1.1927,-0.8976,0.5085,0.3740,0.3210,
30.678291,0.2628,-1.1927,-0.8976,0.8062,0.2277,0.3091,
30.707802,0.2628,-1.1927,-0.8976,0.8062,0.2277,0.3091,
30.709199,0.8886,-1.6159,-0.1736,0.8062,0.2277,0.3091,
30.744379,0.8886,-1.6159,-0.1736,0.4727,0.2140,-0.0657,
30.773696,0.8886,-1.6159,-0.1736,0.4727,0.2140,-0.0657,
30.775117,0.3334,-0.7917,-0.0179,0.4727,0.2140,-0.0657,
30.809585,0.3334,-0.7917,-0.0179,0.5247,-0.0151,-0.1839,
30.838097,0.3334,-0.7917,-0.0179,0.5247,-0.0151,-0.1839,
30.839421,0.4344,-0.6283,0.4800,0.5247,-0.0151,-0.1839,
30.875544,0.4344,-0.6283,0.4800,0.5727,-0.2593,-0.3219,
30.904788,0.4344,-0.6283,0.4800,0.5727,-0.2593,-0.3219,
30.906513,1.8058,0.2791,-0.3126,0.5727,-0.2593,-0.3219,
30.941121,1.8058,0.2791,-0.3126,0.5747,0.0710,-0.2607,
30.970040,1.8058,0.2791,-0.3126,0.5747,0.0710,-0.2607,
30.971846,1.5828,2.3127,1.4750,0.5747,0.0710,-0.2607,
31.005935,1.5828,2.3127,1.4750,0.2799,-0.3077,0.3190,
31.034224,1.5828,2.3127,1.4750,0.2799,-0.3077,0.3190,
31.035991,1.8963,3.2577,-1.5520,0.2799,-0.3077,0.3190,
31.071685,1.8963,3.2577,-1.5520,-0.4349,0.1604,0.3195,
31.100676,1.8963,3.2577,-1.5520,-0.4349,0.1604,0.3195,
31.102443,-3.0610,-0.1214,-1.6945,-0.4349,0.1604,0.3195,
31.136929,-3.0610,-0.1214,-1.6945,-0.8657,-0.6501,0.0438,
31.165259,-3.0610,-0.1214,-1.6945,-0.8657,-0.6501,0.0438,
31.167234,0.1529,-0.5132,-0.7862,-0.8657,-0.6501,0.0438,
31.202223,0.1529,-0.5132,-0.7862,-0.7669,0.1764,-0.2367,
31.230850,0.1529,-0.5132,-0.7862,-0.7669,0.1764,-0.2367,
31.232354,0.7165,-0.4356,-0.2470,-0.7669,0.1764,-0.2367,
31.267789,0.7165,-0.4356,-0.2470,-0.9065,0.7031,-0.1381,
31.296454,0.7165,-0.4356,-0.2470,-0.9065,0.7031,-0.1381,
31.297986,-0.8514,-1.5224,-0.1890,-0.9065,0.7031,-0.1381,
31.335908,-0.8514,-1.5224,-0.1890,-0.3815,0.5603,-0.0159,
31.361811,-0.8514,-1.5224,-0.1890,-0.3815,0.5603,-0.0159,
31.363091,-1.1464,-2.2313,0.5821,-0.3815,0.5603,-0.0159,
31.398508,-1.1464,-2.2313,0.5821,-0.0724,0.3517,0.0686,
31.428036,-1.1464,-2.2313,0.5821,-0.0724,0.3517,0.0686,
31.429675,0.0231,-1.7603,0.5525,-0.0724,0.3517,0.0686,
31.463776,0.0231,-1.7603,0.5525,0.2766,0.5405,-0.0359,
31.494493,0.0231,-1.7603,0.5525,0.2766,0.5405,-0.0359,
31.496220,-0.1997,0.6447,1.4921,0.2766,0.5405,-0.0359,
31.529707,-0.1997,0.6447,1.4921,-0.4168,0.5153,0.0475,
31.558700,-0.1997,0.6447,1.4921,-0.4168,0.5153,0.0475,
31.560606,1.7813,0.3878,2.7782,-0.4168,0.5153,0.0475,
31.595650,1.7813,0.3878,2.7782,-0.9604,1.4145,0.5872,
31.624979,1.7813,0.3878,2.7782,-0.9604,1.4145,0.5872,
31.627490,-0.9256,5.8520,-0.2248,-0.9604,1.4145,0.5872,
31.660846,-0.9256,5.8520,-0.2248,0.5898,0.6591,0.0951,
31.690097,-0.9256,5.8520,-0.2248,0.5898,0.6591,0.0951,
31.691654,0.5543,-1.8893,-1.7779,0.5898,0.6591,0.0951,
31.726581,0.5543,-1.8893,-1.7779,0.4487,2.1252,-0.3378,
31.755882,0.5543,-1.8893,-1.7779,0.4487,2.1252,-0.3378,
31.756961,0.4033,0.4756,-3.6104,0.4487,2.1252,-0.3378,
31.790853,0.4033,0.4756,-3.6104,0.7789,1.0469,0.3439,
31.820532,0.4033,0.4756,-3.6104,0.7789,1.0469,0.3439,
31.821688,-0.0013,-1.1069,-1.5901,0.7789,1.0469,0.3439,
31.856867,-0.0013,-1.1069,-1.5901,0.7969,0.7173,0.0347,
31.886231,-0.0013,-1.1069,-1.5901,0.7969,0.7173,0.0347,
31.887333,1.5067,-0.6420,-0.1433,0.7969,0.7173,0.0347,
31.923185,1.5067,-0.6420,-0.1433,0.3271,0.5336,-0.2246,
31.950617,1.5067,-0.6420,-0.1433,0.3271,0.5336,-0.2246,
31.951105,1.0556,-1.0886,0.0766,0.3271,0.5336,-0.2246,
31.988279,1.0556,-1.0886,0.0766,0.5612,0.3204,-0.2156,
32.017198,1.0556,-1.0886,0.0766,0.5612,0.3204,-0.2156,
32.017963,0.6560,-0.5054,0.2873,0.5612,0.3204,-0.2156,
32.053886,0.6560,-0.5054,0.2873,0.2908,-0.0492,-0.3642,
32.081853,0.6560,-0.5054,0.2873,0.2908,-0.0492,-0.3642,
32.083667,1.5231,0.5321,0.1874,0.2908,-0.0492,-0.3642,
32.118755,1.5231,0.5321,0.1874,0.2315,-0.0095,0.1115,
32.147987,1.5231,0.5321,0.1874,0.2315,-0.0095,0.1115,
32.148702,1.5061,3.9539,-1.1092,0.2315,-0.0095,0.1115,
32.185739,1.5061,3.9539,-1.1092,-0.0147,0.3187,0.8665,
32.213092,1.5061,3.9539,-1.1092,-0.0147,0.3187,0.8665,
32.214935,-2.2510,2.0647,-3.8387,-0.0147,0.3187,0.8665,
32.249656,-2.2510,2.0647,-3.8387,-1.4870,-0.9473,0.1400,
32.279560,-2.2510,2.0647,-3.8387,-1.4870,-0.9473,0.1400,
32.281090,-0.7133,0.1458,-0.7392,-1.4870,-0.9473,0.1400,
32.315761,-0.7133,0.1458,-0.7392,-1.1412,-0.1168,-0.1144,
32.344691,-0.7133,0.1458,-0.7392,-1.1412,-0.1168,-0.1144,
32.346286,1.6045,-1.3871,-1.0735,-1.1412,-0.1168,-0.1144,
32.380654,1.6045,-1.3871,-1.0735,-0.6701,1.4780,-0.2248,
32.409771,1.6045,-1.3871,-1.0735,-0.6701,1.4780,-0.2248,
32.411434,0.1721,-0.9910,-0.5323,-0.6701,1.4780,-0.2248,
32.446524,0.1721,-0.9910,-0.5323,-0.4739,1.0695,0.1008,
32.475134,0.1721,-0.9910,-0.5323,-0.4739,1.0695,0.1008,
32.477023,-1.7222,-1.2145,-0.0150,-0.4739,1.0695,0.1008,
32.511793,-1.7222,-1.2145,-0.0150,-0.2703,0.7660,0.2563,
32.540781,-1.7222,-1.2145,-0.0150,-0.2703,0.7660,0.2563,
32.542656,0.0270,-1.7928,-0.7118,-0.2703,0.7660,0.2563,
32.577176,0.0270,-1.7928,-0.7118,0.0351,0.7275,0.1451,
32.606929,0.0270,-1.7928,-0.7118,0.0351,0.7275,0.1451,
32.607978,-0.3433,-0.3305,0.1267,0.0351,0.7275,0.1451,
32.642884,-0.3433,-0.3305,0.1267,-0.1148,1.0402,0.0707,
32.673021,-0.3433,-0.3305,0.1267,-0.1148,1.0402,0.0707,
32.674467,1.5597,0.3307,1.7099,-0.1148,1.0402,0.0707,
32.707507,1.5597,0.3307,1.7099,-0.0440,1.2999,0.1637,
32.736674,1.5597,0.3307,1.7099,-0.0440,1.2999,0.1637,
32.737846,2.3623,-0.2604,1.7544,-0.0440,1.2999,0.1637,
32.773619,2.3623,-0.2604,1.7544,0.1602,1.8697,0.3131,
32.802442,2.3623,-0.2604,1.7544,0.1602,1.8697,0.3131,
32.803540,0.2261,2.3927,-0.1867,0.1602,1.8697,0.3131,
32.839859,0.2261,2.3927,-0.1867,0.8241,0.5399,-1.2225,
32.868585,0.2261,2.3927,-0.1867,0.8241,0.5399,-1.2225,
32.869331,-2.2601,-1.0829,-4.7118,0.8241,0.5399,-1.2225,
32.905779,-2.2601,-1.0829,-4.7118,0.0619,2.0766,-0.0944,
32.934834,-2.2601,-1.0829,-4.7118,0.0619,2.0766,-0.0944,
32.936522,-1.3575,1.3398,-2.5796,0.0619,2.0766,-0.0944,
32.970530,-1.3575,1.3398,-2.5796,0.4775,0.9415,0.4575,
32.998857,-1.3575,1.3398,-2.5796,0.4775,0.9415,0.4575,
33.000903,0.3826,0.3986,-1.8432,0.4775,0.9415,0.4575,
33.034801,0.3826,0.3986,-1.8432,0.3297,0.6976,0.7251,
33.063745,0.3826,0.3986,-1.8432,0.3297,0.6976,0.7251,
33.065012,1.2439,-1.8752,-0.2276,0.3297,0.6976,0.7251,
33.101000,1.2439,-1.8752,-0.2276,0.3625,0.6121,0.1280,
33.129794,1.2439,-1.8752,-0.2276,0.3625,0.6121,0.1280,
33.131439,0.3544,-0.8550,-0.1865,0.3625,0.6121,0.1280,
33.167023,0.3544,-0.8550,-0.1865,0.4682,0.4142,-0.0544,
33.196538,0.3544,-0.8550,-0.1865,0.4682,0.4142,-0.0544,
33.198218,0.2369,-0.3865,0.2417,0.4682,0.4142,-0.0544,
33.231284,0.2369,-0.3865,0.2417,0.3157,-0.0958,-0.2181,
33.261816,0.2369,-0.3865,0.2417,0.3157,-0.0958,-0.2181,
33.263569,1.1087,-0.5168,0.2819,0.3157,-0.0958,-0.2181,
33.299363,1.1087,-0.5168,0.2819,0.5055,-0.2703,-0.1862,
33.328683,1.1087,-0.5168,0.2819,0.5055,-0.2703,-0.1862,
33.330467,2.3621,1.1924,0.8069,0.5055,-0.2703,-0.1862,
33.362910,2.3621,1.1924,0.8069,0.4180,-0.3830,0.2842,
33.390785,2.3621,1.1924,0.8069,0.4180,-0.3830,0.2842,
33.391932,2.3877,2.6714,-0.7077,0.4180,-0.3830,0.2842,
33.427703,2.3877,2.6714,-0.7077,0.0425,0.0985,0.5550,
33.457517,2.3877,2.6714,-0.7077,0.0425,0.0985,0.5550,
33.458982,-0.5047,2.4329,-2.8624,0.0425,0.0985,0.5550,
33.493719,-0.5047,2.4329,-2.8624,-1.2033,-0.5049,-0.0139,
33.524061,-0.5047,2.4329,-2.8624,-1.2033,-0.5049,-0.0139,
33.525811,-2.4647,-1.7402,-0.1281,-1.2033,-0.5049,-0.0139,
33.559131,-2.4647,-1.7402,-0.1281,-1.0212,0.1307,-0.0041,
33.588125,-2.4647,-1.7402,-0.1281,-1.0212,0.1307,-0.0041,
33.589597,0.5936,0.3368,-0.6460,-1.0212,0.1307,-0.0041,
33.624807,0.5936,0.3368,-0.6460,-0.9931,0.4371,-0.1736,
33.653986,0.5936,0.3368,-0.6460,-0.9931,0.4371,-0.1736,
33.655790,-0.6384,-1.1816,-0.4126,-0.9931,0.4371,-0.1736,
33.690624,-0.6384,-1.1816,-0.4126,-0.5704,0.6776,-0.0582,
33.721440,-0.6384,-1.1816,-0.4126,-0.5704,0.6776,-0.0582,
33.723319,-0.1838,-1.5655,-0.3312,-0.5704,0.6776,-0.0582,
33.756925,-0.1838,-1.5655,-0.3312,-0.3592,0.7450,0.0612,
33.784564,-0.1838,-1.5655,-0.3312,-0.3592,0.7450,0.0612,
33.785444,-0.0147,-1.7439,0.0494,-0.3592,0.7450,0.0612,
33.821654,-0.0147,-1.7439,0.0494,-0.0061,0.9194,0.0988,
33.852055,-0.0147,-1.7439,0.0494,-0.0061,0.9194,0.0988,
33.853848,0.4307,-1.3119,0.5443,-0.0061,0.9194,0.0988,
33.886583,0.4307,-1.3119,0.5443,0.1790,1.0113,0.1446,
33.917619,0.4307,-1.3119,0.5443,0.1790,1.0113,0.1446,
33.919595,0.0452,0.3894,1.4750,0.1790,1.0113,0.1446,
33.951957,0.0452,0.3894,1.4750,0.0580,0.6761,0.0486,
33.980659,0.0452,0.3894,1.4750,0.0580,0.6761,0.0486,
33.981259,0.9470,0.4635,2.7101,0.0580,0.6761,0.0486,
34.018061,0.9470,0.4635,2.7101,-0.1211,1.0945,0.0487,
34.046411,0.9470,0.4635,2.7101,-0.1211,1.0945,0.0487,
34.047964,0.2680,2.8071,-0.3336,-0.1211,1.0945,0.0487,
34.083218,0.2680,2.8071,-0.3336,0.1746,-0.3366,-0.8010,
34.111946,0.2680,2.8071,-0.3336,0.1746,-0.3366,-0.8010,
34.114651,-3.3351,-1.4714,-3.3823,0.1746,-0.3366,-0.8010,
34.148782,-3.3351,-1.4714,-3.3823,0.3543,1.2868,0.0725,
34.177886,-3.3351,-1.4714,-3.3823,0.3543,1.2868,0.0725,
34.179645,2.6588,-1.4520,-4.0223,0.3543,1.2868,0.0725,
34.213413,2.6588,-1.4520,-4.0223,0.8696,0.8212,-0.0788,
34.243319,2.6588,-1.4520,-4.0223,0.8696,0.8212,-0.0788,
34.244787,-0.0410,1.0547,-0.2817,0.8696,0.8212,-0.0788,
34.279658,-0.0410,1.0547,-0.2817,0.3845,0.2908,0.6753,
34.308096,-0.0410,1.0547,-0.2817,0.3845,0.2908,0.6753,
34.309486,1.0333,-1.4789,-0.5939,0.3845,0.2908,0.6753,
34.344850,1.0333,-1.4789,-0.5939,0.4933,0.2214,0.2781,
34.374611,1.0333,-1.4789,-0.5939,0.4933,0.2214,0.2781,
34.376472,-0.3424,-1.1484,-0.1736,0.4933,0.2214,0.2781,
34.411119,-0.3424,-1.1484,-0.1736,0.5695,-0.2917,0.0974,
34.439965,-0.3424,-1.1484,-0.1736,0.5695,-0.2917,0.0974,
34.441338,0.8783,-0.5463,0.3237,0.5695,-0.2917,0.0974,
34.477996,0.8783,-0.5463,0.3237,0.2848,-0.5709,-0.3128,
34.505239,0.8783,-0.5463,0.3237,0.2848,-0.5709,-0.3128,
34.507093,1.7221,-0.2080,0.0257,0.2848,-0.5709,-0.3128,
34.541703,1.7221,-0.2080,0.0257,0.3372,-0.5542,-0.1468,
34.571874,1.7221,-0.2080,0.0257,0.3372,-0.5542,-0.1468,
34.575224,1.9136,0.8758,0.8218,0.3372,-0.5542,-0.1468,
34.609217,1.9136,0.8758,0.8218,0.2561,-0.8793,0.4116,
34.636207,1.9136,0.8758,0.8218,0.2561,-0.8793,0.4116,
34.637947,1.4575,3.3669,-1.4596,0.2561,-0.8793,0.4116,
34.673890,1.4575,3.3669,-1.4596,-0.0811,-0.2306,0.8433,
34.703055,1.4575,3.3669,-1.4596,-0.0811,-0.2306,0.8433,
34.705190,-2.6086,2.2089,-2.7416,-0.0811,-0.2306,0.8433,
34.738651,-2.6086,2.2089,-2.7416,-1.1296,-1.4985,0.1338,
34.767409,-2.6086,2.2089,-2.7416,-1.1296,-1.4985,0.1338,
34.768966,-1.5842,-1.6253,-0.7610,-1.1296,-1.4985,0.1338,
34.803854,-1.5842,-1.6253,-0.7610,-1.0931,-0.3340,-0.0796,
34.832961,-1.5842,-1.6253,-0.7610,-1.0931,-0.3340,-0.0796,
34.834774,0.4875,0.1749,-0.7599,-1.0931,-0.3340,-0.0796,
34.869278,0.4875,0.1749,-0.7599,-0.9768,0.0379,-0.1849,
34.897166,0.4875,0.1749,-0.7599,-0.9768,0.0379,-0.1849,
34.898275,-1.5441,-1.2619,-0.0639,-0.9768,0.0379,-0.1849,
34.933949,-1.5441,-1.2619,-0.0639,-0.3496,0.0681,-0.0353,
34.962821,-1.5441,-1.2619,-0.0639,-0.3496,0.0681,-0.0353,
34.964521,-0.2266,-1.9327,0.2165,-0.3496,0.0681,-0.0353,
34.999714,-0.2266,-1.9327,0.2165,-0.1920,0.1709,0.0295,
35.028740,-0.2266,-1.9327,0.2165,-0.1920,0.1709,0.0295,
35.030461,0.2797,-1.5150,0.1699,-0.1920,0.1709,0.0295,
35.066874,0.2797,-1.5150,0.1699,0.1090,0.5420,0.0800,
35.093796,0.2797,-1.5150,0.1699,0.1090,0.5420,0.0800,
35.094997,0.4943,-1.0798,0.5784,0.1090,0.5420,0.0800,
35.129890,0.4943,-1.0798,0.5784,0.2932,0.8373,0.0903,
35.159606,0.4943,-1.0798,0.5784,0.2932,0.8373,0.0903,
35.161169,0.3458,0.3646,1.5823,0.2932,0.8373,0.0903,
35.195286,0.3458,0.3646,1.5823,0.1741,0.7107,0.0289,
35.224952,0.3458,0.3646,1.5823,0.1741,0.7107,0.0289,
35.226186,1.0516,0.1412,2.7757,0.1741,0.7107,0.0289,
35.261190,1.0516,0.1412,2.7757,-0.0959,1.2949,-0.0113,
35.290913,1.0516,0.1412,2.7757,-0.0959,1.2949,-0.0113,
35.292424,-1.2630,5.2953,0.2089,-0.0959,1.2949,-0.0113,
35.326653,-1.2630,5.2953,0.2089,0.1930,0.0252,-0.3618,
35.356244,-1.2630,5.2953,0.2089,0.1930,0.0252,-0.3618,
35.358100,-1.9253,-1.5216,-1.9261,0.1930,0.0252,-0.3618,
35.392539,-1.9253,-1.5216,-1.9261,0.3044,0.6764,-0.0930,
35.421222,-1.9253,-1.5216,-1.9261,0.3044,0.6764,-0.0930,
35.423445,-0.1019,-1.1102,-3.6212,0.3044,0.6764,-0.0930,
35.459069,-0.1019,-1.1102,-3.6212,0.5728,0.3390,0.0507,
35.489065,-0.1019,-1.1102,-3.6212,0.5728,0.3390,0.0507,
35.496150,-1.1138,-0.2009,-0.2853,0.5728,0.3390,0.0507,
35.523498,-1.1138,-0.2009,-0.2853,0.5275,-0.4354,0.5460,
35.553354,-1.1138,-0.2009,-0.2853,0.5275,-0.4354,0.5460,
35.555737,1.2731,-0.4002,-0.5453,0.5275,-0.4354,0.5460,
35.589023,1.2731,-0.4002,-0.5453,0.2979,-0.4265,0.2792,
35.617624,1.2731,-0.4002,-0.5453,0.2979,-0.4265,0.2792,
35.618164,0.2594,-1.2621,-0.2599,0.2979,-0.4265,0.2792,
35.655329,0.2594,-1.2621,-0.2599,0.4711,-0.5238,-0.0619,
35.683629,0.2594,-1.2621,-0.2599,0.4711,-0.5238,-0.0619,
35.684095,1.2824,-0.7769,0.1788,0.4711,-0.5238,-0.0619,
35.720440,1.2824,-0.7769,0.1788,0.4015,-0.5837,-0.3711,
35.748612,1.2824,-0.7769,0.1788,0.4015,-0.5837,-0.3711,
35.749389,1.4063,-0.4859,0.5825,0.4015,-0.5837,-0.3711,
35.786990,1.4063,-0.4859,0.5825,0.4946,-0.3601,-0.2130,
35.814510,1.4063,-0.4859,0.5825,0.4946,-0.3601,-0.2130,
35.815230,1.1521,0.4759,0.2073,0.4946,-0.3601,-0.2130,
35.850678,1.1521,0.4759,0.2073,0.1298,-0.6107,0.1544,
35.879865,1.1521,0.4759,0.2073,0.1298,-0.6107,0.1544,
35.880983,0.5587,1.7285,0.1708,0.1298,-0.6107,0.1544,
35.917463,0.5587,1.7285,0.1708,0.0220,-0.1649,0.9299,
35.945522,0.5587,1.7285,0.1708,0.0220,-0.1649,0.9299,
35.946737,-0.5481,3.3348,-2.8918,0.0220,-0.1649,0.9299,
35.981436,-0.5481,3.3348,-2.8918,-1.2530,-1.5249,0.5047,
36.010648,-0.5481,3.3348,-2.8918,-1.2530,-1.5249,0.5047,
36.011673,-2.3800,-1.4328,0.3782,-1.2530,-1.5249,0.5047,
36.048577,-2.3800,-1.4328,0.3782,-1.0719,-0.4869,0.0673,
36.076212,-2.3800,-1.4328,0.3782,-1.0719,-0.4869,0.0673,
36.078486,1.6739,0.7727,-0.9287,-1.0719,-0.4869,0.0673,
36.113450,1.6739,0.7727,-0.9287,-0.9708,0.6926,-0.3074,
36.141469,1.6739,0.7727,-0.9287,-0.9708,0.6926,-0.3074,
36.143041,-1.1830,-0.7630,-0.2065,-0.9708,0.6926,-0.3074,
36.178549,-1.1830,-0.7630,-0.2065,-0.5643,0.4785,-0.0499,
36.207841,-1.1830,-0.7630,-0.2065,-0.5643,0.4785,-0.0499,
36.209352,-1.0739,-2.0189,-0.2110,-0.5643,0.4785,-0.0499,
36.244623,-1.0739,-2.0189,-0.2110,-0.1655,0.4951,-0.0101,
36.272280,-1.0739,-2.0189,-0.2110,-0.1655,0.4951,-0.0101,
36.273714,-0.5088,-1.7464,0.0475,-0.1655,0.4951,-0.0101,
36.309818,-0.5088,-1.7464,0.0475,0.0118,0.7208,-0.0200,
36.338555,-0.5088,-1.7464,0.0475,0.0118,0.7208,-0.0200,
36.340233,0.9142,-0.9055,0.5552,0.0118,0.7208,-0.0200,
36.375242,0.9142,-0.9055,0.5552,0.2553,0.8406,0.0812,
36.404501,0.9142,-0.9055,0.5552,0.2553,0.8406,0.0812,
36.406067,-0.0730,0.4742,1.3679,0.2553,0.8406,0.0812,
36.440853,-0.0730,0.4742,1.3679,0.1403,0.7485,0.0249,
36.469487,-0.0730,0.4742,1.3679,0.1403,0.7485,0.0249,
36.471445,0.7189,0.2233,2.7215,0.1403,0.7485,0.0249,
36.505942,0.7189,0.2233,2.7215,-0.0556,1.1310,-0.0385,
36.534067,0.7189,0.2233,2.7215,-0.0556,1.1310,-0.0385,
36.535750,0.5904,1.6777,0.4282,-0.0556,1.1310,-0.0385,
36.571796,0.5904,1.6777,0.4282,0.0599,-0.1691,-0.6512,
36.601159,0.5904,1.6777,0.4282,0.0599,-0.1691,-0.6512,
36.602836,-3.6033,0.7429,-3.3595,0.0599,-0.1691,-0.6512,
36.637162,-3.6033,0.7429,-3.3595,0.0073,1.3211,-0.1662,
36.666239,-3.6033,0.7429,-3.3595,0.0073,1.3211,-0.1662,
36.667905,1.3635,-3.0041,-3.2943,0.0073,1.3211,-0.1662,
36.701951,1.3635,-3.0041,-3.2943,0.9395,0.5670,-0.2088,
36.732557,1.3635,-3.0041,-3.2943,0.9395,0.5670,-0.2088,
36.734536,-2.1435,1.1093,-0.0334,0.9395,0.5670,-0.2088,
36.768167,-2.1435,1.1093,-0.0334,0.3577,-0.7509,0.5269,
36.798411,-2.1435,1.1093,-0.0334,0.3577,-0.7509,0.5269,
36.800559,1.0085,-0.9185,-1.2668,0.3577,-0.7509,0.5269,
36.836854,1.0085,-0.9185,-1.2668,0.4578,-0.4326,0.3512,
36.861903,1.0085,-0.9185,-1.2668,0.4578,-0.4326,0.3512,
36.863860,0.9745,-1.1359,0.0846,0.4578,-0.4326,0.3512,
36.898613,0.9745,-1.1359,0.0846,0.5383,-0.3749,0.0609,
36.926878,0.9745,-1.1359,0.0846,0.5383,-0.3749,0.0609,
36.928440,1.1005,-0.3369,0.2971,0.5383,-0.3749,0.0609,
36.964147,1.1005,-0.3369,0.2971,0.3401,-0.3311,-0.2483,
36.992567,1.1005,-0.3369,0.2971,0.3401,-0.3311,-0.2483,
36.993975,0.7708,-0.4518,0.7080,0.3401,-0.3311,-0.2483,
37.029573,0.7708,-0.4518,0.7080,0.3906,-0.4247,-0.2300,
37.058527,0.7708,-0.4518,0.7080,0.3906,-0.4247,-0.2300,
37.060602,1.2641,0.0722,0.3525,0.3906,-0.4247,-0.2300,
37.095798,1.2641,0.0722,0.3525,0.3213,-0.4745,-0.0402,
37.122753,1.2641,0.0722,0.3525,0.3213,-0.4745,-0.0402,
37.123375,1.7121,1.3731,1.0416,0.3213,-0.4745,-0.0402,
37.160740,1.7121,1.3731,1.0416,0.0762,-0.4545,0.3406,
37.189300,1.7121,1.3731,1.0416,0.0762,-0.4545,0.3406,
37.190292,2.1021,3.4943,-1.9062,0.0762,-0.4545,0.3406,
37.225294,2.1021,3.4943,-1.9062,-0.2989,0.1074,0.6410,
37.254357,2.1021,3.4943,-1.9062,-0.2989,0.1074,0.6410,
37.256326,-1.8181,0.6100,-2.6648,-0.2989,0.1074,0.6410,
37.291311,-1.8181,0.6100,-2.6648,-1.3077,0.4421,-0.1164,
37.320998,-1.8181,0.6100,-2.6648,-1.3077,0.4421,-0.1164,
37.322875,0.9325,-1.3196,-0.9141,-1.3077,0.4421,-0.1164,
37.356698,0.9325,-1.3196,-0.9141,-0.9140,0.9331,-0.1242,
37.385386,0.9325,-1.3196,-0.9141,-0.9140,0.9331,-0.1242,
37.387057,-0.2239,0.2864,-0.9610,-0.9140,0.9331,-0.1242,
37.422103,-0.2239,0.2864,-0.9610,-0.7514,1.2384,-0.1130,
37.452188,-0.2239,0.2864,-0.9610,-0.7514,1.2384,-0.1130,
37.453292,-0.1464,-1.3336,-0.7090,-0.7514,1.2384,-0.1130,
37.489290,-0.1464,-1.3336,-0.7090,-0.3884,1.2466,-0.0087,
37.516567,-0.1464,-1.3336,-0.7090,-0.3884,1.2466,-0.0087,
37.517766,-0.4294,-1.4476,0.0766,-0.3884,1.2466,-0.0087,
37.552392,-0.4294,-1.4476,0.0766,-0.1463,1.2315,0.1191,
37.583156,-0.4294,-1.4476,0.0766,-0.1463,1.2315,0.1191,
37.584427,0.3006,-1.7827,0.1746,-0.1463,1.2315,0.1191,
37.619120,0.3006,-1.7827,0.1746,0.1871,1.2019,0.1912,
37.648849,0.3006,-1.7827,0.1746,0.1871,1.2019,0.1912,
37.651276,0.1027,0.1605,0.9846,0.1871,1.2019,0.1912,
37.684708,0.1027,0.1605,0.9846,-0.1410,0.9525,0.1315,
37.712918,0.1027,0.1605,0.9846,-0.1410,0.9525,0.1315,
37.714657,0.7510,-0.4024,2.3455,-0.1410,0.9525,0.1315,
37.749505,0.7510,-0.4024,2.3455,-0.2489,1.4519,0.2198,
37.779511,0.7510,-0.4024,2.3455,-0.2489,1.4519,0.2198,
37.781100,1.8964,5.0617,-0.0571,-0.2489,1.4519,0.2198,
37.814717,1.8964,5.0617,-0.0571,0.1442,0.3899,-0.7016,
37.843976,1.8964,5.0617,-0.0571,0.1442,0.3899,-0.7016,
37.845633,-2.2000,-1.0850,-1.4794,0.1442,0.3899,-0.7016,
37.880975,-2.2000,-1.0850,-1.4794,0.8063,1.4448,0.1680,
37.909698,-2.2000,-1.0850,-1.4794,0.8063,1.4448,0.1680,
37.911380,0.4021,-2.9280,-3.4472,0.8063,1.4448,0.1680,
37.945428,0.4021,-2.9280,-3.4472,0.7592,0.2917,-0.0480,
37.975018,0.4021,-2.9280,-3.4472,0.7592,0.2917,-0.0480,
37.976894,-0.5428,1.0551,-0.3707,0.7592,0.2917,-0.0480,
38.012094,-0.5428,1.0551,-0.3707,0.4643,-0.3708,0.4496,
38.041295,-0.5428,1.0551,-0.3707,0.4643,-0.3708,0.4496,
38.043131,2.9531,-1.1775,-1.1462,0.4643,-0.3708,0.4496,
38.076803,2.9531,-1.1775,-1.1462,0.6640,0.3372,0.2463,
38.106721,2.9531,-1.1775,-1.1462,0.6640,0.3372,0.2463,
38.108578,1.1214,0.2634,-0.4585,0.6640,0.3372,0.2463,
38.142827,1.1214,0.2634,-0.4585,0.5362,0.3696,-0.0023,
38.173365,1.1214,0.2634,-0.4585,0.5362,0.3696,-0.0023,
38.175415,0.6128,-0.5774,0.1524,0.5362,0.3696,-0.0023,
38.208014,0.6128,-0.5774,0.1524,0.3364,0.0478,-0.1405,
38.238068,0.6128,-0.5774,0.1524,0.3364,0.0478,-0.1405,
38.240019,1.4851,-0.3911,0.3620,0.3364,0.0478,-0.1405,
38.274548,1.4851,-0.3911,0.3620,0.1848,-0.0848,-0.2979,
38.303377,1.4851,-0.3911,0.3620,0.1848,-0.0848,-0.2979,
38.305263,2.9032,0.5670,0.5623,0.1848,-0.0848,-0.2979,
38.339682,2.9032,0.5670,0.5623,0.0935,-0.1151,-0.0771,
38.369737,2.9032,0.5670,0.5623,0.0935,-0.1151,-0.0771,
38.371563,2.6341,1.9851,0.6074,0.0935,-0.1151,-0.0771,
38.405670,2.6341,1.9851,0.6074,-0.2370,0.1764,0.5089,
38.433177,2.6341,1.9851,0.6074,-0.2370,0.1764,0.5089,
38.433662,0.8907,2.6257,-2.2293,-0.2370,0.1764,0.5089,
38.469269,0.8907,2.6257,-2.2293,-1.0762,0.1301,0.7532,
38.498883,0.8907,2.6257,-2.2293,-1.0762,0.1301,0.7532,
38.499367,-3.0125,-0.5752,-0.6360,-1.0762,0.1301,0.7532,
38.535793,-3.0125,-0.5752,-0.6360,-0.9549,1.1504,-0.0579,
38.565107,-3.0125,-0.5752,-0.6360,-0.9549,1.1504,-0.0579,
38.566430,2.0875,0.5086,-0.9699,-0.9549,1.1504,-0.0579,
38.601329,2.0875,0.5086,-0.9699,-1.1124,1.7859,-0.1122,
38.629486,2.0875,0.5086,-0.9699,-1.1124,1.7859,-0.1122,
38.631375,-1.3271,-0.7715,-0.7883,-1.1124,1.7859,-0.1122,
38.666403,-1.3271,-0.7715,-0.7883,-0.6002,1.5169,0.0811,
38.695406,-1.3271,-0.7715,-0.7883,-0.6002,1.5169,0.0811,
38.696340,-0.4753,-1.3706,-0.8528,-0.6002,1.5169,0.0811,
38.733270,-0.4753,-1.3706,-0.8528,-0.3838,1.5776,0.0994,
38.760871,-0.4753,-1.3706,-0.8528,-0.3838,1.5776,0.0994,
38.762972,-0.4302,-1.7270,-0.6944,-0.3838,1.5776,0.0994,
38.797936,-0.4302,-1.7270,-0.6944,-0.0449,1.2368,0.1487,
38.827085,-0.4302,-1.7270,-0.6944,-0.0449,1.2368,0.1487,
38.828571,-0.3569,-1.7917,0.2349,-0.0449,1.2368,0.1487,
38.863275,-0.3569,-1.7917,0.2349,0.4569,0.7883,0.1628,
38.891249,-0.3569,-1.7917,0.2349,0.4569,0.7883,0.1628,
38.892818,-0.3281,0.6138,1.4264,0.4569,0.7883,0.1628,
38.928345,-0.3281,0.6138,1.4264,0.0067,0.8131,0.0044,
38.957736,-0.3281,0.6138,1.4264,0.0067,0.8131,0.0044,
38.959713,0.9709,-0.3329,2.3853,0.0067,0.8131,0.0044,
38.994649,0.9709,-0.3329,2.3853,-0.3228,1.1408,0.1707,
39.024092,0.9709,-0.3329,2.3853,-0.3228,1.1408,0.1707,
39.026623,-1.4552,7.4291,-0.6373,-0.3228,1.1408,0.1707,
39.060370,-1.4552,7.4291,-0.6373,-0.1527,0.9175,-0.3219,
39.088197,-1.4552,7.4291,-0.6373,-0.1527,0.9175,-0.3219,
39.088940,1.8230,-2.8719,-4.1046,-0.1527,0.9175,-0.3219,
39.125506,1.8230,-2.8719,-4.1046,0.6423,1.1874,-0.0980,
39.153768,1.8230,-2.8719,-4.1046,0.6423,1.1874,-0.0980,
39.154549,-3.4295,0.8994,-1.6605,0.6423,1.1874,-0.0980,
39.189533,-3.4295,0.8994,-1.6605,0.6348,-0.5705,0.4261,
39.219487,-3.4295,0.8994,-1.6605,0.6348,-0.5705,0.4261,
39.220450,-0.1118,-0.0531,-1.6564,0.6348,-0.5705,0.4261,
39.255982,-0.1118,-0.0531,-1.6564,0.3807,-1.1183,0.5446,
39.284275,-0.1118,-0.0531,-1.6564,0.3807,-1.1183,0.5446,
39.284931,1.8298,-0.8956,-0.2562,0.3807,-1.1183,0.5446,
39.320971,1.8298,-0.8956,-0.2562,0.4691,-0.6574,0.3430,
39.350201,1.8298,-0.8956,-0.2562,0.4691,-0.6574,0.3430,
39.350735,1.8418,-0.6475,0.3997,0.4691,-0.6574,0.3430,
39.386605,1.8418,-0.6475,0.3997,0.5418,-0.1454,0.0260,
39.415678,1.8418,-0.6475,0.3997,0.5418,-0.1454,0.0260,
39.417133,1.3169,-0.5918,0.7434,0.5418,-0.1454,0.0260,
39.451800,1.3169,-0.5918,0.7434,0.5008,0.0706,-0.2938,
39.480535,1.3169,-0.5918,0.7434,0.5008,0.0706,-0.2938,
39.481430,0.8341,-0.2335,0.4371,0.5008,0.0706,-0.2938,
39.518750,0.8341,-0.2335,0.4371,0.4027,-0.2385,-0.2812,
39.545994,0.8341,-0.2335,0.4371,0.4027,-0.2385,-0.2812,
39.547711,1.0024,0.6534,0.1206,0.4027,-0.2385,-0.2812,
39.583173,1.0024,0.6534,0.1206,0.1842,-0.8303,0.0951,
39.612007,1.0024,0.6534,0.1206,0.1842,-0.8303,0.0951,
39.614368,1.5750,1.0622,0.9296,0.1842,-0.8303,0.0951,
39.647824,1.5750,1.0622,0.9296,0.0362,-0.8506,0.4397,
39.677266,1.5750,1.0622,0.9296,0.0362,-0.8506,0.4397,
39.678892,1.6808,2.8278,-1.6865,0.0362,-0.8506,0.4397,
39.712862,1.6808,2.8278,-1.6865,-0.8247,-0.1660,0.4977,
39.742686,1.6808,2.8278,-1.6865,-0.8247,-0.1660,0.4977,
39.744173,-2.5531,-0.6588,-0.8947,-0.8247,-0.1660,0.4977,
39.779252,-2.5531,-0.6588,-0.8947,-0.8792,-0.1549,-0.0276,
39.807982,-2.5531,-0.6588,-0.8947,-0.8792,-0.1549,-0.0276,
39.809509,0.2122,0.3224,0.2245,-0.8792,-0.1549,-0.0276,
39.844740,0.2122,0.3224,0.2245,-0.9270,0.7596,-0.0594,
39.873472,0.2122,0.3224,0.2245,-0.9270,0.7596,-0.0594,
39.874880,-0.3937,-0.3204,-0.6633,-0.9270,0.7596,-0.0594,
39.910633,-0.3937,-0.3204,-0.6633,-0.7944,0.7787,-0.0918,
39.940147,-0.3937,-0.3204,-0.6633,-0.7944,0.7787,-0.0918,
39.941916,-1.9745,-1.3902,-0.6343,-0.7944,0.7787,-0.0918,
39.976652,-1.9745,-1.3902,-0.6343,-0.3267,0.3535,-0.0388,
40.004782,-1.9745,-1.3902,-0.6343,-0.3267,0.3535,-0.0388,
40.006408,-0.9463,-1.6426,-0.1925,-0.3267,0.3535,-0.0388,
40.041570,-0.9463,-1.6426,-0.1925,-0.1164,0.4707,-0.0023,
40.072333,-0.9463,-1.6426,-0.1925,-0.1164,0.4707,-0.0023,
40.073748,0.7669,-1.1866,0.4182,-0.1164,0.4707,-0.0023,
40.107080,0.7669,-1.1866,0.4182,0.1228,0.6400,0.1045,
40.138066,0.7669,-1.1866,0.4182,0.1228,0.6400,0.1045,
40.139932,0.4269,-0.5954,1.1469,0.1228,0.6400,0.1045,
40.173404,0.4269,-0.5954,1.1469,0.2844,0.8036,0.0224,
40.201151,0.4269,-0.5954,1.1469,0.2844,0.8036,0.0224,
40.202946,0.7562,0.5778,1.9090,0.2844,0.8036,0.0224,
40.238660,0.7562,0.5778,1.9090,0.0437,1.0580,0.0199,
40.266983,0.7562,0.5778,1.9090,0.0437,1.0580,0.0199,
40.268554,0.9904,0.1662,2.4704,0.0437,1.0580,0.0199,
40.304397,0.9904,0.1662,2.4704,-0.4363,1.0389,0.1329,
40.331844,0.9904,0.1662,2.4704,-0.4363,1.0389,0.1329,
40.333569,-3.5927,5.8363,-0.9589,-0.4363,1.0389,0.1329,
40.368450,-3.5927,5.8363,-0.9589,0.1309,0.7781,-0.5463,
40.397540,-3.5927,5.8363,-0.9589,0.1309,0.7781,-0.5463,
40.399181,0.8776,-3.0838,-2.2196,0.1309,0.7781,-0.5463,
40.433673,0.8776,-3.0838,-2.2196,0.6921,-0.3135,0.0721,
40.462573,0.8776,-3.0838,-2.2196,0.6921,-0.3135,0.0721,
40.463878,-1.6980,1.4992,-1.2962,0.6921,-0.3135,0.0721,
40.499754,-1.6980,1.4992,-1.2962,0.6362,-1.0785,0.2619,
40.528879,-1.6980,1.4992,-1.2962,0.6362,-1.0785,0.2619,
40.530358,0.4977,-0.2858,-1.8810,0.6362,-1.0785,0.2619,
40.564594,0.4977,-0.2858,-1.8810,0.5777,-1.0962,0.2970,
40.594087,0.4977,-0.2858,-1.8810,0.5777,-1.0962,0.2970,
40.595395,1.1815,-0.1776,-0.7744,0.5777,-1.0962,0.2970,
40.631363,1.1815,-0.1776,-0.7744,0.3407,-0.8253,0.1371,
40.661009,1.1815,-0.1776,-0.7744,0.3407,-0.8253,0.1371,
40.663130,1.2426,-0.6447,0.1600,0.3407,-0.8253,0.1371,
40.697925,1.2426,-0.6447,0.1600,0.3653,-0.5510,-0.0466,
40.726003,1.2426,-0.6447,0.1600,0.3653,-0.5510,-0.0466,
40.728144,0.7566,-0.6878,0.9708,0.3653,-0.5510,-0.0466,
40.763689,0.7566,-0.6878,0.9708,0.3474,-0.4527,-0.2543,
40.791554,0.7566,-0.6878,0.9708,0.3474,-0.4527,-0.2543,
40.793625,1.3010,-0.3288,0.4088,0.3474,-0.4527,-0.2543,
40.827250,1.3010,-0.3288,0.4088,0.2957,-0.4082,-0.2004,
40.856173,1.3010,-0.3288,0.4088,0.2957,-0.4082,-0.2004,
40.856847,1.8442,0.3366,0.7333,0.2957,-0.4082,-0.2004,
40.894242,1.8442,0.3366,0.7333,0.2825,-0.4178,0.1840,
40.922210,1.8442,0.3366,0.7333,0.2825,-0.4178,0.1840,
40.923222,1.7726,1.1937,-0.0616,0.2825,-0.4178,0.1840,
40.958782,1.7726,1.1937,-0.0616,0.3079,-0.0298,0.3396,
40.988601,1.7726,1.1937,-0.0616,0.3079,-0.0298,0.3396,
40.989227,2.0034,3.0703,-2.2418,0.3079,-0.0298,0.3396,
41.024382,2.0034,3.0703,-2.2418,-0.5925,0.3971,0.4230,
41.052828,2.0034,3.0703,-2.2418,-0.5925,0.3971,0.4230,
41.053670,-4.2356,-0.8141,-0.5498,-0.5925,0.3971,0.4230,
41.091055,-4.2356,-0.8141,-0.5498,-0.8279,-0.0272,0.1029,
41.118013,-4.2356,-0.8141,-0.5498,-0.8279,-0.0272,0.1029,
41.118758,2.0131,0.6151,-0.6047,-0.8279,-0.0272,0.1029,
41.155275,2.0131,0.6151,-0.6047,-0.8598,1.0342,-0.1939,
41.183363,2.0131,0.6151,-0.6047,-0.8598,1.0342,-0.1939,
41.184021,-1.0543,-0.2201,0.0523,-0.8598,1.0342,-0.1939,
41.220304,-1.0543,-0.2201,0.0523,-0.6353,1.0878,-0.1982,
41.249701,-1.0543,-0.2201,0.0523,-0.6353,1.0878,-0.1982,
41.250905,-0.0612,-1.4062,-0.5858,-0.6353,1.0878,-0.1982,
41.286115,-0.0612,-1.4062,-0.5858,-0.3215,1.2263,-0.0777,
41.315010,-0.0612,-1.4062,-0.5858,-0.3215,1.2263,-0.0777,
41.316043,-0.8451,-1.3684,-0.0953,-0.3215,1.2263,-0.0777,
41.351156,-0.8451,-1.3684,-0.0953,-0.3439,0.9760,0.0087,
41.379985,-0.8451,-1.3684,-0.0953,-0.3439,0.9760,0.0087,
41.380979,0.1506,-1.3081,0.0041,-0.3439,0.9760,0.0087,
41.416240,0.1506,-1.3081,0.0041,-0.0583,0.8519,0.2037,
41.445538,0.1506,-1.3081,0.0041,-0.0583,0.8519,0.2037,
41.447367,0.6354,-0.5578,0.9676,-0.0583,0.8519,0.2037,
41.481781,0.6354,-0.5578,0.9676,0.1153,1.0366,0.1561,
41.510872,0.6354,-0.5578,0.9676,0.1153,1.0366,0.1561,
41.512330,0.9565,0.5230,2.0746,0.1153,1.0366,0.1561,
41.548197,0.9565,0.5230,2.0746,-0.2071,1.7697,0.0081,
41.576573,0.9565,0.5230,2.0746,-0.2071,1.7697,0.0081,
41.578048,0.0556,0.7235,1.0132,-0.2071,1.7697,0.0081,
41.612808,0.0556,0.7235,1.0132,-0.2137,1.5166,-0.4763,
41.641712,0.0556,0.7235,1.0132,-0.2137,1.5166,-0.4763,
41.643310,-2.1247,2.6178,-0.5431,-0.2137,1.5166,-0.4763,
41.677884,-2.1247,2.6178,-0.5431,-0.2121,1.5298,-0.0802,
41.707916,-2.1247,2.6178,-0.5431,-0.2121,1.5298,-0.0802,
41.709558,3.9180,-5.1864,-3.7955,-0.2121,1.5298,-0.0802,
41.744365,3.9180,-5.1864,-3.7955,1.0321,1.0263,0.1213,
41.773809,3.9180,-5.1864,-3.7955,1.0321,1.0263,0.1213,
41.775710,-1.0284,2.7508,-0.1539,1.0321,1.0263,0.1213,
41.809872,-1.0284,2.7508,-0.1539,0.6025,0.0405,0.5652,
41.838974,-1.0284,2.7508,-0.1539,0.6025,0.0405,0.5652,
41.840773,1.9165,-1.6526,-1.2253,0.6025,0.0405,0.5652,
41.875388,1.9165,-1.6526,-1.2253,0.6771,0.4194,0.4597,
41.905954,1.9165,-1.6526,-1.2253,0.6771,0.4194,0.4597,
41.907930,0.3791,0.1551,-0.1011,0.6771,0.4194,0.4597,
41.941005,0.3791,0.1551,-0.1011,0.5887,0.0565,0.2631,
41.970994,0.3791,0.1551,-0.1011,0.5887,0.0565,0.2631,
41.972653,-0.3092,-0.7397,-0.1678,0.5887,0.0565,0.2631,
42.007041,-0.3092,-0.7397,-0.1678,0.4934,-0.2222,0.0324,
42.035710,-0.3092,-0.7397,-0.1678,0.4934,-0.2222,0.0324,
42.036933,0.2905,-0.5096,0.3602,0.4934,-0.2222,0.0324,
42.073530,0.2905,-0.5096,0.3602,0.3914,-0.5021,-0.3245,
42.101025,0.2905,-0.5096,0.3602,0.3914,-0.5021,-0.3245,
42.103047,2.2993,0.1323,0.7752,0.3914,-0.5021,-0.3245,
42.137356,2.2993,0.1323,0.7752,0.4965,-0.4071,-0.1767,
42.166443,2.2993,0.1323,0.7752,0.4965,-0.4071,-0.1767,
42.168110,1.8121,1.6115,1.5018,0.4965,-0.4071,-0.1767,
42.202324,1.8121,1.6115,1.5018,0.3036,-0.6194,0.1898,
42.231782,1.8121,1.6115,1.5018,0.3036,-0.6194,0.1898,
42.233306,3.7072,3.0730,-0.8061,0.3036,-0.6194,0.1898,
42.268728,3.7072,3.0730,-0.8061,-0.1443,0.2886,0.6689,
42.297365,3.7072,3.0730,-0.8061,-0.1443,0.2886,0.6689,
42.299288,1.1903,0.3278,-2.5336,-0.1443,0.2886,0.6689,
42.332666,1.1903,0.3278,-2.5336,-1.2692,0.1767,-0.1081,
42.362526,1.1903,0.3278,-2.5336,-1.2692,0.1767,-0.1081,
42.364101,-0.5372,-1.4248,-1.1232,-1.2692,0.1767,-0.1081,
42.398785,-0.5372,-1.4248,-1.1232,-0.8351,1.6448,-0.1326,
42.427857,-0.5372,-1.4248,-1.1232,-0.8351,1.6448,-0.1326,
42.429823,0.6625,0.5935,-0.3848,-0.8351,1.6448,-0.1326,
42.464827,0.6625,0.5935,-0.3848,-1.1025,1.4919,-0.0440,
42.492354,0.6625,0.5935,-0.3848,-1.1025,1.4919,-0.0440,
42.493768,0.0160,-1.0302,-1.0471,-1.1025,1.4919,-0.0440,
42.529381,0.0160,-1.0302,-1.0471,-0.6813,2.0316,0.0577,
42.559865,0.0160,-1.0302,-1.0471,-0.6813,2.0316,0.0577,
42.561832,-0.4160,-0.7829,-0.0864,-0.6813,2.0316,0.0577,
42.596448,-0.4160,-0.7829,-0.0864,-0.4954,1.3851,0.2572,
42.623943,-0.4160,-0.7829,-0.0864,-0.4954,1.3851,0.2572,
42.626074,-0.9080,-2.2776,-0.2539,-0.4954,1.3851,0.2572,
42.661156,-0.9080,-2.2776,-0.2539,-0.0095,1.0177,0.3242,
42.689577,-0.9080,-2.2776,-0.2539,-0.0095,1.0177,0.3242,
42.691403,-0.3716,-1.6081,0.5797,-0.0095,1.0177,0.3242,
42.725463,-0.3716,-1.6081,0.5797,0.3566,0.8344,0.2599,
42.754727,-0.3716,-1.6081,0.5797,0.3566,0.8344,0.2599,
42.755885,0.2411,2.1693,2.6848,0.3566,0.8344,0.2599,
42.790825,0.2411,2.1693,2.6848,-0.1912,0.8751,-0.2860,
42.820755,0.2411,2.1693,2.6848,-0.1912,0.8751,-0.2860,
42.822278,0.4967,1.3925,0.9522,-0.1912,0.8751,-0.2860,
42.856131,0.4967,1.3925,0.9522,-0.3537,0.3850,-0.4067,
42.885924,0.4967,1.3925,0.9522,-0.3537,0.3850,-0.4067,
42.887535,-2.8650,1.0337,-0.3136,-0.3537,0.3850,-0.4067,
42.922469,-2.8650,1.0337,-0.3136,0.4549,0.8360,-0.0367,
42.951226,-2.8650,1.0337,-0.3136,0.4549,0.8360,-0.0367,
42.953014,3.1374,-3.8329,-3.4119,0.4549,0.8360,-0.0367,
42.988372,3.1374,-3.8329,-3.4119,0.5902,0.9143,-0.1402,
43.016854,3.1374,-3.8329,-3.4119,0.5902,0.9143,-0.1402,
43.019391,-3.4744,1.0276,-0.3813,0.5902,0.9143,-0.1402,
43.053327,-3.4744,1.0276,-0.3813,0.5029,-0.9197,0.7448,
43.082023,-3.4744,1.0276,-0.3813,0.5029,-0.9197,0.7448,
43.082685,0.9448,-1.0280,-1.3481,0.5029,-0.9197,0.7448,
43.118626,0.9448,-1.0280,-1.3481,0.4766,-0.8215,0.6396,
43.147338,0.9448,-1.0280,-1.3481,0.4766,-0.8215,0.6396,
43.148442,1.6848,-0.8629,-0.4910,0.4766,-0.8215,0.6396,
43.185714,1.6848,-0.8629,-0.4910,0.5142,-0.4423,0.1998,
43.213224,1.6848,-0.8629,-0.4910,0.5142,-0.4423,0.1998,
43.213782,1.3652,-0.6690,0.1457,0.5142,-0.4423,0.1998,
43.249075,1.3652,-0.6690,0.1457,0.4595,-0.3099,-0.1258,
43.278327,1.3652,-0.6690,0.1457,0.4595,-0.3099,-0.1258,
43.278897,0.3618,-0.3278,0.2402,0.4595,-0.3099,-0.1258,
43.316386,0.3618,-0.3278,0.2402,0.4212,-0.4468,-0.3910,
43.344280,0.3618,-0.3278,0.2402,0.4212,-0.4468,-0.3910,
43.345790,1.7007,0.0778,-0.0723,0.4212,-0.4468,-0.3910,
43.380309,1.7007,0.0778,-0.0723,0.3357,-0.3775,-0.1822,
43.410030,1.7007,0.0778,-0.0723,0.3357,-0.3775,-0.1822,
43.411646,1.0825,1.5868,1.4427,0.3357,-0.3775,-0.1822,
43.445889,1.0825,1.5868,1.4427,0.0475,-1.1544,0.3332,
43.475563,1.0825,1.5868,1.4427,0.0475,-1.1544,0.3332,
43.477370,2.1040,0.9570,-0.1190,0.0475,-1.1544,0.3332,
43.512468,2.1040,0.9570,-0.1190,-0.2595,0.3010,0.8563,
43.541568,2.1040,0.9570,-0.1190,-0.2595,0.3010,0.8563,
43.543319,0.1271,1.8543,-2.0514,-0.2595,0.3010,0.8563,
43.577913,0.1271,1.8543,-2.0514,-1.2246,-0.9337,0.1439,
43.606107,0.1271,1.8543,-2.0514,-1.2246,-0.9337,0.1439,
43.607963,-4.0103,-0.3212,0.2711,-1.2246,-0.9337,0.1439,
43.642714,-4.0103,-0.3212,0.2711,-0.9097,0.0689,-0.1211,
43.672175,-4.0103,-0.3212,0.2711,-0.9097,0.0689,-0.1211,
43.673173,1.5565,-0.0432,-0.1009,-0.9097,0.0689,-0.1211,
43.708527,1.5565,-0.0432,-0.1009,-0.9708,0.5092,-0.1982,
43.738062,1.5565,-0.0432,-0.1009,-0.9708,0.5092,-0.1982,
