
time,ax,ay,az,wx,wy,wz,
0.021572,0.0000,0.0000,0.0000,0.0548,0.0299,0.0185,
0.021807,0.0000,0.0000,0.0000,0.0548,0.0299,0.0185,
0.028864,0.0000,0.0000,0.0000,0.0707,0.0493,0.0331,
0.082680,0.0000,0.0000,0.0000,0.0707,0.0493,0.0331,
0.094306,0.0000,0.0000,0.0000,0.1428,0.0774,-0.0214,
0.148804,0.0000,0.0000,0.0000,0.1428,0.0774,-0.0214,
0.160936,0.0000,0.0000,0.0000,0.4000,0.0854,-0.0748,
0.214304,0.0000,0.0000,0.0000,0.4000,0.0854,-0.0748,
0.225927,0.0000,0.0000,0.0000,0.6877,0.2056,-0.1182,
0.280043,0.0000,0.0000,0.0000,0.6877,0.2056,-0.1182,
0.291808,0.0000,0.0000,0.0000,0.6944,0.1391,-0.3583,
0.345221,0.0000,0.0000,0.0000,0.6944,0.1391,-0.3583,
0.357549,0.0000,0.0000,0.0000,0.5528,0.2248,-0.7666,
0.411312,0.0000,0.0000,0.0000,0.5528,0.2248,-0.7666,
0.422952,0.0000,0.0000,0.0000,0.4178,-0.0263,-1.1217,
0.475983,0.0000,0.0000,0.0000,0.4178,-0.0263,-1.1217,
0.476742,-2.1729,-1.7949,-1.0989,0.4178,-0.0263,-1.1217,
0.487848,-2.1729,-1.7949,-1.0989,0.0205,-0.5614,-1.0235,
0.553712,-2.1729,-1.7949,-1.0989,-0.1688,-1.1733,-0.7677,
0.608101,-2.1729,-1.7949,-1.0989,-0.1688,-1.1733,-0.7677,
0.608852,-0.7942,-0.4789,-2.3925,-0.1688,-1.1733,-0.7677,
0.618563,-0.7942,-0.4789,-2.3925,0.2779,-0.7866,-0.4548,
0.623594,-0.7942,-0.4789,-2.3925,0.2779,-0.7866,-0.4548,
0.684582,-0.7942,-0.4789,-2.3925,-0.3395,-0.6370,-0.0180,
0.691799,-0.7942,-0.4789,-2.3925,-0.3395,-0.6370,-0.0180,
0.692585,-0.3388,-0.1040,-1.6938,-0.3395,-0.6370,-0.0180,
0.750348,-0.3388,-0.1040,-1.6938,-0.2963,-0.4554,0.4360,
0.755073,-0.3388,-0.1040,-1.6938,-0.2963,-0.4554,0.4360,
0.755768,-2.8150,2.5397,-2.2957,-0.2963,-0.4554,0.4360,
0.815441,-2.8150,2.5397,-2.2957,-0.6287,-0.7271,0.3241,
0.820537,-2.8150,2.5397,-2.2957,-0.6287,-0.7271,0.3241,
0.821887,-2.1555,1.9558,1.8174,-0.6287,-0.7271,0.3241,
0.881920,-2.1555,1.9558,1.8174,-0.6332,1.0331,0.0289,
0.885438,-2.1555,1.9558,1.8174,-0.6332,1.0331,0.0289,
0.886425,-0.5645,0.4024,1.3318,-0.6332,1.0331,0.0289,
0.947068,-0.5645,0.4024,1.3318,-0.6443,1.3152,-0.6329,
0.950844,-0.5645,0.4024,1.3318,-0.6443,1.3152,-0.6329,
0.951909,-2.9724,1.7524,-1.9399,-0.6443,1.3152,-0.6329,
1.013099,-2.9724,1.7524,-1.9399,-0.6596,0.9507,-0.3306,
1.017467,-2.9724,1.7524,-1.9399,-0.6596,0.9507,-0.3306,
1.018615,-4.2233,-0.5945,-0.6777,-0.6596,0.9507,-0.3306,
1.077122,-4.2233,-0.5945,-0.6777,-0.4705,0.3257,-0.1758,
1.082090,-4.2233,-0.5945,-0.6777,-0.4705,0.3257,-0.1758,
1.082997,-3.5827,-0.2048,-0.5608,-0.4705,0.3257,-0.1758,
1.143256,-3.5827,-0.2048,-0.5608,-0.3723,0.3022,-0.3144,
1.148612,-3.5827,-0.2048,-0.5608,-0.3723,0.3022,-0.3144,
1.149542,-2.6233,0.2986,-0.8251,-0.3723,0.3022,-0.3144,
1.208475,-2.6233,0.2986,-0.8251,-0.0864,0.3548,-0.5345,
1.212655,-2.6233,0.2986,-0.8251,-0.0864,0.3548,-0.5345,
1.214602,-2.9751,0.0957,0.1319,-0.0864,0.3548,-0.5345,
1.273455,-2.9751,0.0957,0.1319,0.1029,0.6510,-0.8364,
1.277921,-2.9751,0.0957,0.1319,0.1029,0.6510,-0.8364,
1.278610,-1.7807,-1.0406,-1.1045,0.1029,0.6510,-0.8364,
1.339839,-1.7807,-1.0406,-1.1045,0.2242,0.7677,-0.1135,
1.343864,-1.7807,-1.0406,-1.1045,0.2242,0.7677,-0.1135,
1.345003,-3.3312,-0.7422,-0.5201,0.2242,0.7677,-0.1135,
1.405540,-3.3312,-0.7422,-0.5201,-0.1119,0.3001,0.0556,
1.410490,-3.3312,-0.7422,-0.5201,-0.1119,0.3001,0.0556,
1.411297,-3.5285,-1.3076,0.8357,-0.1119,0.3001,0.0556,
1.470749,-3.5285,-1.3076,0.8357,0.4038,-0.0486,0.1683,
1.474426,-3.5285,-1.3076,0.8357,0.4038,-0.0486,0.1683,
1.475307,-2.4685,-1.2175,0.6075,0.4038,-0.0486,0.1683,
1.535366,-2.4685,-1.2175,0.6075,0.3630,0.1329,0.1561,
1.540927,-2.4685,-1.2175,0.6075,0.3630,0.1329,0.1561,
1.542327,-3.7863,1.8838,0.1073,0.3630,0.1329,0.1561,
1.600980,-3.7863,1.8838,0.1073,0.1680,-1.4696,-0.2228,
1.606668,-3.7863,1.8838,0.1073,0.1680,-1.4696,-0.2228,
1.607744,-6.5623,3.7718,-1.6695,0.1680,-1.4696,-0.2228,
1.667008,-6.5623,3.7718,-1.6695,0.3757,-0.7359,0.5774,
1.670948,-6.5623,3.7718,-1.6695,0.3757,-0.7359,0.5774,
1.671872,0.1958,-5.7160,-3.9952,0.3757,-0.7359,0.5774,
1.731929,0.1958,-5.7160,-3.9952,0.9021,-0.6984,0.2957,
1.736147,0.1958,-5.7160,-3.9952,0.9021,-0.6984,0.2957,
1.737157,-1.8175,2.4632,-0.6983,0.9021,-0.6984,0.2957,
1.798275,-1.8175,2.4632,-0.6983,0.6460,-1.0166,0.4991,
1.802109,-1.8175,2.4632,-0.6983,0.6460,-1.0166,0.4991,
1.803316,-3.5943,-1.9963,-3.1528,0.6460,-1.0166,0.4991,
1.863588,-3.5943,-1.9963,-3.1528,0.5345,-0.7469,0.3355,
1.867746,-3.5943,-1.9963,-3.1528,0.5345,-0.7469,0.3355,
1.868852,-1.8730,1.4003,-0.5032,0.5345,-0.7469,0.3355,
1.928643,-1.8730,1.4003,-0.5032,0.3645,-1.4267,0.3031,
1.932965,-1.8730,1.4003,-0.5032,0.3645,-1.4267,0.3031,
1.933894,-2.4667,-0.0148,0.3158,0.3645,-1.4267,0.3031,
1.993848,-2.4667,-0.0148,0.3158,-0.0970,-1.5634,0.2598,
1.999257,-2.4667,-0.0148,0.3158,-0.0970,-1.5634,0.2598,
2.000303,-1.4151,0.0826,1.2492,-0.0970,-1.5634,0.2598,
2.059849,-1.4151,0.0826,1.2492,-0.1849,-1.8787,0.2295,
2.065078,-1.4151,0.0826,1.2492,-0.1849,-1.8787,0.2295,
2.066945,-0.9111,0.2290,0.3844,-0.1849,-1.8787,0.2295,
2.124929,-0.9111,0.2290,0.3844,-0.5189,-1.7173,0.1083,
2.130297,-0.9111,0.2290,0.3844,-0.5189,-1.7173,0.1083,
2.130987,-1.1801,1.5917,-0.9570,-0.5189,-1.7173,0.1083,
2.191669,-1.1801,1.5917,-0.9570,-0.9423,-1.8039,0.5788,
2.194608,-1.1801,1.5917,-0.9570,-0.9423,-1.8039,0.5788,
2.195763,-5.5540,3.8545,-2.2654,-0.9423,-1.8039,0.5788,
2.256069,-5.5540,3.8545,-2.2654,-1.4383,-1.7933,-0.3323,
2.260324,-5.5540,3.8545,-2.2654,-1.4383,-1.7933,-0.3323,
2.261145,-2.3573,-3.0997,1.0994,-1.4383,-1.7933,-0.3323,
2.321728,-2.3573,-3.0997,1.0994,-0.8451,0.0308,-0.6371,
2.325061,-2.3573,-3.0997,1.0994,-0.8451,0.0308,-0.6371,
2.325940,-0.5555,-0.7841,2.2314,-0.8451,0.0308,-0.6371,
2.386492,-0.5555,-0.7841,2.2314,0.2443,-0.0333,-0.3563,
2.390951,-0.5555,-0.7841,2.2314,0.2443,-0.0333,-0.3563,
2.391612,-3.6444,-1.7468,2.2223,0.2443,-0.0333,-0.3563,
2.452493,-3.6444,-1.7468,2.2223,0.3528,0.9339,-0.5235,
2.457028,-3.6444,-1.7468,2.2223,0.3528,0.9339,-0.5235,
2.458466,-1.6780,-0.8858,1.2317,0.3528,0.9339,-0.5235,
2.517722,-1.6780,-0.8858,1.2317,0.1698,0.9015,-0.2488,
2.522833,-1.6780,-0.8858,1.2317,0.1698,0.9015,-0.2488,
2.524295,-2.9951,-0.5699,1.6204,0.1698,0.9015,-0.2488,
2.584286,-2.9951,-0.5699,1.6204,0.1075,0.7454,-0.1208,
2.588309,-2.9951,-0.5699,1.6204,0.1075,0.7454,-0.1208,
2.588970,-3.6004,-1.1407,1.3429,0.1075,0.7454,-0.1208,
2.648984,-3.6004,-1.1407,1.3429,-0.1197,0.3222,0.1939,
2.652890,-3.6004,-1.1407,1.3429,-0.1197,0.3222,0.1939,
2.654101,-3.0371,-0.1949,2.6545,-0.1197,0.3222,0.1939,
2.714766,-3.0371,-0.1949,2.6545,-0.4594,0.6194,0.1785,
2.718191,-3.0371,-0.1949,2.6545,-0.4594,0.6194,0.1785,
2.719087,-4.5806,3.6666,0.5660,-0.4594,0.6194,0.1785,
2.781064,-4.5806,3.6666,0.5660,0.3571,-0.5394,0.6755,
2.784326,-4.5806,3.6666,0.5660,0.3571,-0.5394,0.6755,
2.785406,-3.4225,-1.6138,-0.0261,0.3571,-0.5394,0.6755,
2.845881,-3.4225,-1.6138,-0.0261,0.5502,-0.6909,-0.2541,
2.849626,-3.4225,-1.6138,-0.0261,0.5502,-0.6909,-0.2541,
2.850474,-1.2533,-0.0694,-1.5325,0.5502,-0.6909,-0.2541,
2.910602,-1.2533,-0.0694,-1.5325,1.0096,-0.6025,0.3166,
2.916468,-1.2533,-0.0694,-1.5325,1.0096,-0.6025,0.3166,
2.917544,-1.5012,-0.5179,0.7832,1.0096,-0.6025,0.3166,
2.976701,-1.5012,-0.5179,0.7832,0.6626,-0.7475,0.4380,
2.981631,-1.5012,-0.5179,0.7832,0.6626,-0.7475,0.4380,
2.982690,-1.7628,-0.9786,-1.5152,0.6626,-0.7475,0.4380,
3.042735,-1.7628,-0.9786,-1.5152,0.2728,-0.1257,0.5542,
3.048506,-1.7628,-0.9786,-1.5152,0.2728,-0.1257,0.5542,
3.049865,-2.3949,1.1115,-0.3328,0.2728,-0.1257,0.5542,
3.107811,-2.3949,1.1115,-0.3328,0.2848,-0.6150,0.1251,
3.111884,-2.3949,1.1115,-0.3328,0.2848,-0.6150,0.1251,
3.112844,-3.7071,1.7202,0.5199,0.2848,-0.6150,0.1251,
3.173309,-3.7071,1.7202,0.5199,-0.0183,-0.9739,0.0567,
3.177553,-3.7071,1.7202,0.5199,-0.0183,-0.9739,0.0567,
3.179883,-0.7135,-0.0700,-0.3207,-0.0183,-0.9739,0.0567,
3.238501,-0.7135,-0.0700,-0.3207,-0.0073,-1.0547,-0.0032,
3.242851,-0.7135,-0.0700,-0.3207,-0.0073,-1.0547,-0.0032,
3.244055,-0.9168,-0.7814,1.7001,-0.0073,-1.0547,-0.0032,
3.304073,-0.9168,-0.7814,1.7001,0.0211,-1.1064,-0.1000,
3.309262,-0.9168,-0.7814,1.7001,0.0211,-1.1064,-0.1000,
3.310174,-0.3896,-0.5702,2.3218,0.0211,-1.1064,-0.1000,
3.371150,-0.3896,-0.5702,2.3218,-0.1147,-0.8853,-0.1359,
3.372593,-0.3896,-0.5702,2.3218,-0.1147,-0.8853,-0.1359,
3.373104,1.0502,1.3788,3.7537,-0.1147,-0.8853,-0.1359,
3.435201,1.0502,1.3788,3.7537,-0.6075,-0.3685,-0.4103,
3.438832,1.0502,1.3788,3.7537,-0.6075,-0.3685,-0.4103,
3.439651,0.4171,0.5913,0.0953,-0.6075,-0.3685,-0.4103,
3.500536,0.4171,0.5913,0.0953,-1.3761,-0.4869,0.4192,
3.504319,0.4171,0.5913,0.0953,-1.3761,-0.4869,0.4192,
3.504637,-7.4157,5.0385,0.9489,-1.3761,-0.4869,0.4192,
3.566396,-7.4157,5.0385,0.9489,-1.4003,-1.2810,-0.3028,
3.571388,-7.4157,5.0385,0.9489,-1.4003,-1.2810,-0.3028,
3.571718,-0.8116,-1.5655,-0.1538,-1.4003,-1.2810,-0.3028,
3.631771,-0.8116,-1.5655,-0.1538,-0.8544,1.2723,-0.6002,
3.635718,-0.8116,-1.5655,-0.1538,-0.8544,1.2723,-0.6002,
3.636389,-1.5360,-2.1786,1.5826,-0.8544,1.2723,-0.6002,
3.696729,-1.5360,-2.1786,1.5826,-0.4078,0.8563,-0.1629,
3.700652,-1.5360,-2.1786,1.5826,-0.4078,0.8563,-0.1629,
3.700976,-3.3216,-1.5686,1.8797,-0.4078,0.8563,-0.1629,
3.764584,-3.3216,-1.5686,1.8797,-0.1461,0.4041,0.0767,
3.768355,-3.3216,-1.5686,1.8797,-0.1461,0.4041,0.0767,
3.769428,-2.8195,-1.4782,1.2571,-0.1461,0.4041,0.0767,
3.828848,-2.8195,-1.4782,1.2571,-0.0373,0.4140,0.0551,
3.832409,-2.8195,-1.4782,1.2571,-0.0373,0.4140,0.0551,
3.832737,-1.5098,-1.2881,1.6776,-0.0373,0.4140,0.0551,
3.893426,-1.5098,-1.2881,1.6776,0.3063,0.5385,0.1654,
3.898908,-1.5098,-1.2881,1.6776,0.3063,0.5385,0.1654,
3.899952,-1.5922,-2.0386,1.8212,0.3063,0.5385,0.1654,
3.958404,-1.5922,-2.0386,1.8212,0.6458,0.8972,0.2928,
3.962454,-1.5922,-2.0386,1.8212,0.6458,0.8972,0.2928,
3.962748,-1.6438,-0.1980,2.8620,0.6458,0.8972,0.2928,
4.024645,-1.6438,-0.1980,2.8620,0.0851,0.8027,0.4439,
4.028461,-1.6438,-0.1980,2.8620,0.0851,0.8027,0.4439,
4.028831,-2.7173,1.7818,1.3572,0.0851,0.8027,0.4439,
4.091527,-2.7173,1.7818,1.3572,-0.1297,-0.3201,0.2659,
4.094171,-2.7173,1.7818,1.3572,-0.1297,-0.3201,0.2659,
4.094482,-4.7659,3.3527,2.7558,-0.1297,-0.3201,0.2659,
4.156553,-4.7659,3.3527,2.7558,0.4284,0.5550,-0.1437,
4.159678,-4.7659,3.3527,2.7558,0.4284,0.5550,-0.1437,
4.160023,-0.4602,-5.0932,-0.6043,0.4284,0.5550,-0.1437,
4.221518,-0.4602,-5.0932,-0.6043,1.0366,-0.6521,0.1481,
4.226166,-0.4602,-5.0932,-0.6043,1.0366,-0.6521,0.1481,
4.226978,-2.8964,2.3908,2.7938,1.0366,-0.6521,0.1481,
4.287059,-2.8964,2.3908,2.7938,0.9433,0.2062,0.6150,
4.290520,-2.8964,2.3908,2.7938,0.9433,0.2062,0.6150,
4.290845,0.3094,-3.8059,-2.9415,0.9433,0.2062,0.6150,
4.353554,0.3094,-3.8059,-2.9415,0.7124,0.1141,0.2879,
4.356046,0.3094,-3.8059,-2.9415,0.7124,0.1141,0.2879,
4.356343,-2.8948,0.5213,1.5748,0.7124,0.1141,0.2879,
4.417990,-2.8948,0.5213,1.5748,0.8137,-0.0354,0.1854,
4.423294,-2.8948,0.5213,1.5748,0.8137,-0.0354,0.1854,
4.424211,-2.3133,-0.2445,-0.9070,0.8137,-0.0354,0.1854,
4.482766,-2.3133,-0.2445,-0.9070,0.7819,-0.5669,0.1639,
4.487378,-2.3133,-0.2445,-0.9070,0.7819,-0.5669,0.1639,
4.487804,-2.6873,1.6747,1.2463,0.7819,-0.5669,0.1639,
4.548816,-2.6873,1.6747,1.2463,-0.2367,-1.5389,0.2960,
4.552411,-2.6873,1.6747,1.2463,-0.2367,-1.5389,0.2960,
4.552800,-1.8362,0.1406,1.7923,-0.2367,-1.5389,0.2960,
4.614850,-1.8362,0.1406,1.7923,-0.2211,-1.5053,0.0437,
4.618344,-1.8362,0.1406,1.7923,-0.2211,-1.5053,0.0437,
4.618872,-0.6021,1.4045,2.4502,-0.2211,-1.5053,0.0437,
4.680574,-0.6021,1.4045,2.4502,-0.5524,-1.5087,-0.3146,
4.683958,-0.6021,1.4045,2.4502,-0.5524,-1.5087,-0.3146,
4.684797,4.1542,1.8889,1.2680,-0.5524,-1.5087,-0.3146,
4.744580,4.1542,1.8889,1.2680,-0.4614,0.1776,0.0959,
4.748490,4.1542,1.8889,1.2680,-0.4614,0.1776,0.0959,
4.749043,-0.3744,4.3057,1.0969,-0.4614,0.1776,0.0959,
4.810863,-0.3744,4.3057,1.0969,-0.9876,-0.6706,-0.5227,
4.814457,-0.3744,4.3057,1.0969,-0.9876,-0.6706,-0.5227,
4.815255,-3.7098,-1.8750,0.3721,-0.9876,-0.6706,-0.5227,
4.876996,-3.7098,-1.8750,0.3721,-0.9985,0.5238,0.0658,
4.879579,-3.7098,-1.8750,0.3721,-0.9985,0.5238,0.0658,
4.880049,-0.4486,-0.2845,0.9223,-0.9985,0.5238,0.0658,
4.941559,-0.4486,-0.2845,0.9223,-0.5684,1.0857,-0.2761,
4.945266,-0.4486,-0.2845,0.9223,-0.5684,1.0857,-0.2761,
4.945589,-3.5041,-0.3322,2.4263,-0.5684,1.0857,-0.2761,
5.007741,-3.5041,-0.3322,2.4263,-0.6248,1.0230,0.1324,
5.010955,-3.5041,-0.3322,2.4263,-0.6248,1.0230,0.1324,
5.011834,-2.1541,-1.3624,1.1158,-0.6248,1.0230,0.1324,
5.071887,-2.1541,-1.3624,1.1158,-0.2792,1.2889,0.0973,
5.076361,-2.1541,-1.3624,1.1158,-0.2792,1.2889,0.0973,
5.077349,-2.1418,-1.4811,1.3893,-0.2792,1.2889,0.0973,
5.138712,-2.1418,-1.4811,1.3893,-0.1052,1.2075,0.1739,
5.141668,-2.1418,-1.4811,1.3893,-0.1052,1.2075,0.1739,
5.142154,-2.9290,-1.3968,1.3341,-0.1052,1.2075,0.1739,
5.203050,-2.9290,-1.3968,1.3341,-0.2256,0.4435,0.3422,
5.207362,-2.9290,-1.3968,1.3341,-0.2256,0.4435,0.3422,
5.208172,-2.5174,-0.3122,2.1663,-0.2256,0.4435,0.3422,
5.268456,-2.5174,-0.3122,2.1663,-0.0649,0.4792,0.1772,
5.275513,-2.5174,-0.3122,2.1663,-0.0649,0.4792,0.1772,
5.276587,-1.3881,-1.2552,2.6870,-0.0649,0.4792,0.1772,
5.333391,-1.3881,-1.2552,2.6870,0.2005,0.9699,-0.0559,
5.337679,-1.3881,-1.2552,2.6870,0.2005,0.9699,-0.0559,
5.338299,-2.3071,-0.0738,2.2976,0.2005,0.9699,-0.0559,
5.399625,-2.3071,-0.0738,2.2976,-0.1817,-0.4464,0.0675,
5.404136,-2.3071,-0.0738,2.2976,-0.1817,-0.4464,0.0675,
5.404967,-5.9025,6.1508,2.6277,-0.1817,-0.4464,0.0675,
5.464057,-5.9025,6.1508,2.6277,0.8894,0.1539,0.2213,
5.469021,-5.9025,6.1508,2.6277,0.8894,0.1539,0.2213,
5.469741,-0.6786,-2.5295,-1.4893,0.8894,0.1539,0.2213,
5.531666,-0.6786,-2.5295,-1.4893,0.8581,-0.2531,-0.3189,
5.534895,-0.6786,-2.5295,-1.4893,0.8581,-0.2531,-0.3189,
5.535738,-2.1506,1.1277,1.0947,0.8581,-0.2531,-0.3189,
5.595861,-2.1506,1.1277,1.0947,1.0846,-0.1006,0.1779,
5.600915,-2.1506,1.1277,1.0947,1.0846,-0.1006,0.1779,
5.602519,0.0922,-2.6443,-2.7211,1.0846,-0.1006,0.1779,
5.661351,0.0922,-2.6443,-2.7211,1.0939,1.1069,0.2181,
5.664393,0.0922,-2.6443,-2.7211,1.0939,1.1069,0.2181,
5.665495,-0.8852,0.0622,-0.1755,1.0939,1.1069,0.2181,
5.728901,-0.8852,0.0622,-0.1755,1.0076,0.1565,0.3042,
5.732020,-0.8852,0.0622,-0.1755,1.0076,0.1565,0.3042,
5.732347,-3.3138,-0.1836,-0.7188,1.0076,0.1565,0.3042,
5.793015,-3.3138,-0.1836,-0.7188,0.4817,-0.3836,0.2677,
5.796705,-3.3138,-0.1836,-0.7188,0.4817,-0.3836,0.2677,
5.797108,-1.6709,1.0099,0.5468,0.4817,-0.3836,0.2677,
5.858747,-1.6709,1.0099,0.5468,0.0359,-0.9500,0.1843,
5.862934,-1.6709,1.0099,0.5468,0.0359,-0.9500,0.1843,
5.863392,-2.3255,1.1924,1.5369,0.0359,-0.9500,0.1843,
5.924596,-2.3255,1.1924,1.5369,-0.4856,-1.3111,0.1396,
5.927764,-2.3255,1.1924,1.5369,-0.4856,-1.3111,0.1396,
5.928121,-0.5064,1.2496,2.5918,-0.4856,-1.3111,0.1396,
5.989611,-0.5064,1.2496,2.5918,-0.5198,-1.2039,-0.1423,
5.993933,-0.5064,1.2496,2.5918,-0.5198,-1.2039,-0.1423,
5.994344,1.7776,1.2173,1.9819,-0.5198,-1.2039,-0.1423,
6.054995,1.7776,1.2173,1.9819,-0.9442,-0.6978,-0.5751,
6.057983,1.7776,1.2173,1.9819,-0.9442,-0.6978,-0.5751,
6.058815,2.1158,1.6821,-1.3134,-0.9442,-0.6978,-0.5751,
6.120345,2.1158,1.6821,-1.3134,-0.3853,0.2585,0.0399,
6.123826,2.1158,1.6821,-1.3134,-0.3853,0.2585,0.0399,
6.124175,-5.0732,1.3608,-0.0397,-0.3853,0.2585,0.0399,
6.186969,-5.0732,1.3608,-0.0397,-1.3266,-0.0825,-0.1226,
6.190104,-5.0732,1.3608,-0.0397,-1.3266,-0.0825,-0.1226,
6.190673,-3.0776,0.2128,0.5880,-1.3266,-0.0825,-0.1226,
6.250446,-3.0776,0.2128,0.5880,-0.8457,1.4349,-0.1643,
6.254265,-3.0776,0.2128,0.5880,-0.8457,1.4349,-0.1643,
6.254585,-0.7653,-1.5974,0.7282,-0.8457,1.4349,-0.1643,
6.315778,-0.7653,-1.5974,0.7282,-0.5119,1.7489,0.0365,
6.320186,-0.7653,-1.5974,0.7282,-0.5119,1.7489,0.0365,
6.321483,-2.7995,-1.2350,0.5611,-0.5119,1.7489,0.0365,
6.381137,-2.7995,-1.2350,0.5611,-0.2445,1.5330,0.3228,
6.385967,-2.7995,-1.2350,0.5611,-0.2445,1.5330,0.3228,
6.386311,-2.7966,-1.4911,0.9824,-0.2445,1.5330,0.3228,
6.447026,-2.7966,-1.4911,0.9824,-0.1538,1.1480,0.3911,
6.451176,-2.7966,-1.4911,0.9824,-0.1538,1.1480,0.3911,
6.451605,-2.5352,-1.2670,0.6277,-0.1538,1.1480,0.3911,
6.513819,-2.5352,-1.2670,0.6277,-0.0313,0.6529,0.3166,
6.516607,-2.5352,-1.2670,0.6277,-0.0313,0.6529,0.3166,
6.517449,-3.0300,-0.3251,1.9025,-0.0313,0.6529,0.3166,
6.579325,-3.0300,-0.3251,1.9025,-0.0316,0.7527,0.0971,
6.582184,-3.0300,-0.3251,1.9025,-0.0316,0.7527,0.0971,
6.582504,-1.7098,-0.4628,2.0169,-0.0316,0.7527,0.0971,
6.652157,-1.7098,-0.4628,2.0169,-0.4962,1.4172,0.0530,
6.655000,-1.7098,-0.4628,2.0169,-0.4962,1.4172,0.0530,
6.655713,-2.3761,2.8927,0.0157,-0.4962,1.4172,0.0530,
6.707943,-2.3761,2.8927,0.0157,0.6246,-0.4386,0.4985,
6.713539,-2.3761,2.8927,0.0157,0.6246,-0.4386,0.4985,
6.714149,-4.2133,-0.9805,-2.7689,0.6246,-0.4386,0.4985,
6.776921,-4.2133,-0.9805,-2.7689,0.6655,0.0246,-0.4986,
6.779925,-4.2133,-0.9805,-2.7689,0.6655,0.0246,-0.4986,
6.780251,-1.9001,1.1897,-2.0804,0.6655,0.0246,-0.4986,
6.842343,-1.9001,1.1897,-2.0804,1.2608,-0.3561,-0.0144,
6.845083,-1.9001,1.1897,-2.0804,1.2608,-0.3561,-0.0144,
6.845542,-0.8968,0.2221,-0.1091,1.2608,-0.3561,-0.0144,
6.906647,-0.8968,0.2221,-0.1091,1.0091,0.5041,0.0547,
6.910977,-0.8968,0.2221,-0.1091,1.0091,0.5041,0.0547,
6.911979,-0.4418,-1.3437,-3.2622,1.0091,0.5041,0.0547,
6.971884,-0.4418,-1.3437,-3.2622,0.4673,0.8311,-0.0884,
6.975378,-0.4418,-1.3437,-3.2622,0.4673,0.8311,-0.0884,
6.975751,-2.8375,1.1021,-0.3933,0.4673,0.8311,-0.0884,
7.036975,-2.8375,1.1021,-0.3933,0.2450,0.3085,0.1524,
7.041274,-2.8375,1.1021,-0.3933,0.2450,0.3085,0.1524,
7.041622,-1.9995,-1.2676,-1.2659,0.2450,0.3085,0.1524,
7.102896,-1.9995,-1.2676,-1.2659,0.3868,-0.0151,-0.0073,
7.106002,-1.9995,-1.2676,-1.2659,0.3868,-0.0151,-0.0073,
7.106676,-1.3537,-0.5515,0.0637,0.3868,-0.0151,-0.0073,
7.166291,-1.3537,-0.5515,0.0637,0.1428,-0.5214,0.0014,
7.172521,-1.3537,-0.5515,0.0637,0.1428,-0.5214,0.0014,
7.173029,-1.9768,-0.3481,0.5780,0.1428,-0.5214,0.0014,
7.232398,-1.9768,-0.3481,0.5780,0.0768,-0.8317,-0.0748,
7.236222,-1.9768,-0.3481,0.5780,0.0768,-0.8317,-0.0748,
7.236528,-0.5333,-0.8414,0.6996,0.0768,-0.8317,-0.0748,
7.298119,-0.5333,-0.8414,0.6996,0.2359,-0.5646,-0.1042,
7.302357,-0.5333,-0.8414,0.6996,0.2359,-0.5646,-0.1042,
7.302706,1.4299,0.7934,1.8435,0.2359,-0.5646,-0.1042,
7.363539,1.4299,0.7934,1.8435,-0.1536,-0.4009,0.0489,
7.366725,1.4299,0.7934,1.8435,-0.1536,-0.4009,0.0489,
7.367065,0.8804,0.8586,0.9139,-0.1536,-0.4009,0.0489,
7.430081,0.8804,0.8586,0.9139,-0.2242,0.4019,1.3042,
7.434737,0.8804,0.8586,0.9139,-0.2242,0.4019,1.3042,
7.435056,-3.1062,3.5752,-2.6353,-0.2242,0.4019,1.3042,
7.495776,-3.1062,3.5752,-2.6353,-1.6257,0.6089,-0.3010,
7.498543,-3.1062,3.5752,-2.6353,-1.6257,0.6089,-0.3010,
7.498891,-1.3722,0.9918,1.0403,-1.6257,0.6089,-0.3010,
7.561535,-1.3722,0.9918,1.0403,-1.1084,2.3783,-0.2561,
7.564415,-1.3722,0.9918,1.0403,-1.1084,2.3783,-0.2561,
7.564655,-0.7324,-0.5599,-0.7427,-1.1084,2.3783,-0.2561,
7.627144,-0.7324,-0.5599,-0.7427,-0.5948,2.4910,-0.2046,
7.630371,-0.7324,-0.5599,-0.7427,-0.5948,2.4910,-0.2046,
7.631144,-2.4516,-2.2341,-1.2934,-0.5948,2.4910,-0.2046,
7.693313,-2.4516,-2.2341,-1.2934,-0.2001,1.9710,0.3375,
7.696918,-2.4516,-2.2341,-1.2934,-0.2001,1.9710,0.3375,
7.697783,-2.5505,-1.5190,-2.0304,-0.2001,1.9710,0.3375,
7.756517,-2.5505,-1.5190,-2.0304,0.0150,1.6959,0.2297,
7.760856,-2.5505,-1.5190,-2.0304,0.0150,1.6959,0.2297,
7.761263,-3.3748,-1.1063,-1.5250,0.0150,1.6959,0.2297,
7.823004,-3.3748,-1.1063,-1.5250,-0.2240,0.7570,0.4548,
7.826521,-3.3748,-1.1063,-1.5250,-0.2240,0.7570,0.4548,
7.827163,-3.2924,-0.4541,-0.1539,-0.2240,0.7570,0.4548,
7.887777,-3.2924,-0.4541,-0.1539,0.0809,-0.1854,-0.3409,
7.892119,-3.2924,-0.4541,-0.1539,0.0809,-0.1854,-0.3409,
7.892490,-1.8192,0.5056,2.0742,0.0809,-0.1854,-0.3409,
7.953113,-1.8192,0.5056,2.0742,-0.3360,1.4125,-0.6813,
7.957826,-1.8192,0.5056,2.0742,-0.3360,1.4125,-0.6813,
7.958568,0.5024,4.1239,-2.2425,-0.3360,1.4125,-0.6813,
8.021994,0.5024,4.1239,-2.2425,1.4419,-0.5194,-1.0999,
8.024479,0.5024,4.1239,-2.2425,1.4419,-0.5194,-1.0999,
8.024787,-4.7774,-0.2536,-5.5563,1.4419,-0.5194,-1.0999,
8.085303,-4.7774,-0.2536,-5.5563,0.8073,0.9094,0.6904,
8.087998,-4.7774,-0.2536,-5.5563,0.8073,0.9094,0.6904,
8.088500,4.5495,0.0069,0.5839,0.8073,0.9094,0.6904,
8.150223,4.5495,0.0069,0.5839,0.7359,2.6916,0.5058,
8.153839,4.5495,0.0069,0.5839,0.7359,2.6916,0.5058,
8.154694,2.8200,-2.0852,-5.9528,0.7359,2.6916,0.5058,
8.214996,2.8200,-2.0852,-5.9528,1.0944,2.8931,0.4760,
8.220051,2.8200,-2.0852,-5.9528,1.0944,2.8931,0.4760,
8.220374,-1.2455,0.0335,-4.7895,1.0944,2.8931,0.4760,
8.280550,-1.2455,0.0335,-4.7895,0.0974,1.9279,-0.0208,
8.284809,-1.2455,0.0335,-4.7895,0.0974,1.9279,-0.0208,
8.285143,-1.9665,-0.5002,-2.6735,0.0974,1.9279,-0.0208,
8.346402,-1.9665,-0.5002,-2.6735,0.2918,0.5754,-0.2908,
8.350150,-1.9665,-0.5002,-2.6735,0.2918,0.5754,-0.2908,
8.350967,-2.8541,-0.9031,-0.5007,0.2918,0.5754,-0.2908,
8.411380,-2.8541,-0.9031,-0.5007,-0.0330,-1.0849,-0.2219,
8.415501,-2.8541,-0.9031,-0.5007,-0.0330,-1.0849,-0.2219,
8.416339,1.0826,0.5127,-0.5196,-0.0330,-1.0849,-0.2219,
8.475804,1.0826,0.5127,-0.5196,-0.2366,-0.9235,-0.2254,
8.480197,1.0826,0.5127,-0.5196,-0.2366,-0.9235,-0.2254,
8.481031,5.4584,-0.8576,-0.6103,-0.2366,-0.9235,-0.2254,
8.543091,5.4584,-0.8576,-0.6103,-0.5293,0.2866,-0.2876,
8.546479,5.4584,-0.8576,-0.6103,-0.5293,0.2866,-0.2876,
8.547351,2.4945,2.2135,-4.0067,-0.5293,0.2866,-0.2876,
8.607083,2.4945,2.2135,-4.0067,-0.3812,1.7546,0.4187,
8.611554,2.4945,2.2135,-4.0067,-0.3812,1.7546,0.4187,
8.612456,-1.7501,3.1981,-5.2607,-0.3812,1.7546,0.4187,
8.673067,-1.7501,3.1981,-5.2607,-1.1559,0.6428,-0.2767,
8.677369,-1.7501,3.1981,-5.2607,-1.1559,0.6428,-0.2767,
8.677782,-6.1339,-0.5460,-1.5705,-1.1559,0.6428,-0.2767,
8.740801,-6.1339,-0.5460,-1.5705,-1.1263,0.9442,-0.1736,
8.743298,-6.1339,-0.5460,-1.5705,-1.1263,0.9442,-0.1736,
8.743577,-0.9563,0.0328,-1.4131,-1.1263,0.9442,-0.1736,
8.804498,-0.9563,0.0328,-1.4131,-0.7210,0.3063,-0.0774,
8.807745,-0.9563,0.0328,-1.4131,-0.7210,0.3063,-0.0774,
8.808109,-0.7908,-1.4076,-2.4881,-0.7210,0.3063,-0.0774,
8.870744,-0.7908,-1.4076,-2.4881,-0.0745,1.1186,-0.0899,
8.873591,-0.7908,-1.4076,-2.4881,-0.0745,1.1186,-0.0899,
8.874807,-0.8286,-2.0318,-1.9900,-0.0745,1.1186,-0.0899,
8.936681,-0.8286,-2.0318,-1.9900,0.1446,1.1124,-0.0098,
8.939787,-0.8286,-2.0318,-1.9900,0.1446,1.1124,-0.0098,
8.940086,-0.4941,-1.1651,-1.4299,0.1446,1.1124,-0.0098,
9.000983,-0.4941,-1.1651,-1.4299,0.2072,0.7089,0.2827,
9.004571,-0.4941,-1.1651,-1.4299,0.2072,0.7089,0.2827,
9.005529,-0.6488,-1.1298,-1.0289,0.2072,0.7089,0.2827,
9.065853,-0.6488,-1.1298,-1.0289,0.4200,0.5311,0.0936,
9.069879,-0.6488,-1.1298,-1.0289,0.4200,0.5311,0.0936,
9.070507,-0.4325,0.5976,2.2460,0.4200,0.5311,0.0936,
9.131856,-0.4325,0.5976,2.2460,-0.8068,1.6942,0.1975,
9.134990,-0.4325,0.5976,2.2460,-0.8068,1.6942,0.1975,
9.135846,1.6180,6.4379,-2.7769,-0.8068,1.6942,0.1975,
9.197146,1.6180,6.4379,-2.7769,1.7225,0.1277,-0.7911,
9.203149,1.6180,6.4379,-2.7769,1.7225,0.1277,-0.7911,
9.204021,-6.4849,-0.0198,-5.6163,1.7225,0.1277,-0.7911,
9.262938,-6.4849,-0.0198,-5.6163,-0.0535,-0.4184,2.1791,
9.266479,-6.4849,-0.0198,-5.6163,-0.0535,-0.4184,2.1791,
9.267357,7.1112,-2.7885,1.2298,-0.0535,-0.4184,2.1791,
9.329353,7.1112,-2.7885,1.2298,0.3415,1.1700,0.4181,
9.332854,7.1112,-2.7885,1.2298,0.3415,1.1700,0.4181,
9.333242,4.3528,-2.1584,-3.9372,0.3415,1.1700,0.4181,
9.392722,4.3528,-2.1584,-3.9372,1.0376,1.7843,-0.0441,
9.397879,4.3528,-2.1584,-3.9372,1.0376,1.7843,-0.0441,
9.398889,-0.8235,-1.0802,-4.0068,1.0376,1.7843,-0.0441,
9.458887,-0.8235,-1.0802,-4.0068,0.2815,0.5066,0.3384,
9.463169,-0.8235,-1.0802,-4.0068,0.2815,0.5066,0.3384,
9.463844,-2.7062,0.9976,-3.1759,0.2815,0.5066,0.3384,
9.523910,-2.7062,0.9976,-3.1759,-0.0929,-0.6990,0.1575,
9.529607,-2.7062,0.9976,-3.1759,-0.0929,-0.6990,0.1575,
9.530468,-0.7000,-0.7842,-2.6388,-0.0929,-0.6990,0.1575,
9.589613,-0.7000,-0.7842,-2.6388,0.0228,-1.7750,0.3291,
9.593975,-0.7000,-0.7842,-2.6388,0.0228,-1.7750,0.3291,
9.594811,-0.1342,-1.0504,-2.6027,0.0228,-1.7750,0.3291,
9.655672,-0.1342,-1.0504,-2.6027,-0.0304,-2.0930,0.1336,
9.661055,-0.1342,-1.0504,-2.6027,-0.0304,-2.0930,0.1336,
9.661448,1.5713,-0.5944,-1.9244,-0.0304,-2.0930,0.1336,
9.720486,1.5713,-0.5944,-1.9244,0.1419,-1.4597,-0.1145,
9.725110,1.5713,-0.5944,-1.9244,0.1419,-1.4597,-0.1145,
9.725484,3.9029,-0.2241,-0.8914,0.1419,-1.4597,-0.1145,
9.786536,3.9029,-0.2241,-0.8914,0.1503,-0.3465,-0.1772,
9.789833,3.9029,-0.2241,-0.8914,0.1503,-0.3465,-0.1772,
9.790564,3.5492,0.5088,-0.0022,0.1503,-0.3465,-0.1772,
9.852365,3.5492,0.5088,-0.0022,-0.1086,-0.2324,-0.2960,
9.855867,3.5492,0.5088,-0.0022,-0.1086,-0.2324,-0.2960,
9.856953,0.0216,1.4645,-0.3325,-0.1086,-0.2324,-0.2960,
9.917908,0.0216,1.4645,-0.3325,-0.7621,-0.2770,0.2955,
9.921093,0.0216,1.4645,-0.3325,-0.7621,-0.2770,0.2955,
9.921818,-0.6688,2.2442,-5.2977,-0.7621,-0.2770,0.2955,
9.982927,-0.6688,2.2442,-5.2977,-1.6437,-0.5075,-0.0490,
9.986944,-0.6688,2.2442,-5.2977,-1.6437,-0.5075,-0.0490,
9.987260,-5.1578,1.2898,-0.7797,-1.6437,-0.5075,-0.0490,
10.048735,-5.1578,1.2898,-0.7797,-1.1984,-0.0764,-0.4012,
10.052722,-5.1578,1.2898,-0.7797,-1.1984,-0.0764,-0.4012,
10.053066,0.9041,-0.8342,-1.6565,-1.1984,-0.0764,-0.4012,
10.113888,0.9041,-0.8342,-1.6565,-0.7671,1.5831,-0.0519,
10.118205,0.9041,-0.8342,-1.6565,-0.7671,1.5831,-0.0519,
10.118583,-0.2619,-2.9579,-1.6964,-0.7671,1.5831,-0.0519,
10.179747,-0.2619,-2.9579,-1.6964,-0.3105,1.7075,0.3114,
10.183347,-0.2619,-2.9579,-1.6964,-0.3105,1.7075,0.3114,
10.183997,-1.2624,-0.0216,-1.8352,-0.3105,1.7075,0.3114,
10.245545,-1.2624,-0.0216,-1.8352,0.2485,1.4384,0.0606,
10.248665,-1.2624,-0.0216,-1.8352,0.2485,1.4384,0.0606,
10.248996,-0.7794,-1.1955,-1.6092,0.2485,1.4384,0.0606,
10.310723,-0.7794,-1.1955,-1.6092,0.6026,1.2879,-0.1011,
10.315136,-0.7794,-1.1955,-1.6092,0.6026,1.2879,-0.1011,
10.315954,-0.0551,-1.2958,-0.9637,0.6026,1.2879,-0.1011,
10.376947,-0.0551,-1.2958,-0.9637,0.7787,0.9178,-0.0877,
10.380098,-0.0551,-1.2958,-0.9637,0.7787,0.9178,-0.0877,
10.380905,0.0893,-0.5531,1.0959,0.7787,0.9178,-0.0877,
10.440076,0.0893,-0.5531,1.0959,-0.2770,1.5912,0.0932,
10.446054,0.0893,-0.5531,1.0959,-0.2770,1.5912,0.0932,
10.446403,0.0780,3.2488,-2.8527,-0.2770,1.5912,0.0932,
10.507407,0.0780,3.2488,-2.8527,1.4016,-0.4833,-0.8054,
10.510800,0.0780,3.2488,-2.8527,1.4016,-0.4833,-0.8054,
10.511599,-3.0997,1.9122,-4.9992,1.4016,-0.4833,-0.8054,
10.571816,-3.0997,1.9122,-4.9992,0.9989,0.7381,0.4942,
10.575126,-3.0997,1.9122,-4.9992,0.9989,0.7381,0.4942,
10.575445,3.1314,-2.1773,-1.7478,0.9989,0.7381,0.4942,
10.636895,3.1314,-2.1773,-1.7478,-0.4420,-0.8691,0.7654,
10.641343,3.1314,-2.1773,-1.7478,-0.4420,-0.8691,0.7654,
10.642528,1.5808,0.6289,-2.8059,-0.4420,-0.8691,0.7654,
10.704031,1.5808,0.6289,-2.8059,0.5322,0.7831,0.2227,
10.707802,1.5808,0.6289,-2.8059,0.5322,0.7831,0.2227,
10.708147,0.9839,-1.6735,-3.5766,0.5322,0.7831,0.2227,
10.768346,0.9839,-1.6735,-3.5766,0.3151,-0.1202,0.3775,
10.771908,0.9839,-1.6735,-3.5766,0.3151,-0.1202,0.3775,
10.772802,-1.2547,-0.0234,-2.4412,0.3151,-0.1202,0.3775,
10.833559,-1.2547,-0.0234,-2.4412,-0.1329,-1.0014,0.2448,
10.839912,-1.2547,-0.0234,-2.4412,-0.1329,-1.0014,0.2448,
10.840593,-0.3771,-0.6131,-2.4603,-0.1329,-1.0014,0.2448,
10.900614,-0.3771,-0.6131,-2.4603,-0.2111,-1.4064,0.1089,
10.905117,-0.3771,-0.6131,-2.4603,-0.2111,-1.4064,0.1089,
10.905545,0.3626,-0.2596,-1.3482,-0.2111,-1.4064,0.1089,
10.966468,0.3626,-0.2596,-1.3482,-0.0990,-1.6890,0.2266,
10.970054,0.3626,-0.2596,-1.3482,-0.0990,-1.6890,0.2266,
10.970369,1.7033,-0.6856,-0.8422,-0.0990,-1.6890,0.2266,
11.032919,1.7033,-0.6856,-0.8422,0.1663,-0.7068,0.0791,
11.035500,1.7033,-0.6856,-0.8422,0.1663,-0.7068,0.0791,
11.036563,2.5637,-0.7797,-0.5552,0.1663,-0.7068,0.0791,
11.097598,2.5637,-0.7797,-0.5552,0.2150,-0.3650,-0.2402,
11.100022,2.5637,-0.7797,-0.5552,0.2150,-0.3650,-0.2402,
11.100310,1.1698,-0.0347,0.0905,0.2150,-0.3650,-0.2402,
11.161123,1.1698,-0.0347,0.0905,-0.0464,-0.8865,-0.2421,
11.165094,1.1698,-0.0347,0.0905,-0.0464,-0.8865,-0.2421,
11.165917,1.0333,0.8054,-1.5543,-0.0464,-0.8865,-0.2421,
11.227543,1.0333,0.8054,-1.5543,-0.3250,0.1669,0.4452,
11.231360,1.0333,0.8054,-1.5543,-0.3250,0.1669,0.4452,
11.232176,0.3247,4.3586,-4.4825,-0.3250,0.1669,0.4452,
11.292601,0.3247,4.3586,-4.4825,-1.7092,-0.7133,-0.0889,
11.296805,0.3247,4.3586,-4.4825,-1.7092,-0.7133,-0.0889,
11.298329,-4.2899,0.5812,-3.9801,-1.7092,-0.7133,-0.0889,
11.358145,-4.2899,0.5812,-3.9801,-1.1561,0.1234,-0.0791,
11.361443,-4.2899,0.5812,-3.9801,-1.1561,0.1234,-0.0791,
11.362268,-0.2044,-0.1533,-1.9533,-1.1561,0.1234,-0.0791,
11.426280,-0.2044,-0.1533,-1.9533,-1.0999,0.5258,-0.1909,
11.429468,-0.2044,-0.1533,-1.9533,-1.0999,0.5258,-0.1909,
11.431054,-0.7901,-1.2626,-1.6767,-1.0999,0.5258,-0.1909,
11.492081,-0.7901,-1.2626,-1.6767,-0.5654,0.2140,0.1756,
11.495343,-0.7901,-1.2626,-1.6767,-0.5654,0.2140,0.1756,
11.495713,-1.1026,-1.8190,-1.7921,-0.5654,0.2140,0.1756,
11.554118,-1.1026,-1.8190,-1.7921,0.0005,0.4406,0.0551,
11.557626,-1.1026,-1.8190,-1.7921,0.0005,0.4406,0.0551,
11.558379,-0.2971,-1.5530,-1.2303,0.0005,0.4406,0.0551,
11.619298,-0.2971,-1.5530,-1.2303,0.3341,0.4453,0.0107,
11.624400,-0.2971,-1.5530,-1.2303,0.3341,0.4453,0.0107,
11.624710,-0.1826,-1.0691,-0.6264,0.3341,0.4453,0.0107,
11.686847,-0.1826,-1.0691,-0.6264,0.4061,0.4633,0.0475,
11.691018,-0.1826,-1.0691,-0.6264,0.4061,0.4633,0.0475,
11.691352,0.5205,0.0854,0.3624,0.4061,0.4633,0.0475,
11.751734,0.5205,0.0854,0.3624,0.3711,1.2512,-0.0437,
11.754985,0.5205,0.0854,0.3624,0.3711,1.2512,-0.0437,
11.755356,1.2304,0.5262,1.1460,0.3711,1.2512,-0.0437,
11.816260,1.2304,0.5262,1.1460,-0.0600,0.5738,-0.5831,
11.820143,1.2304,0.5262,1.1460,-0.0600,0.5738,-0.5831,
11.820467,-2.6387,8.7211,-3.5320,-0.0600,0.5738,-0.5831,
11.881479,-2.6387,8.7211,-3.5320,0.7648,1.4936,-0.1378,
11.885920,-2.6387,8.7211,-3.5320,0.7648,1.4936,-0.1378,
11.886290,-0.4324,-1.8146,-2.7732,0.7648,1.4936,-0.1378,
11.947346,-0.4324,-1.8146,-2.7732,0.3968,-0.1558,1.0244,
11.951801,-0.4324,-1.8146,-2.7732,0.3968,-0.1558,1.0244,
11.952896,0.3687,-1.2148,-2.1766,0.3968,-0.1558,1.0244,
12.012467,0.3687,-1.2148,-2.1766,0.7643,-0.0160,0.4203,
12.017148,0.3687,-1.2148,-2.1766,0.7643,-0.0160,0.4203,
12.018152,2.6344,-1.4094,-4.1647,0.7643,-0.0160,0.4203,
12.077419,2.6344,-1.4094,-4.1647,1.1445,0.8798,0.5134,
12.081803,2.6344,-1.4094,-4.1647,1.1445,0.8798,0.5134,
12.082758,-0.7710,-1.1244,-3.4429,1.1445,0.8798,0.5134,
12.144898,-0.7710,-1.1244,-3.4429,0.6329,-0.2706,0.1837,
12.147673,-0.7710,-1.1244,-3.4429,0.6329,-0.2706,0.1837,
12.148143,-1.1294,0.3872,-2.3166,0.6329,-0.2706,0.1837,
12.209658,-1.1294,0.3872,-2.3166,0.0628,-1.0624,0.2372,
12.213414,-1.1294,0.3872,-2.3166,0.0628,-1.0624,0.2372,
12.213868,0.0146,0.2597,-1.5992,0.0628,-1.0624,0.2372,
12.274211,0.0146,0.2597,-1.5992,-0.1805,-1.7373,0.4317,
12.278884,0.0146,0.2597,-1.5992,-0.1805,-1.7373,0.4317,
12.280223,0.8796,-0.3715,-1.0536,-0.1805,-1.7373,0.4317,
12.340092,0.8796,-0.3715,-1.0536,-0.3392,-1.1672,0.1049,
12.344654,0.8796,-0.3715,-1.0536,-0.3392,-1.1672,0.1049,
12.346091,1.2673,-0.7489,0.3013,-0.3392,-1.1672,0.1049,
12.405591,1.2673,-0.7489,0.3013,0.2153,-1.2495,0.0258,
12.409470,1.2673,-0.7489,0.3013,0.2153,-1.2495,0.0258,
12.410281,2.4797,-0.6963,-0.4474,0.2153,-1.2495,0.0258,
12.470845,2.4797,-0.6963,-0.4474,0.1544,-1.2497,-0.4380,
12.474463,2.4797,-0.6963,-0.4474,0.1544,-1.2497,-0.4380,
12.475275,2.0742,0.9228,0.5920,0.1544,-1.2497,-0.4380,
12.536595,2.0742,0.9228,0.5920,-0.1315,-0.1805,0.0027,
12.540629,2.0742,0.9228,0.5920,-0.1315,-0.1805,0.0027,
12.541681,2.0740,3.1542,-3.4860,-0.1315,-0.1805,0.0027,
12.602426,2.0740,3.1542,-3.4860,-0.4377,0.3816,0.3856,
12.606465,2.0740,3.1542,-3.4860,-0.4377,0.3816,0.3856,
12.607283,-1.6863,1.3219,-5.4714,-0.4377,0.3816,0.3856,
12.667596,-1.6863,1.3219,-5.4714,-1.6671,0.4508,-0.0283,
12.671331,-1.6863,1.3219,-5.4714,-1.6671,0.4508,-0.0283,
12.672333,-1.6329,-0.8228,-0.9414,-1.6671,0.4508,-0.0283,
12.731897,-1.6329,-0.8228,-0.9414,-0.7752,1.8040,-0.2969,
12.736957,-1.6329,-0.8228,-0.9414,-0.7752,1.8040,-0.2969,
12.738441,-0.7466,-0.9767,-1.7649,-0.7752,1.8040,-0.2969,
12.797563,-0.7466,-0.9767,-1.7649,-0.6649,1.5537,0.0640,
12.801631,-0.7466,-0.9767,-1.7649,-0.6649,1.5537,0.0640,
12.802531,-0.8367,-1.1123,-2.0067,-0.6649,1.5537,0.0640,
12.863643,-0.8367,-1.1123,-2.0067,-0.2503,1.3583,0.1196,
12.867799,-0.8367,-1.1123,-2.0067,-0.2503,1.3583,0.1196,
12.868628,-0.4768,-0.4879,-1.9764,-0.2503,1.3583,0.1196,
12.929029,-0.4768,-0.4879,-1.9764,0.1807,1.1417,-0.1008,
12.932779,-0.4768,-0.4879,-1.9764,0.1807,1.1417,-0.1008,
12.933683,0.3327,-1.3326,-1.2159,0.1807,1.1417,-0.1008,
12.994377,0.3327,-1.3326,-1.2159,0.3302,1.2004,-0.1286,
12.999364,0.3327,-1.3326,-1.2159,0.3302,1.2004,-0.1286,
13.000190,2.0407,-0.4467,0.4607,0.3302,1.2004,-0.1286,
13.059376,2.0407,-0.4467,0.4607,0.2819,1.8295,-0.0392,
13.063694,2.0407,-0.4467,0.4607,0.2819,1.8295,-0.0392,
13.065001,2.3434,-1.1520,1.2359,0.2819,1.8295,-0.0392,
13.125864,2.3434,-1.1520,1.2359,-0.0556,1.2556,-0.5026,
13.129528,2.3434,-1.1520,1.2359,-0.0556,1.2556,-0.5026,
13.130240,0.0324,11.0494,-3.2486,-0.0556,1.2556,-0.5026,
13.191312,0.0324,11.0494,-3.2486,0.9192,1.0050,-0.5313,
13.195591,0.0324,11.0494,-3.2486,0.9192,1.0050,-0.5313,
13.195938,0.0993,-3.2683,-4.1135,0.9192,1.0050,-0.5313,
13.256787,0.0993,-3.2683,-4.1135,1.1379,0.8549,0.5962,
13.262030,0.0993,-3.2683,-4.1135,1.1379,0.8549,0.5962,
13.263206,2.0269,-1.3432,-3.6344,1.1379,0.8549,0.5962,
13.322291,2.0269,-1.3432,-3.6344,0.3824,0.5137,0.3639,
13.326484,2.0269,-1.3432,-3.6344,0.3824,0.5137,0.3639,
13.327624,3.3698,0.3438,-4.0472,0.3824,0.5137,0.3639,
13.388366,3.3698,0.3438,-4.0472,0.6562,1.0895,0.2286,
13.391582,3.3698,0.3438,-4.0472,0.6562,1.0895,0.2286,
13.392511,0.1238,-1.4364,-1.8933,0.6562,1.0895,0.2286,
13.453513,0.1238,-1.4364,-1.8933,0.4566,0.4679,0.3879,
13.456535,0.1238,-1.4364,-1.8933,0.4566,0.4679,0.3879,
13.456889,0.1634,1.2582,-1.2791,0.4566,0.4679,0.3879,
13.518568,0.1634,1.2582,-1.2791,-0.2254,0.0075,0.2605,
13.522275,0.1634,1.2582,-1.2791,-0.2254,0.0075,0.2605,
13.523384,1.3543,-0.8974,-1.4447,-0.2254,0.0075,0.2605,
13.585501,1.3543,-0.8974,-1.4447,-0.3212,-0.2167,0.1746,
13.588348,1.3543,-0.8974,-1.4447,-0.3212,-0.2167,0.1746,
13.589416,1.4905,-0.5903,-0.5971,-0.3212,-0.2167,0.1746,
13.650090,1.4905,-0.5903,-0.5971,-0.3732,-0.4490,-0.0583,
13.653339,1.4905,-0.5903,-0.5971,-0.3732,-0.4490,-0.0583,
13.654033,2.7485,-1.6564,-0.8692,-0.3732,-0.4490,-0.0583,
13.715860,2.7485,-1.6564,-0.8692,0.2040,-0.3569,-0.4585,
13.719187,2.7485,-1.6564,-0.8692,0.2040,-0.3569,-0.4585,
13.719528,3.2331,-1.1425,-0.4592,0.2040,-0.3569,-0.4585,
13.779941,3.2331,-1.1425,-0.4592,0.4073,-0.5596,-0.6671,
13.783926,3.2331,-1.1425,-0.4592,0.4073,-0.5596,-0.6671,
13.784287,3.5877,0.6466,-0.0213,0.4073,-0.5596,-0.6671,
13.847448,3.5877,0.6466,-0.0213,0.1319,-0.6353,-0.6006,
13.851405,3.5877,0.6466,-0.0213,0.1319,-0.6353,-0.6006,
13.851737,3.6515,0.8874,-0.3676,0.1319,-0.6353,-0.6006,
13.912580,3.6515,0.8874,-0.3676,0.0244,0.7297,0.3041,
13.916112,3.6515,0.8874,-0.3676,0.0244,0.7297,0.3041,
13.916454,2.3679,3.2460,-3.5660,0.0244,0.7297,0.3041,
13.977936,2.3679,3.2460,-3.5660,-1.1325,0.5360,-0.6121,
13.982128,2.3679,3.2460,-3.5660,-1.1325,0.5360,-0.6121,
13.983387,-3.8585,-0.0554,-0.9414,-1.1325,0.5360,-0.6121,
14.043178,-3.8585,-0.0554,-0.9414,-1.2613,1.0441,-0.1834,
14.046359,-3.8585,-0.0554,-0.9414,-1.2613,1.0441,-0.1834,
14.046784,2.5673,-0.3017,-1.5237,-1.2613,1.0441,-0.1834,
14.106970,2.5673,-0.3017,-1.5237,-1.1333,1.4839,-0.1254,
14.111762,2.5673,-0.3017,-1.5237,-1.1333,1.4839,-0.1254,
14.112157,1.1669,-0.7054,-1.9980,-1.1333,1.4839,-0.1254,
14.173932,1.1669,-0.7054,-1.9980,-0.7503,1.7914,0.0460,
14.177906,1.1669,-0.7054,-1.9980,-0.7503,1.7914,0.0460,
14.178238,1.1480,-0.7423,-1.5827,-0.7503,1.7914,0.0460,
14.239319,1.1480,-0.7423,-1.5827,-0.5594,1.3664,0.1646,
14.243475,1.1480,-0.7423,-1.5827,-0.5594,1.3664,0.1646,
14.243980,0.3554,-1.1009,-0.7503,-0.5594,1.3664,0.1646,
14.304796,0.3554,-1.1009,-0.7503,-0.1886,1.0991,0.3102,
14.308402,0.3554,-1.1009,-0.7503,-0.1886,1.0991,0.3102,
14.309043,1.6454,-2.4277,-0.6777,-0.1886,1.0991,0.3102,
14.370933,1.6454,-2.4277,-0.6777,0.2152,1.0647,0.3700,
14.374403,1.6454,-2.4277,-0.6777,0.2152,1.0647,0.3700,
14.375127,1.4390,-0.9525,-0.0715,0.2152,1.0647,0.3700,
14.435524,1.4390,-0.9525,-0.0715,-0.0794,0.8903,0.2011,
14.439222,1.4390,-0.9525,-0.0715,-0.0794,0.8903,0.2011,
14.440012,1.0807,0.2422,1.6984,-0.0794,0.8903,0.2011,
14.499627,1.0807,0.2422,1.6984,-1.1660,1.0875,0.4256,
14.505538,1.0807,0.2422,1.6984,-1.1660,1.0875,0.4256,
14.506834,1.2741,5.4881,0.4744,-1.1660,1.0875,0.4256,
14.565956,1.2741,5.4881,0.4744,0.7382,0.2283,0.0113,
14.569981,1.2741,5.4881,0.4744,0.7382,0.2283,0.0113,
14.570425,-1.7257,-2.2939,-3.1115,0.7382,0.2283,0.0113,
14.631695,-1.7257,-2.2939,-3.1115,0.8670,-0.3438,-0.2921,
14.635365,-1.7257,-2.2939,-3.1115,0.8670,-0.3438,-0.2921,
14.636419,2.3894,4.0090,-2.4818,0.8670,-0.3438,-0.2921,
14.696211,2.3894,4.0090,-2.4818,1.0411,-0.6457,-0.0577,
14.703033,2.3894,4.0090,-2.4818,1.0411,-0.6457,-0.0577,
14.703509,1.7000,-1.6628,-0.9456,1.0411,-0.6457,-0.0577,
14.762557,1.7000,-1.6628,-0.9456,0.7865,0.0622,0.1489,
14.766454,1.7000,-1.6628,-0.9456,0.7865,0.0622,0.1489,
14.767703,3.6734,-1.3352,-2.0546,0.7865,0.0622,0.1489,
14.827964,3.6734,-1.3352,-2.0546,0.5153,0.5382,0.3578,
14.832010,3.6734,-1.3352,-2.0546,0.5153,0.5382,0.3578,
14.832364,2.1238,-0.2274,-1.3873,0.5153,0.5382,0.3578,
14.893603,2.1238,-0.2274,-1.3873,0.3445,0.5709,0.2833,
14.897785,2.1238,-0.2274,-1.3873,0.3445,0.5709,0.2833,
14.898103,1.7540,-1.7869,-1.3403,0.3445,0.5709,0.2833,
14.959393,1.7540,-1.7869,-1.3403,0.0761,0.5179,0.0835,
14.962955,1.7540,-1.7869,-1.3403,0.0761,0.5179,0.0835,
14.963816,1.1859,-0.4373,-0.6216,0.0761,0.5179,0.0835,
15.024231,1.1859,-0.4373,-0.6216,0.0776,-0.2973,0.0211,
15.028430,1.1859,-0.4373,-0.6216,0.0776,-0.2973,0.0211,
15.029671,0.8615,-0.1777,0.4288,0.0776,-0.2973,0.0211,
15.090484,0.8615,-0.1777,0.4288,0.0272,-0.8572,-0.1559,
15.094243,0.8615,-0.1777,0.4288,0.0272,-0.8572,-0.1559,
15.094585,1.8981,0.9597,0.6821,0.0272,-0.8572,-0.1559,
15.156150,1.8981,0.9597,0.6821,0.1559,-1.2704,-0.0458,
15.159792,1.8981,0.9597,0.6821,0.1559,-1.2704,-0.0458,
15.160636,2.1788,-0.1938,0.2724,0.1559,-1.2704,-0.0458,
15.220507,2.1788,-0.1938,0.2724,-0.0518,-1.7750,-0.1585,
15.224200,2.1788,-0.1938,0.2724,-0.0518,-1.7750,-0.1585,
15.225599,3.4298,0.1720,-0.0952,-0.0518,-1.7750,-0.1585,
15.288242,3.4298,0.1720,-0.0952,-0.3421,-0.4847,0.6860,
15.290660,3.4298,0.1720,-0.0952,-0.3421,-0.4847,0.6860,
15.291273,1.4917,1.9517,-4.2504,-0.3421,-0.4847,0.6860,
15.354279,1.4917,1.9517,-4.2504,-1.5835,-1.2171,0.3891,
15.356863,1.4917,1.9517,-4.2504,-1.5835,-1.2171,0.3891,
15.357218,-1.6284,0.8873,-0.2831,-1.5835,-1.2171,0.3891,
15.422406,-1.6284,0.8873,-0.2831,-1.0910,-0.1909,-0.0608,
15.425232,-1.6284,0.8873,-0.2831,-1.0910,-0.1909,-0.0608,
15.426894,2.7451,0.2141,-0.9165,-1.0910,-0.1909,-0.0608,
15.482793,2.7451,0.2141,-0.9165,-0.9331,1.0792,-0.0828,
15.486505,2.7451,0.2141,-0.9165,-0.9331,1.0792,-0.0828,
15.487429,1.4429,-0.9786,-0.5736,-0.9331,1.0792,-0.0828,
15.549427,1.4429,-0.9786,-0.5736,-0.4794,0.8202,0.1396,
15.552450,1.4429,-0.9786,-0.5736,-0.4794,0.8202,0.1396,
15.552820,0.5551,-1.5678,-0.5621,-0.4794,0.8202,0.1396,
15.613349,0.5551,-1.5678,-0.5621,0.0469,0.7211,0.1043,
15.622447,0.5551,-1.5678,-0.5621,0.0469,0.7211,0.1043,
15.623572,0.4486,-1.7239,-0.8521,0.0469,0.7211,0.1043,
15.680261,0.4486,-1.7239,-0.8521,0.3436,0.8902,0.0232,
15.683378,0.4486,-1.7239,-0.8521,0.3436,0.8902,0.0232,
15.684245,1.6496,-0.5301,0.2141,0.3436,0.8902,0.0232,
15.747580,1.6496,-0.5301,0.2141,0.3560,0.8777,0.0910,
15.751836,1.6496,-0.5301,0.2141,0.3560,0.8777,0.0910,
15.752968,1.5894,-0.4964,0.6690,0.3560,0.8777,0.0910,
15.813917,1.5894,-0.4964,0.6690,0.3421,1.2110,0.0530,
15.816147,1.5894,-0.4964,0.6690,0.3421,1.2110,0.0530,
15.816900,1.7193,-0.3129,1.6044,0.3421,1.2110,0.0530,
15.875444,1.7193,-0.3129,1.6044,0.1443,1.4881,-0.0281,
15.880244,1.7193,-0.3129,1.6044,0.1443,1.4881,-0.0281,
15.882443,0.7364,2.4667,0.7249,0.1443,1.4881,-0.0281,
15.939979,0.7364,2.4667,0.7249,0.2114,0.0066,-0.7540,
15.945394,0.7364,2.4667,0.7249,0.2114,0.0066,-0.7540,
15.945828,-2.3530,2.4419,-1.3801,0.2114,0.0066,-0.7540,
16.007651,-2.3530,2.4419,-1.3801,0.8971,0.3060,-0.1825,
16.010548,-2.3530,2.4419,-1.3801,0.8971,0.3060,-0.1825,
16.011282,1.8896,-4.8748,-2.2299,0.8971,0.3060,-0.1825,
16.072328,1.8896,-4.8748,-2.2299,0.7717,-0.2314,-0.0828,
16.076946,1.8896,-4.8748,-2.2299,0.7717,-0.2314,-0.0828,
16.077743,0.9074,2.3031,-1.6499,0.7717,-0.2314,-0.0828,
16.137560,0.9074,2.3031,-1.6499,0.6374,-0.3357,0.4696,
16.140710,0.9074,2.3031,-1.6499,0.6374,-0.3357,0.4696,
16.141127,3.1435,-1.1377,-2.4235,0.6374,-0.3357,0.4696,
16.203608,3.1435,-1.1377,-2.4235,0.9090,0.5366,0.6771,
16.207316,3.1435,-1.1377,-2.4235,0.9090,0.5366,0.6771,
16.207636,1.1527,1.6461,-0.9067,0.9090,0.5366,0.6771,
16.268295,1.1527,1.6461,-0.9067,0.2472,-0.1469,0.5954,
16.272379,1.1527,1.6461,-0.9067,0.2472,-0.1469,0.5954,
16.273233,1.2179,0.9567,-0.8193,0.2472,-0.1469,0.5954,
16.334501,1.2179,0.9567,-0.8193,-0.0887,-0.0110,0.1642,
16.339311,1.2179,0.9567,-0.8193,-0.0887,-0.0110,0.1642,
16.340156,1.6998,-0.4352,-0.3174,-0.0887,-0.0110,0.1642,
16.400968,1.6998,-0.4352,-0.3174,-0.2616,-0.3557,-0.0770,
16.403613,1.6998,-0.4352,-0.3174,-0.2616,-0.3557,-0.0770,
16.403938,1.2746,-2.0100,-0.1637,-0.2616,-0.3557,-0.0770,
16.464373,1.2746,-2.0100,-0.1637,-0.0000,-0.7048,0.1025,
16.468899,1.2746,-2.0100,-0.1637,-0.0000,-0.7048,0.1025,
16.469273,2.5082,-1.5499,0.7902,-0.0000,-0.7048,0.1025,
16.532229,2.5082,-1.5499,0.7902,-0.0221,-1.1843,-0.1539,
16.535752,2.5082,-1.5499,0.7902,-0.0221,-1.1843,-0.1539,
16.536058,1.7562,0.0118,-0.0187,-0.0221,-1.1843,-0.1539,
16.595630,1.7562,0.0118,-0.0187,-0.3903,-1.8147,-0.4401,
16.600060,1.7562,0.0118,-0.0187,-0.3903,-1.8147,-0.4401,
16.600409,2.9096,1.3777,-0.5343,-0.3903,-1.8147,-0.4401,
16.661328,2.9096,1.3777,-0.5343,-0.6915,-1.1548,0.5783,
16.665071,2.9096,1.3777,-0.5343,-0.6915,-1.1548,0.5783,
16.665578,1.7355,3.6283,-2.6656,-0.6915,-1.1548,0.5783,
16.727950,1.7355,3.6283,-2.6656,-1.2491,-0.9543,-0.0296,
16.730977,1.7355,3.6283,-2.6656,-1.2491,-0.9543,-0.0296,
16.731402,-0.3994,0.4618,-1.0545,-1.2491,-0.9543,-0.0296,
16.792380,-0.3994,0.4618,-1.0545,-1.3471,0.0104,-0.3447,
16.796565,-0.3994,0.4618,-1.0545,-1.3471,0.0104,-0.3447,
16.796940,2.4471,-0.2937,-0.6583,-1.3471,0.0104,-0.3447,
16.856415,2.4471,-0.2937,-0.6583,-0.8137,1.0626,-0.1208,
16.861772,2.4471,-0.2937,-0.6583,-0.8137,1.0626,-0.1208,
16.862402,0.8741,-1.7100,-0.6657,-0.8137,1.0626,-0.1208,
16.923368,0.8741,-1.7100,-0.6657,-0.2367,0.5977,0.0933,
16.928420,0.8741,-1.7100,-0.6657,-0.2367,0.5977,0.0933,
16.929141,0.4319,-0.9799,-0.2310,-0.2367,0.5977,0.0933,
16.988499,0.4319,-0.9799,-0.2310,0.0003,0.4259,0.0971,
16.993702,0.4319,-0.9799,-0.2310,0.0003,0.4259,0.0971,
16.994494,1.1346,-1.4736,-0.4903,0.0003,0.4259,0.0971,
17.054542,1.1346,-1.4736,-0.4903,0.4087,0.7391,0.0881,
17.058565,1.1346,-1.4736,-0.4903,0.4087,0.7391,0.0881,
17.058960,1.7630,-1.0925,-0.1918,0.4087,0.7391,0.0881,
17.120418,1.7630,-1.0925,-0.1918,0.3280,0.6498,0.2598,
17.123687,1.7630,-1.0925,-0.1918,0.3280,0.6498,0.2598,
17.124039,0.7673,-0.0818,1.1003,0.3280,0.6498,0.2598,
17.185897,0.7673,-0.0818,1.1003,0.1735,0.9510,0.2550,
17.190268,0.7673,-0.0818,1.1003,0.1735,0.9510,0.2550,
17.190629,2.1132,-0.5236,2.1486,0.1735,0.9510,0.2550,
17.251591,2.1132,-0.5236,2.1486,0.3050,1.8156,0.2818,
17.254382,2.1132,-0.5236,2.1486,0.3050,1.8156,0.2818,
17.254729,1.9497,0.5809,-0.5857,0.3050,1.8156,0.2818,
17.316504,1.9497,0.5809,-0.5857,0.5131,0.8515,-0.5768,
17.320464,1.9497,0.5809,-0.5857,0.5131,0.8515,-0.5768,
17.320917,-2.2836,4.2001,-3.7788,0.5131,0.8515,-0.5768,
17.380476,-2.2836,4.2001,-3.7788,0.4620,1.3205,0.1949,
17.385067,-2.2836,4.2001,-3.7788,0.4620,1.3205,0.1949,
17.386462,1.4028,-3.8236,-2.6587,0.4620,1.3205,0.1949,
17.448483,1.4028,-3.8236,-2.6587,0.4420,0.6188,0.2828,
17.452123,1.4028,-3.8236,-2.6587,0.4420,0.6188,0.2828,
17.453422,1.6969,1.8346,-0.3410,0.4420,0.6188,0.2828,
17.513107,1.6969,1.8346,-0.3410,0.7297,0.6810,0.5628,
17.516981,1.6969,1.8346,-0.3410,0.7297,0.6810,0.5628,
17.517432,3.6489,-1.3644,-3.5938,0.7297,0.6810,0.5628,
17.577046,3.6489,-1.3644,-3.5938,1.2098,1.2811,0.3111,
17.583498,3.6489,-1.3644,-3.5938,1.2098,1.2811,0.3111,
17.584709,1.3108,0.5177,-1.0641,1.2098,1.2811,0.3111,
17.643946,1.3108,0.5177,-1.0641,0.2211,0.7179,0.1193,
17.649241,1.3108,0.5177,-1.0641,0.2211,0.7179,0.1193,
17.649702,0.1581,0.4016,0.4772,0.2211,0.7179,0.1193,
17.711725,0.1581,0.4016,0.4772,0.0148,0.1649,0.0614,
17.714663,0.1581,0.4016,0.4772,0.0148,0.1649,0.0614,
17.715035,0.9624,-0.6451,0.8632,0.0148,0.1649,0.0614,
17.775075,0.9624,-0.6451,0.8632,0.0341,0.1842,-0.3574,
17.779199,0.9624,-0.6451,0.8632,0.0341,0.1842,-0.3574,
17.780163,3.1712,-0.1150,1.3279,0.0341,0.1842,-0.3574,
17.840432,3.1712,-0.1150,1.3279,0.0718,0.0661,-0.3392,
17.843519,3.1712,-0.1150,1.3279,0.0718,0.0661,-0.3392,
17.844375,4.1262,0.3873,1.7139,0.0718,0.0661,-0.3392,
17.904759,4.1262,0.3873,1.7139,-0.3642,-0.0316,-0.3813,
17.910598,4.1262,0.3873,1.7139,-0.3642,-0.0316,-0.3813,
17.910934,3.2977,0.6484,0.2490,-0.3642,-0.0316,-0.3813,
17.970999,3.2977,0.6484,0.2490,-0.7518,0.2492,0.5930,
17.975671,3.2977,0.6484,0.2490,-0.7518,0.2492,0.5930,
17.976094,0.7332,1.8163,-2.7164,-0.7518,0.2492,0.5930,
18.036942,0.7332,1.8163,-2.7164,-1.1761,0.9252,-0.1524,
18.041012,0.7332,1.8163,-2.7164,-1.1761,0.9252,-0.1524,
18.041891,0.3086,-0.0633,-0.9254,-1.1761,0.9252,-0.1524,
18.102520,0.3086,-0.0633,-0.9254,-0.8376,1.4736,-0.0875,
18.107082,0.3086,-0.0633,-0.9254,-0.8376,1.4736,-0.0875,
18.107420,1.1440,-0.5457,0.5576,-0.8376,1.4736,-0.0875,
18.168762,1.1440,-0.5457,0.5576,-0.5395,1.5117,0.1240,
18.172411,1.1440,-0.5457,0.5576,-0.5395,1.5117,0.1240,
18.172692,0.9825,-1.1498,0.2073,-0.5395,1.5117,0.1240,
18.234629,0.9825,-1.1498,0.2073,-0.0505,1.3515,0.0635,
18.238001,0.9825,-1.1498,0.2073,-0.0505,1.3515,0.0635,
18.238387,0.7613,-1.6003,0.4839,-0.0505,1.3515,0.0635,
18.297600,0.7613,-1.6003,0.4839,0.3207,1.2002,0.0415,
18.302125,0.7613,-1.6003,0.4839,0.3207,1.2002,0.0415,
18.302954,1.1796,-1.2506,0.6533,0.3207,1.2002,0.0415,
18.366119,1.1796,-1.2506,0.6533,0.1924,1.0641,0.1080,
18.369267,1.1796,-1.2506,0.6533,0.1924,1.0641,0.1080,
18.370236,0.5873,-0.5078,1.6308,0.1924,1.0641,0.1080,
18.429649,0.5873,-0.5078,1.6308,0.0176,0.5253,0.2595,
18.433901,0.5873,-0.5078,1.6308,0.0176,0.5253,0.2595,
18.434847,0.3331,-0.5300,2.3096,0.0176,0.5253,0.2595,
18.494974,0.3331,-0.5300,2.3096,0.0292,0.5145,0.0774,
18.498256,0.3331,-0.5300,2.3096,0.0292,0.5145,0.0774,
18.498658,0.9319,-0.8978,2.9954,0.0292,0.5145,0.0774,
18.560702,0.9319,-0.8978,2.9954,-1.4403,0.4249,-0.7169,
18.564072,0.9319,-0.8978,2.9954,-1.4403,0.4249,-0.7169,
18.564371,-0.6100,13.2716,2.7122,-1.4403,0.4249,-0.7169,
18.625291,-0.6100,13.2716,2.7122,0.5133,-0.7080,0.8248,
18.629800,-0.6100,13.2716,2.7122,0.5133,-0.7080,0.8248,
18.630243,0.9237,-6.9375,-0.0764,0.5133,-0.7080,0.8248,
18.690833,0.9237,-6.9375,-0.0764,0.8648,0.1941,-0.5680,
18.694883,0.9237,-6.9375,-0.0764,0.8648,0.1941,-0.5680,
18.695417,2.0683,3.5533,-1.1734,0.8648,0.1941,-0.5680,
18.756748,2.0683,3.5533,-1.1734,0.8204,0.4215,0.4690,
18.760580,2.0683,3.5533,-1.1734,0.8204,0.4215,0.4690,
18.761002,1.2773,-3.3199,-0.6708,0.8204,0.4215,0.4690,
18.822255,1.2773,-3.3199,-0.6708,1.2876,1.4835,0.3018,
18.825494,1.2773,-3.3199,-0.6708,1.2876,1.4835,0.3018,
18.825900,1.4945,0.0600,-0.4787,1.2876,1.4835,0.3018,
18.888090,1.4945,0.0600,-0.4787,0.5948,0.8158,0.1013,
18.890855,1.4945,0.0600,-0.4787,0.5948,0.8158,0.1013,
18.891359,-0.2846,0.6572,0.0944,0.5948,0.8158,0.1013,
18.953402,-0.2846,0.6572,0.0944,0.3322,0.0431,0.3662,
18.957400,-0.2846,0.6572,0.0944,0.3322,0.0431,0.3662,
18.957802,-0.4288,-0.0020,1.3099,0.3322,0.0431,0.3662,
19.019158,-0.4288,-0.0020,1.3099,0.1254,-0.7420,0.2303,
19.022495,-0.4288,-0.0020,1.3099,0.1254,-0.7420,0.2303,
19.022950,0.3910,-0.4946,0.6311,0.1254,-0.7420,0.2303,
19.083461,0.3910,-0.4946,0.6311,0.2196,-0.7822,0.1191,
19.087839,0.3910,-0.4946,0.6311,0.2196,-0.7822,0.1191,
19.088348,1.7626,0.3801,1.4487,0.2196,-0.7822,0.1191,
19.150116,1.7626,0.3801,1.4487,0.1260,-1.1890,-0.0069,
19.155104,1.7626,0.3801,1.4487,0.1260,-1.1890,-0.0069,
19.155435,2.2760,0.3397,1.6747,0.1260,-1.1890,-0.0069,
19.216482,2.2760,0.3397,1.6747,-0.1451,-1.2213,-0.2906,
19.220637,2.2760,0.3397,1.6747,-0.1451,-1.2213,-0.2906,
19.221466,3.0930,-0.0077,1.8520,-0.1451,-1.2213,-0.2906,
19.280021,3.0930,-0.0077,1.8520,-0.3629,-0.8897,-0.1944,
19.283570,3.0930,-0.0077,1.8520,-0.3629,-0.8897,-0.1944,
19.283862,3.0301,2.6406,-1.8915,-0.3629,-0.8897,-0.1944,
19.345844,3.0301,2.6406,-1.8915,-0.2555,-0.7169,0.4079,
19.349133,3.0301,2.6406,-1.8915,-0.2555,-0.7169,0.4079,
19.349526,-0.6881,0.7809,-2.4599,-0.2555,-0.7169,0.4079,
19.410913,-0.6881,0.7809,-2.4599,-0.8534,-0.4391,-0.6906,
19.415071,-0.6881,0.7809,-2.4599,-0.8534,-0.4391,-0.6906,
19.415409,-0.4051,0.2328,1.3739,-0.8534,-0.4391,-0.6906,
19.476617,-0.4051,0.2328,1.3739,-1.0606,0.4560,-0.3958,
19.481931,-0.4051,0.2328,1.3739,-1.0606,0.4560,-0.3958,
19.482851,0.7474,0.2070,1.7696,-1.0606,0.4560,-0.3958,
19.546231,0.7474,0.2070,1.7696,-0.7492,-0.0173,-0.0119,
19.547664,0.7474,0.2070,1.7696,-0.7492,-0.0173,-0.0119,
19.548082,0.3766,-1.8661,0.8302,-0.7492,-0.0173,-0.0119,
19.607131,0.3766,-1.8661,0.8302,-0.1701,0.7020,0.0121,
19.614575,0.3766,-1.8661,0.8302,-0.1701,0.7020,0.0121,
19.615138,1.1430,-2.0915,1.0631,-0.1701,0.7020,0.0121,
19.674209,1.1430,-2.0915,1.0631,0.0249,0.7335,0.1280,
19.677328,1.1430,-2.0915,1.0631,0.0249,0.7335,0.1280,
19.677630,1.0905,-1.5586,1.7734,0.0249,0.7335,0.1280,
19.739977,1.0905,-1.5586,1.7734,0.1733,0.8066,0.2236,
19.743321,1.0905,-1.5586,1.7734,0.1733,0.8066,0.2236,
19.744160,1.5979,-1.3142,2.2385,0.1733,0.8066,0.2236,
19.803726,1.5979,-1.3142,2.2385,0.1660,1.3818,0.1768,
19.807831,1.5979,-1.3142,2.2385,0.1660,1.3818,0.1768,
19.808480,1.9043,-0.4348,2.8501,0.1660,1.3818,0.1768,
19.870227,1.9043,-0.4348,2.8501,-0.9325,2.1774,0.1498,
19.873760,1.9043,-0.4348,2.8501,-0.9325,2.1774,0.1498,
19.874923,-1.2413,6.1878,0.8026,-0.9325,2.1774,0.1498,
19.934972,-1.2413,6.1878,0.8026,0.4899,0.4429,0.8047,
19.939857,-1.2413,6.1878,0.8026,0.4899,0.4429,0.8047,
19.940322,-1.3396,-3.7419,0.1999,0.4899,0.4429,0.8047,
20.002710,-1.3396,-3.7419,0.1999,0.4601,0.7052,-0.6692,
20.005559,-1.3396,-3.7419,0.1999,0.4601,0.7052,-0.6692,
20.005851,1.3627,3.0369,-1.6892,0.4601,0.7052,-0.6692,
20.066941,1.3627,3.0369,-1.6892,1.0705,-0.1254,0.0686,
20.072016,1.3627,3.0369,-1.6892,1.0705,-0.1254,0.0686,
20.072364,0.0038,-0.3912,0.5842,1.0705,-0.1254,0.0686,
20.132696,0.0038,-0.3912,0.5842,0.6150,-0.3264,0.0406,
20.136393,0.0038,-0.3912,0.5842,0.6150,-0.3264,0.0406,
20.137430,0.6564,0.3681,-0.7084,0.6150,-0.3264,0.0406,
20.197717,0.6564,0.3681,-0.7084,0.1596,-0.4467,-0.1381,
20.200905,0.6564,0.3681,-0.7084,0.1596,-0.4467,-0.1381,
20.202335,-0.4521,-1.1075,0.1306,0.1596,-0.4467,-0.1381,
20.263835,-0.4521,-1.1075,0.1306,-0.0435,-0.8893,0.0866,
20.266590,-0.4521,-1.1075,0.1306,-0.0435,-0.8893,0.0866,
20.266895,0.3848,-0.7156,0.8208,-0.0435,-0.8893,0.0866,
20.327693,0.3848,-0.7156,0.8208,-0.1677,-0.8738,0.2083,
20.331690,0.3848,-0.7156,0.8208,-0.1677,-0.8738,0.2083,
20.332025,0.8925,-1.2175,1.5235,-0.1677,-0.8738,0.2083,
20.393317,0.8925,-1.2175,1.5235,-0.0906,-1.1115,0.0977,
20.397627,0.8925,-1.2175,1.5235,-0.0906,-1.1115,0.0977,
20.398001,0.5159,0.4921,3.3971,-0.0906,-1.1115,0.0977,
20.460760,0.5159,0.4921,3.3971,-0.8644,-0.6379,0.0389,
20.463631,0.5159,0.4921,3.3971,-0.8644,-0.6379,0.0389,
20.463927,0.8166,4.7438,-4.3694,-0.8644,-0.6379,0.0389,
20.523562,0.8166,4.7438,-4.3694,-1.5476,-1.1193,0.1449,
20.527871,0.8166,4.7438,-4.3694,-1.5476,-1.1193,0.1449,
20.528377,0.5154,-1.6380,-2.2199,-1.5476,-1.1193,0.1449,
20.590770,0.5154,-1.6380,-2.2199,-0.9528,0.2923,-0.4765,
20.592886,0.5154,-1.6380,-2.2199,-0.9528,0.2923,-0.4765,
20.593981,0.8724,-0.3619,1.0468,-0.9528,0.2923,-0.4765,
20.654887,0.8724,-0.3619,1.0468,-0.4494,0.1869,0.0191,
20.658576,0.8724,-0.3619,1.0468,-0.4494,0.1869,0.0191,
20.658925,0.5601,-3.2028,1.7578,-0.4494,0.1869,0.0191,
20.719881,0.5601,-3.2028,1.7578,-0.2320,0.0108,0.3858,
20.725988,0.5601,-3.2028,1.7578,-0.2320,0.0108,0.3858,
20.726493,-0.1069,-3.4769,0.5771,-0.2320,0.0108,0.3858,
20.786323,-0.1069,-3.4769,0.5771,0.5527,0.3175,0.2483,
20.790435,-0.1069,-3.4769,0.5771,0.5527,0.3175,0.2483,
20.791452,-0.6349,-0.3973,1.8332,0.5527,0.3175,0.2483,
20.851416,-0.6349,-0.3973,1.8332,0.0312,0.4421,-0.2289,
20.856780,-0.6349,-0.3973,1.8332,0.0312,0.4421,-0.2289,
20.857250,1.6229,0.0711,3.8960,0.0312,0.4421,-0.2289,
20.916529,1.6229,0.0711,3.8960,0.0615,1.1408,-0.5880,
20.920777,1.6229,0.0711,3.8960,0.0615,1.1408,-0.5880,
20.921497,0.4290,-2.0554,4.1479,0.0615,1.1408,-0.5880,
20.981976,0.4290,-2.0554,4.1479,0.6817,0.5577,-0.1619,
20.986766,0.4290,-2.0554,4.1479,0.6817,0.5577,-0.1619,
20.987208,-2.6839,-0.0711,-2.5703,0.6817,0.5577,-0.1619,
21.048209,-2.6839,-0.0711,-2.5703,0.9514,-0.7225,0.0318,
21.052582,-2.6839,-0.0711,-2.5703,0.9514,-0.7225,0.0318,
21.053752,2.1866,-2.0271,-2.3339,0.9514,-0.7225,0.0318,
21.114595,2.1866,-2.0271,-2.3339,0.5591,-0.8305,1.4587,
21.118015,2.1866,-2.0271,-2.3339,0.5591,-0.8305,1.4587,
21.118469,5.3385,1.3702,-1.8444,0.5591,-0.8305,1.4587,
21.179560,5.3385,1.3702,-1.8444,1.6907,0.9180,-0.1717,
21.184344,5.3385,1.3702,-1.8444,1.6907,0.9180,-0.1717,
21.184992,3.6775,0.0517,-1.1258,1.6907,0.9180,-0.1717,
21.244587,3.6775,0.0517,-1.1258,0.6070,0.5385,0.1857,
21.248657,3.6775,0.0517,-1.1258,0.6070,0.5385,0.1857,
21.249492,2.1222,-3.1425,-1.7220,0.6070,0.5385,0.1857,
21.311544,2.1222,-3.1425,-1.7220,-0.0874,0.4192,-0.5738,
21.314087,2.1222,-3.1425,-1.7220,-0.0874,0.4192,-0.5738,
21.314788,0.6068,-1.3630,3.0199,-0.0874,0.4192,-0.5738,
21.375976,0.6068,-1.3630,3.0199,-0.3612,-1.7891,0.3335,
21.379172,0.6068,-1.3630,3.0199,-0.3612,-1.7891,0.3335,
21.379823,2.6034,-4.7980,0.9409,-0.3612,-1.7891,0.3335,
21.441735,2.6034,-4.7980,0.9409,-0.1132,0.1223,-0.0896,
21.445857,2.6034,-4.7980,0.9409,-0.1132,0.1223,-0.0896,
21.447208,3.4834,4.0940,1.4361,-0.1132,0.1223,-0.0896,
21.507929,3.4834,4.0940,1.4361,-0.5586,1.5227,0.6576,
21.510987,3.4834,4.0940,1.4361,-0.5586,1.5227,0.6576,
21.512063,1.7656,1.2094,-2.6853,-0.5586,1.5227,0.6576,
21.571921,1.7656,1.2094,-2.6853,-0.8296,0.7569,-0.3367,
21.576338,1.7656,1.2094,-2.6853,-0.8296,0.7569,-0.3367,
21.576768,-3.5445,-1.0859,1.5158,-0.8296,0.7569,-0.3367,
21.636931,-3.5445,-1.0859,1.5158,-0.6794,2.0142,-0.1649,
21.640504,-3.5445,-1.0859,1.5158,-0.6794,2.0142,-0.1649,
21.640936,2.8600,-1.5081,-0.6705,-0.6794,2.0142,-0.1649,
21.703333,2.8600,-1.5081,-0.6705,-0.1530,1.2914,0.2728,
21.706955,2.8600,-1.5081,-0.6705,-0.1530,1.2914,0.2728,
21.708900,-1.5357,-1.0981,0.7709,-0.1530,1.2914,0.2728,
21.769510,-1.5357,-1.0981,0.7709,0.0999,1.1353,0.0425,
21.773473,-1.5357,-1.0981,0.7709,0.0999,1.1353,0.0425,
21.774497,-0.4036,-1.9727,0.9120,0.0999,1.1353,0.0425,
21.834707,-0.4036,-1.9727,0.9120,0.2763,0.4018,0.1762,
21.837466,-0.4036,-1.9727,0.9120,0.2763,0.4018,0.1762,
21.838318,-1.2908,-1.4596,0.9978,0.2763,0.4018,0.1762,
21.900331,-1.2908,-1.4596,0.9978,0.0793,0.0067,0.1184,
21.904868,-1.2908,-1.4596,0.9978,0.0793,0.0067,0.1184,
21.906230,-0.6041,-0.6065,1.4966,0.0793,0.0067,0.1184,
21.965140,-0.6041,-0.6065,1.4966,-0.2834,-0.0312,0.2398,
21.969558,-0.6041,-0.6065,1.4966,-0.2834,-0.0312,0.2398,
21.970909,-0.0639,-1.0679,3.1290,-0.2834,-0.0312,0.2398,
22.030819,-0.0639,-1.0679,3.1290,-1.5000,0.7450,-0.4326,
22.034012,-0.0639,-1.0679,3.1290,-1.5000,0.7450,-0.4326,
22.035225,-1.5763,12.5911,1.8876,-1.5000,0.7450,-0.4326,
22.096961,-1.5763,12.5911,1.8876,0.6973,-0.4275,0.2120,
22.101394,-1.5763,12.5911,1.8876,0.6973,-0.4275,0.2120,
22.102203,0.6553,-3.5715,-0.1066,0.6973,-0.4275,0.2120,
22.161513,0.6553,-3.5715,-0.1066,1.4070,-0.3751,-0.4789,
22.165403,0.6553,-3.5715,-0.1066,1.4070,-0.3751,-0.4789,
22.166302,2.9371,2.9917,-0.0087,1.4070,-0.3751,-0.4789,
22.228368,2.9371,2.9917,-0.0087,1.0325,-0.2911,0.5583,
22.232625,2.9371,2.9917,-0.0087,1.0325,-0.2911,0.5583,
22.233851,3.3676,-3.0006,-0.3546,1.0325,-0.2911,0.5583,
22.292938,3.3676,-3.0006,-0.3546,1.3583,1.1043,0.5756,
22.296451,3.3676,-3.0006,-0.3546,1.3583,1.1043,0.5756,
22.297670,2.8218,-1.6187,-1.5894,1.3583,1.1043,0.5756,
22.357962,2.8218,-1.6187,-1.5894,0.7926,1.6733,-0.3694,
22.363488,2.8218,-1.6187,-1.5894,0.7926,1.6733,-0.3694,
22.364540,-1.4501,1.8080,0.6940,0.7926,1.6733,-0.3694,
22.425581,-1.4501,1.8080,0.6940,0.2019,0.4409,0.0896,
22.427670,-1.4501,1.8080,0.6940,0.2019,0.4409,0.0896,
22.428415,0.5337,-0.2824,0.0037,0.2019,0.4409,0.0896,
22.490151,0.5337,-0.2824,0.0037,0.1486,-0.1260,-0.1303,
22.492778,0.5337,-0.2824,0.0037,0.1486,-0.1260,-0.1303,
22.493461,0.2968,-0.7738,2.1042,0.1486,-0.1260,-0.1303,
22.553828,0.2968,-0.7738,2.1042,0.1527,-0.0029,-0.2448,
22.558586,0.2968,-0.7738,2.1042,0.1527,-0.0029,-0.2448,
22.559342,1.5287,-0.7523,2.3914,0.1527,-0.0029,-0.2448,
22.618919,1.5287,-0.7523,2.3914,-0.4931,-0.2161,-0.5466,
22.623840,1.5287,-0.7523,2.3914,-0.4931,-0.2161,-0.5466,
22.624812,1.2359,0.4234,1.2047,-0.4931,-0.2161,-0.5466,
22.684657,1.2359,0.4234,1.2047,-0.5337,-1.3328,0.9685,
22.689159,1.2359,0.4234,1.2047,-0.5337,-1.3328,0.9685,
22.690403,1.1469,6.0018,-3.3162,-0.5337,-1.3328,0.9685,
22.751369,1.1469,6.0018,-3.3162,-1.4542,0.0681,-0.1681,
22.754116,1.1469,6.0018,-3.3162,-1.4542,0.0681,-0.1681,
22.755076,-0.7620,-2.4723,-1.7954,-1.4542,0.0681,-0.1681,
22.815275,-0.7620,-2.4723,-1.7954,-0.9099,1.3441,-0.4953,
22.820674,-0.7620,-2.4723,-1.7954,-0.9099,1.3441,-0.4953,
22.821942,1.2483,-0.1320,1.8074,-0.9099,1.3441,-0.4953,
22.882377,1.2483,-0.1320,1.8074,-0.5333,0.8813,-0.0415,
22.886383,1.2483,-0.1320,1.8074,-0.5333,0.8813,-0.0415,
22.887191,0.3703,-2.1737,0.6478,-0.5333,0.8813,-0.0415,
22.948844,0.3703,-2.1737,0.6478,0.0107,0.7080,0.2352,
22.951148,0.3703,-2.1737,0.6478,0.0107,0.7080,0.2352,
22.952124,-0.5110,-2.4364,0.8477,0.0107,0.7080,0.2352,
23.012780,-0.5110,-2.4364,0.8477,0.3299,0.8842,0.1862,
23.017090,-0.5110,-2.4364,0.8477,0.3299,0.8842,0.1862,
23.017654,-0.2019,-0.5692,1.6356,0.3299,0.8842,0.1862,
23.078366,-0.2019,-0.5692,1.6356,-0.0556,0.4914,0.2254,
23.081771,-0.2019,-0.5692,1.6356,-0.0556,0.4914,0.2254,
23.082226,0.0226,-0.5108,2.4292,-0.0556,0.4914,0.2254,
23.143978,0.0226,-0.5108,2.4292,-0.2114,0.2996,0.1536,
23.147812,0.0226,-0.5108,2.4292,-0.2114,0.2996,0.1536,
23.148298,-0.0524,-0.2657,4.1206,-0.2114,0.2996,0.1536,
23.210543,-0.0524,-0.2657,4.1206,0.0606,0.7193,-0.0956,
23.212832,-0.0524,-0.2657,4.1206,0.0606,0.7193,-0.0956,
23.213987,1.6498,-1.8304,1.4102,0.0606,0.7193,-0.0956,
23.274316,1.6498,-1.8304,1.4102,1.2924,-0.1063,-1.7219,
23.278925,1.6498,-1.8304,1.4102,1.2924,-0.1063,-1.7219,
23.280372,-2.6592,5.3581,-4.9251,1.2924,-0.1063,-1.7219,
23.340617,-2.6592,5.3581,-4.9251,1.6507,0.8667,0.4394,
23.345007,-2.6592,5.3581,-4.9251,1.6507,0.8667,0.4394,
23.346252,-0.6516,-5.4383,-1.5826,1.6507,0.8667,0.4394,
23.405716,-0.6516,-5.4383,-1.5826,0.5202,-0.6390,0.8393,
23.410053,-0.6516,-5.4383,-1.5826,0.5202,-0.6390,0.8393,
23.411136,3.1149,3.3825,-0.0787,0.5202,-0.6390,0.8393,
23.471353,3.1149,3.3825,-0.0787,1.0540,1.1573,0.3413,
23.474801,3.1149,3.3825,-0.0787,1.0540,1.1573,0.3413,
23.476113,2.4291,-2.8671,-0.0328,1.0540,1.1573,0.3413,
23.535853,2.4291,-2.8671,-0.0328,1.1860,0.4954,0.0751,
23.540441,2.4291,-2.8671,-0.0328,1.1860,0.4954,0.0751,
23.541443,-1.4281,0.2636,0.0805,1.1860,0.4954,0.0751,
23.602006,-1.4281,0.2636,0.0805,0.1107,0.1402,-0.3422,
23.605881,-1.4281,0.2636,0.0805,0.1107,0.1402,-0.3422,
23.606343,-0.4040,2.2254,3.3443,0.1107,0.1402,-0.3422,
23.667427,-0.4040,2.2254,3.3443,-1.8888,-0.0090,-1.3311,
23.670603,-0.4040,2.2254,3.3443,-1.8888,-0.0090,-1.3311,
23.671262,2.0198,1.7421,0.4560,-1.8888,-0.0090,-1.3311,
23.732823,2.0198,1.7421,0.4560,-0.7298,-0.9024,0.9009,
23.737727,2.0198,1.7421,0.4560,-0.7298,-0.9024,0.9009,
23.738176,0.0856,2.7513,-3.4757,-0.7298,-0.9024,0.9009,
23.799353,0.0856,2.7513,-3.4757,-1.7912,0.5276,-0.8749,
23.802432,0.0856,2.7513,-3.4757,-1.7912,0.5276,-0.8749,
23.803460,-1.0291,-3.3901,-0.1841,-1.7912,0.5276,-0.8749,
23.865158,-1.0291,-3.3901,-0.1841,-0.6927,0.1689,-0.2703,
23.868421,-1.0291,-3.3901,-0.1841,-0.6927,0.1689,-0.2703,
23.869407,0.3275,-0.9276,2.3827,-0.6927,0.1689,-0.2703,
23.930020,0.3275,-0.9276,2.3827,-0.2989,0.1118,0.2729,
23.933067,0.3275,-0.9276,2.3827,-0.2989,0.1118,0.2729,
23.933626,-0.4115,-1.1794,0.3177,-0.2989,0.1118,0.2729,
23.994882,-0.4115,-1.1794,0.3177,-0.1225,0.5990,0.4223,
23.998993,-0.4115,-1.1794,0.3177,-0.1225,0.5990,0.4223,
23.999475,0.2896,-2.3403,1.3601,-0.1225,0.5990,0.4223,
24.059040,0.2896,-2.3403,1.3601,-0.1764,0.6533,0.5925,
24.063078,0.2896,-2.3403,1.3601,-0.1764,0.6533,0.5925,
24.063532,1.0723,0.1015,2.0308,-0.1764,0.6533,0.5925,
24.124198,1.0723,0.1015,2.0308,-0.2917,0.6797,0.5484,
24.128797,1.0723,0.1015,2.0308,-0.2917,0.6797,0.5484,
24.129843,-0.0111,-1.5692,2.3621,-0.2917,0.6797,0.5484,
24.191017,-0.0111,-1.5692,2.3621,-0.0420,1.3723,0.2100,
24.195174,-0.0111,-1.5692,2.3621,-0.0420,1.3723,0.2100,
24.196228,1.2252,-1.2269,2.7792,-0.0420,1.3723,0.2100,
24.257045,1.2252,-1.2269,2.7792,-1.6927,2.1437,0.2750,
24.262060,1.2252,-1.2269,2.7792,-1.6927,2.1437,0.2750,
24.263924,-0.5224,14.4663,2.6252,-1.6927,2.1437,0.2750,
24.321715,-0.5224,14.4663,2.6252,1.0858,0.3300,0.8709,
24.325665,-0.5224,14.4663,2.6252,1.0858,0.3300,0.8709,
24.326731,-4.1721,-4.8387,1.6870,1.0858,0.3300,0.8709,
24.388812,-4.1721,-4.8387,1.6870,0.2601,2.4370,-0.3619,
24.391749,-4.1721,-4.8387,1.6870,0.2601,2.4370,-0.3619,
24.392845,3.7910,-2.7886,-1.7968,0.2601,2.4370,-0.3619,
24.453689,3.7910,-2.7886,-1.7968,0.8709,0.5286,0.2570,
24.457655,3.7910,-2.7886,-1.7968,0.8709,0.5286,0.2570,
24.458395,-1.4649,-0.5809,-0.7534,0.8709,0.5286,0.2570,
24.520219,-1.4649,-0.5809,-0.7534,1.0220,0.9893,0.5571,
24.522852,-1.4649,-0.5809,-0.7534,1.0220,0.9893,0.5571,
24.523781,0.1225,-0.6235,-2.8915,1.0220,0.9893,0.5571,
24.583825,0.1225,-0.6235,-2.8915,0.3516,0.4946,-0.0111,
24.587962,0.1225,-0.6235,-2.8915,0.3516,0.4946,-0.0111,
24.588598,-1.6966,1.1609,-0.4982,0.3516,0.4946,-0.0111,
24.648664,-1.6966,1.1609,-0.4982,0.4065,-0.4242,0.1066,
24.653440,-1.6966,1.1609,-0.4982,0.4065,-0.4242,0.1066,
24.654082,-0.7333,-0.7748,0.4876,0.4065,-0.4242,0.1066,
24.713837,-0.7333,-0.7748,0.4876,0.2129,-0.9739,0.0498,
24.718496,-0.7333,-0.7748,0.4876,0.2129,-0.9739,0.0498,
24.718792,-1.0243,-1.1663,0.5798,0.2129,-0.9739,0.0498,
24.780330,-1.0243,-1.1663,0.5798,-0.0768,-1.3146,-0.1883,
24.784276,-1.0243,-1.1663,0.5798,-0.0768,-1.3146,-0.1883,
24.784729,1.2230,0.1117,1.6912,-0.0768,-1.3146,-0.1883,
24.845341,1.2230,0.1117,1.6912,0.0823,-1.1124,-0.0229,
24.849933,1.2230,0.1117,1.6912,0.0823,-1.1124,-0.0229,
24.850427,2.9943,-0.6884,1.1986,0.0823,-1.1124,-0.0229,
24.911800,2.9943,-0.6884,1.1986,-0.1558,-0.9980,-0.0105,
24.914903,2.9943,-0.6884,1.1986,-0.1558,-0.9980,-0.0105,
24.915364,1.7342,1.3330,1.9477,-0.1558,-0.9980,-0.0105,
24.978770,1.7342,1.3330,1.9477,-0.4308,0.3370,1.1267,
24.981004,1.7342,1.3330,1.9477,-0.4308,0.3370,1.1267,
24.981472,0.7656,4.1348,-2.2229,-0.4308,0.3370,1.1267,
25.042152,0.7656,4.1348,-2.2229,-0.9853,-0.1515,-0.3574,
25.046252,0.7656,4.1348,-2.2229,-0.9853,-0.1515,-0.3574,
25.046786,-6.3453,1.5206,1.2906,-0.9853,-0.1515,-0.3574,
25.107415,-6.3453,1.5206,1.2906,-1.2046,0.4830,-0.1597,
25.111780,-6.3453,1.5206,1.2906,-1.2046,0.4830,-0.1597,
25.112370,0.7819,-0.9145,-0.2814,-1.2046,0.4830,-0.1597,
25.173898,0.7819,-0.9145,-0.2814,-0.6370,1.4178,-0.2056,
25.176545,0.7819,-0.9145,-0.2814,-0.6370,1.4178,-0.2056,
25.177048,-1.4712,-1.3363,0.7300,-0.6370,1.4178,-0.2056,
25.238683,-1.4712,-1.3363,0.7300,-0.4439,0.9215,0.2856,
25.243128,-1.4712,-1.3363,0.7300,-0.4439,0.9215,0.2856,
25.243937,-1.0563,-1.7921,0.3664,-0.4439,0.9215,0.2856,
25.303600,-1.0563,-1.7921,0.3664,-0.0455,0.8729,0.1284,
25.309543,-1.0563,-1.7921,0.3664,-0.0455,0.8729,0.1284,
25.310650,-1.5479,-1.0950,0.1515,-0.0455,0.8729,0.1284,
25.370679,-1.5479,-1.0950,0.1515,0.1063,0.5466,0.0205,
25.373923,-1.5479,-1.0950,0.1515,0.1063,0.5466,0.0205,
25.374565,-0.8686,-1.0963,0.6977,0.1063,0.5466,0.0205,
25.435276,-0.8686,-1.0963,0.6977,-0.1290,0.2497,0.1507,
25.439748,-0.8686,-1.0963,0.6977,-0.1290,0.2497,0.1507,
25.440179,-0.1380,-0.8855,1.1661,-0.1290,0.2497,0.1507,
25.501514,-0.1380,-0.8855,1.1661,0.2631,0.2828,0.0409,
25.505261,-0.1380,-0.8855,1.1661,0.2631,0.2828,0.0409,
25.506185,0.0364,-0.8851,2.8378,0.2631,0.2828,0.0409,
25.567085,0.0364,-0.8851,2.8378,-0.0325,1.0869,-0.0779,
25.570771,0.0364,-0.8851,2.8378,-0.0325,1.0869,-0.0779,
25.571364,-0.0803,3.9890,0.1050,-0.0325,1.0869,-0.0779,
25.632672,-0.0803,3.9890,0.1050,0.8774,-0.3468,-0.7036,
25.635173,-0.0803,3.9890,0.1050,0.8774,-0.3468,-0.7036,
25.635727,-4.4988,-1.2850,1.9669,0.8774,-0.3468,-0.7036,
25.697048,-4.4988,-1.2850,1.9669,1.0802,1.2521,0.1979,
25.700391,-4.4988,-1.2850,1.9669,1.0802,1.2521,0.1979,
25.700765,3.6253,-3.7989,-3.5238,1.0802,1.2521,0.1979,
25.762937,3.6253,-3.7989,-3.5238,0.3638,0.5432,0.2072,
25.766462,3.6253,-3.7989,-3.5238,0.3638,0.5432,0.2072,
25.767023,-2.8931,1.4468,0.6321,0.3638,0.5432,0.2072,
25.828088,-2.8931,1.4468,0.6321,0.4536,0.2729,0.3827,
25.831873,-2.8931,1.4468,0.6321,0.4536,0.2729,0.3827,
25.832678,0.8418,-2.0760,-2.0132,0.4536,0.2729,0.3827,
25.893816,0.8418,-2.0760,-2.0132,0.8694,0.4878,0.3480,
25.898794,0.8418,-2.0760,-2.0132,0.8694,0.4878,0.3480,
25.899420,-1.1070,0.3874,-1.1203,0.8694,0.4878,0.3480,
25.959836,-1.1070,0.3874,-1.1203,0.5154,-0.2065,0.5924,
25.963289,-1.1070,0.3874,-1.1203,0.5154,-0.2065,0.5924,
25.964345,0.0015,0.0954,0.1387,0.5154,-0.2065,0.5924,
26.024559,0.0015,0.0954,0.1387,0.3433,-0.7091,0.2969,
26.028330,0.0015,0.0954,0.1387,0.3433,-0.7091,0.2969,
26.029633,-0.9880,-0.1049,0.4813,0.3433,-0.7091,0.2969,
26.090342,-0.9880,-0.1049,0.4813,-0.1645,-0.9589,0.2454,
26.094199,-0.9880,-0.1049,0.4813,-0.1645,-0.9589,0.2454,
26.095131,0.9693,0.6305,1.2749,-0.1645,-0.9589,0.2454,
26.155867,0.9693,0.6305,1.2749,-0.0996,-0.4021,0.2303,
26.160331,0.9693,0.6305,1.2749,-0.0996,-0.4021,0.2303,
26.161638,2.6858,1.6666,2.6902,-0.0996,-0.4021,0.2303,
26.220401,2.6858,1.6666,2.6902,-0.6843,0.0031,-0.1849,
26.224905,2.6858,1.6666,2.6902,-0.6843,0.0031,-0.1849,
26.226197,1.1844,0.4028,1.7622,-0.6843,0.0031,-0.1849,
26.287428,1.1844,0.4028,1.7622,-0.6965,-0.1005,-0.0076,
26.290245,1.1844,0.4028,1.7622,-0.6965,-0.1005,-0.0076,
26.291309,-0.8867,2.6214,-1.3636,-0.6965,-0.1005,-0.0076,
26.351914,-0.8867,2.6214,-1.3636,-0.5849,-0.9223,-0.6083,
26.356671,-0.8867,2.6214,-1.3636,-0.5849,-0.9223,-0.6083,
26.358482,-3.1215,1.9154,-3.2798,-0.5849,-0.9223,-0.6083,
26.416954,-3.1215,1.9154,-3.2798,-1.2179,0.6290,-0.6712,
26.420464,-3.1215,1.9154,-3.2798,-1.2179,0.6290,-0.6712,
26.420782,-0.0381,-2.3092,2.6435,-1.2179,0.6290,-0.6712,
26.484197,-0.0381,-2.3092,2.6435,-0.4617,0.5687,-1.0232,
26.486836,-0.0381,-2.3092,2.6435,-0.4617,0.5687,-1.0232,
26.487613,0.2077,-0.5548,1.3143,-0.4617,0.5687,-1.0232,
26.547976,0.2077,-0.5548,1.3143,-0.0073,0.5890,-0.9003,
26.554414,0.2077,-0.5548,1.3143,-0.0073,0.5890,-0.9003,
26.555494,0.0372,-3.1514,0.6782,-0.0073,0.5890,-0.9003,
26.614206,0.0372,-3.1514,0.6782,0.3033,0.6098,-0.7868,
26.617827,0.0372,-3.1514,0.6782,0.3033,0.6098,-0.7868,
26.618828,-0.8047,-0.7174,0.4609,0.3033,0.6098,-0.7868,
26.680034,-0.8047,-0.7174,0.4609,-0.0560,0.3893,-0.3766,
26.684319,-0.8047,-0.7174,0.4609,-0.0560,0.3893,-0.3766,
26.685582,-1.2343,-0.9260,0.6508,-0.0560,0.3893,-0.3766,
26.744437,-1.2343,-0.9260,0.6508,0.1038,0.0767,-0.5270,
26.749815,-1.2343,-0.9260,0.6508,0.1038,0.0767,-0.5270,
26.750781,-0.0489,-0.4873,2.8023,0.1038,0.0767,-0.5270,
26.810518,-0.0489,-0.4873,2.8023,-0.0154,1.2268,-0.2111,
26.814034,-0.0489,-0.4873,2.8023,-0.0154,1.2268,-0.2111,
26.814608,0.9604,-1.6776,2.8148,-0.0154,1.2268,-0.2111,
26.876036,0.9604,-1.6776,2.8148,-0.3864,0.3713,1.0072,
26.879931,0.9604,-1.6776,2.8148,-0.3864,0.3713,1.0072,
26.880342,-3.3394,3.6353,1.1008,-0.3864,0.3713,1.0072,
26.941746,-3.3394,3.6353,1.1008,0.3152,2.0023,0.5166,
26.945296,-3.3394,3.6353,1.1008,0.3152,2.0023,0.5166,
26.945925,0.1037,-1.7887,-2.1452,0.3152,2.0023,0.5166,
27.007952,0.1037,-1.7887,-2.1452,0.6466,0.0392,-0.1329,
27.010675,0.1037,-1.7887,-2.1452,0.6466,0.0392,-0.1329,
27.011461,-4.2999,-0.7793,-3.0652,0.6466,0.0392,-0.1329,
27.072757,-4.2999,-0.7793,-3.0652,0.2812,-0.2784,0.9925,
27.077453,-4.2999,-0.7793,-3.0652,0.2812,-0.2784,0.9925,
27.078384,0.6284,0.0920,-2.1708,0.2812,-0.2784,0.9925,
27.139161,0.6284,0.0920,-2.1708,0.7028,0.1130,0.7712,
27.142445,0.6284,0.0920,-2.1708,0.7028,0.1130,0.7712,
27.143600,-0.8972,-1.1457,-0.5243,0.7028,0.1130,0.7712,
27.204031,-0.8972,-1.1457,-0.5243,0.4462,-0.5655,0.4386,
27.207255,-0.8972,-1.1457,-0.5243,0.4462,-0.5655,0.4386,
27.208270,-1.2243,0.2963,0.3107,0.4462,-0.5655,0.4386,
27.269071,-1.2243,0.2963,0.3107,0.0014,-0.4887,0.2178,
27.272882,-1.2243,0.2963,0.3107,0.0014,-0.4887,0.2178,
27.274154,0.9349,-0.3886,-0.0371,0.0014,-0.4887,0.2178,
27.333854,0.9349,-0.3886,-0.0371,0.1387,-0.7275,0.0783,
27.336813,0.9349,-0.3886,-0.0371,0.1387,-0.7275,0.0783,
27.337379,0.7620,0.3689,1.1382,0.1387,-0.7275,0.0783,
27.399568,0.7620,0.3689,1.1382,-0.0522,-0.8699,0.1411,
27.403427,0.7620,0.3689,1.1382,-0.0522,-0.8699,0.1411,
27.404757,1.7410,0.6522,1.1056,-0.0522,-0.8699,0.1411,
27.467632,1.7410,0.6522,1.1056,-0.1257,-0.6997,-0.1268,
27.470118,1.7410,0.6522,1.1056,-0.1257,-0.6997,-0.1268,
27.471133,0.4292,0.7111,1.7263,-0.1257,-0.6997,-0.1268,
27.529467,0.4292,0.7111,1.7263,-0.3112,-1.2981,-0.3569,
27.536121,0.4292,0.7111,1.7263,-0.3112,-1.2981,-0.3569,
27.537003,1.6380,1.8367,0.9850,-0.3112,-1.2981,-0.3569,
27.596729,1.6380,1.8367,0.9850,-0.5000,0.2850,0.4827,
27.599715,1.6380,1.8367,0.9850,-0.5000,0.2850,0.4827,
27.600640,-0.0591,3.3704,-2.4822,-0.5000,0.2850,0.4827,
27.662302,-0.0591,3.3704,-2.4822,-1.5047,-0.5536,-0.6710,
27.667097,-0.0591,3.3704,-2.4822,-1.5047,-0.5536,-0.6710,
27.668377,-3.8860,-2.5072,-2.5609,-1.5047,-0.5536,-0.6710,
27.729029,-3.8860,-2.5072,-2.5609,-0.8989,0.6785,-0.1429,
27.731452,-3.8860,-2.5072,-2.5609,-0.8989,0.6785,-0.1429,
27.732325,0.5426,-0.8533,1.2397,-0.8989,0.6785,-0.1429,
27.792911,0.5426,-0.8533,1.2397,-0.8370,0.4640,-0.0299,
27.798193,0.5426,-0.8533,1.2397,-0.8370,0.4640,-0.0299,
27.801402,-0.6173,-1.3268,0.1465,-0.8370,0.4640,-0.0299,
27.856510,-0.6173,-1.3268,0.1465,-0.4030,1.0238,0.1768,
27.862221,-0.6173,-1.3268,0.1465,-0.4030,1.0238,0.1768,
27.862508,-0.9230,-1.8134,0.2811,-0.4030,1.0238,0.1768,
27.924186,-0.9230,-1.8134,0.2811,-0.1648,0.5964,0.2121,
27.926687,-0.9230,-1.8134,0.2811,-0.1648,0.5964,0.2121,
27.927004,-1.3280,-1.2686,0.9464,-0.1648,0.5964,0.2121,
27.988557,-1.3280,-1.2686,0.9464,0.0218,0.0081,0.1596,
27.991972,-1.3280,-1.2686,0.9464,0.0218,0.0081,0.1596,
27.992332,-1.1903,-1.5043,1.3806,0.0218,0.0081,0.1596,
28.053815,-1.1903,-1.5043,1.3806,-0.0941,0.1874,0.1895,
28.058156,-1.1903,-1.5043,1.3806,-0.0941,0.1874,0.1895,
28.058662,0.4877,-0.6161,1.5527,-0.0941,0.1874,0.1895,
28.120790,0.4877,-0.6161,1.5527,0.0922,1.0783,0.1203,
28.124203,0.4877,-0.6161,1.5527,0.0922,1.0783,0.1203,
28.124615,0.8770,0.3422,2.6579,0.0922,1.0783,0.1203,
28.185403,0.8770,0.3422,2.6579,-0.7193,0.5498,0.0515,
28.189032,0.8770,0.3422,2.6579,-0.7193,0.5498,0.0515,
28.189503,-4.4931,9.0794,0.7444,-0.7193,0.5498,0.0515,
28.250437,-4.4931,9.0794,0.7444,0.7297,0.6293,0.5692,
28.253947,-4.4931,9.0794,0.7444,0.7297,0.6293,0.5692,
28.254612,-0.2776,-6.7669,-1.5737,0.7297,0.6293,0.5692,
28.316031,-0.2776,-6.7669,-1.5737,1.0751,-0.2463,-0.7902,
28.320721,-0.2776,-6.7669,-1.5737,1.0751,-0.2463,-0.7902,
28.321538,-1.3852,5.3210,-1.5804,1.0751,-0.2463,-0.7902,
28.381129,-1.3852,5.3210,-1.5804,0.8505,-0.3920,0.3994,
28.385474,-1.3852,5.3210,-1.5804,0.8505,-0.3920,0.3994,
28.386133,1.5137,-2.6575,-2.1522,0.8505,-0.3920,0.3994,
28.447526,1.5137,-2.6575,-2.1522,0.6142,0.6130,-0.6379,
28.451363,1.5137,-2.6575,-2.1522,0.6142,0.6130,-0.6379,
28.451969,-1.1029,0.9920,-0.8209,0.6142,0.6130,-0.6379,
28.512065,-1.1029,0.9920,-0.8209,0.3404,-0.0101,0.0521,
28.517935,-1.1029,0.9920,-0.8209,0.3404,-0.0101,0.0521,
28.519215,-0.6751,-1.5334,0.0911,0.3404,-0.0101,0.0521,
28.578074,-0.6751,-1.5334,0.0911,0.2126,0.0046,-0.0247,
28.582606,-0.6751,-1.5334,0.0911,0.2126,0.0046,-0.0247,
28.583735,0.7422,-0.6019,0.2811,0.2126,0.0046,-0.0247,
28.644261,0.7422,-0.6019,0.2811,-0.2625,-0.5069,0.1045,
28.648573,0.7422,-0.6019,0.2811,-0.2625,-0.5069,0.1045,
28.649497,-1.5833,-0.2115,2.4763,-0.2625,-0.5069,0.1045,
28.709932,-1.5833,-0.2115,2.4763,-0.6196,-1.3027,-0.0308,
28.713703,-1.5833,-0.2115,2.4763,-0.6196,-1.3027,-0.0308,
28.714788,-0.6148,-0.5942,-0.1597,-0.6196,-1.3027,-0.0308,
28.775414,-0.6148,-0.5942,-0.1597,0.2353,-0.3801,0.9911,
28.779494,-0.6148,-0.5942,-0.1597,0.2353,-0.3801,0.9911,
28.780521,-1.5149,5.2540,-1.9634,0.2353,-0.3801,0.9911,
28.841464,-1.5149,5.2540,-1.9634,-2.0525,-0.8376,0.0211,
28.844551,-1.5149,5.2540,-1.9634,-2.0525,-0.8376,0.0211,
28.845838,-0.4846,-4.6960,-2.3756,-2.0525,-0.8376,0.0211,
28.905723,-0.4846,-4.6960,-2.3756,-0.5467,0.5499,-0.1851,
28.910309,-0.4846,-4.6960,-2.3756,-0.5467,0.5499,-0.1851,
28.910748,1.2087,1.7694,1.5685,-0.5467,0.5499,-0.1851,
28.969957,1.2087,1.7694,1.5685,-0.4678,0.1611,0.1692,
28.975648,1.2087,1.7694,1.5685,-0.4678,0.1611,0.1692,
28.976715,-0.6756,-2.1005,0.8449,-0.4678,0.1611,0.1692,
29.037044,-0.6756,-2.1005,0.8449,-0.1727,0.4727,0.0709,
29.041306,-0.6756,-2.1005,0.8449,-0.1727,0.4727,0.0709,
29.042253,-0.0923,-1.9791,0.5260,-0.1727,0.4727,0.0709,
29.102778,-0.0923,-1.9791,0.5260,-0.0629,0.1782,0.3063,
29.107631,-0.0923,-1.9791,0.5260,-0.0629,0.1782,0.3063,
29.108959,-1.0283,-1.2431,1.0904,-0.0629,0.1782,0.3063,
29.167512,-1.0283,-1.2431,1.0904,0.1564,0.2088,0.0954,
29.172718,-1.0283,-1.2431,1.0904,0.1564,0.2088,0.0954,
29.173136,0.1180,-1.0187,2.0159,0.1564,0.2088,0.0954,
29.233524,0.1180,-1.0187,2.0159,0.4345,0.8619,-0.1228,
29.236659,0.1180,-1.0187,2.0159,0.4345,0.8619,-0.1228,
29.237688,2.2174,-0.0890,4.1202,0.4345,0.8619,-0.1228,
29.299545,2.2174,-0.0890,4.1202,-0.4438,2.1620,-0.5070,
29.302337,2.2174,-0.0890,4.1202,-0.4438,2.1620,-0.5070,
29.303215,-1.3711,10.3212,0.2104,-0.4438,2.1620,-0.5070,
29.365321,-1.3711,10.3212,0.2104,1.0840,0.7103,-0.8601,
29.367810,-1.3711,10.3212,0.2104,1.0840,0.7103,-0.8601,
29.368228,-3.8254,-2.6690,-1.6216,1.0840,0.7103,-0.8601,
29.428800,-3.8254,-2.6690,-1.6216,0.8059,0.6442,0.9369,
29.433061,-3.8254,-2.6690,-1.6216,0.8059,0.6442,0.9369,
29.434453,4.9667,-1.7258,0.1181,0.8059,0.6442,0.9369,
29.495505,4.9667,-1.7258,0.1181,0.3790,0.4983,0.1176,
29.499443,4.9667,-1.7258,0.1181,0.3790,0.4983,0.1176,
29.499927,0.4098,0.8921,-1.2729,0.3790,0.4983,0.1176,
29.560390,0.4098,0.8921,-1.2729,0.6523,1.1416,0.6411,
29.565096,0.4098,0.8921,-1.2729,0.6523,1.1416,0.6411,
29.566367,0.3461,-2.4263,-2.3134,0.6523,1.1416,0.6411,
29.625688,0.3461,-2.4263,-2.3134,0.4551,0.7541,0.1266,
29.629878,0.3461,-2.4263,-2.3134,0.4551,0.7541,0.1266,
29.630901,-2.9193,2.0134,-1.0450,0.4551,0.7541,0.1266,
29.691317,-2.9193,2.0134,-1.0450,-0.2769,-0.1046,0.0507,
29.695939,-2.9193,2.0134,-1.0450,-0.2769,-0.1046,0.0507,
29.696914,-0.3437,-0.3411,-0.6228,-0.2769,-0.1046,0.0507,
29.758299,-0.3437,-0.3411,-0.6228,-0.0632,-0.3546,0.1794,
29.760161,-0.3437,-0.3411,-0.6228,-0.0632,-0.3546,0.1794,
29.760670,-0.9326,-2.0408,0.3684,-0.0632,-0.3546,0.1794,
29.822451,-0.9326,-2.0408,0.3684,-0.1277,-0.5886,0.2069,
29.825587,-0.9326,-2.0408,0.3684,-0.1277,-0.5886,0.2069,
29.825929,1.3317,-1.6138,1.3701,-0.1277,-0.5886,0.2069,
29.888339,1.3317,-1.6138,1.3701,0.1155,-0.3199,-0.2595,
29.891202,1.3317,-1.6138,1.3701,0.1155,-0.3199,-0.2595,
29.892842,2.4388,-0.7495,1.7889,0.1155,-0.3199,-0.2595,
29.954348,2.4388,-0.7495,1.7889,-0.1237,0.2494,-0.4603,
29.958428,2.4388,-0.7495,1.7889,-0.1237,0.2494,-0.4603,
29.960520,2.2782,3.0779,-2.6994,-0.1237,0.2494,-0.4603,
30.018968,2.2782,3.0779,-2.6994,-0.0454,-0.0070,0.5676,
30.021904,2.2782,3.0779,-2.6994,-0.0454,-0.0070,0.5676,
30.022984,-1.9490,1.6000,-1.6856,-0.0454,-0.0070,0.5676,
30.083643,-1.9490,1.6000,-1.6856,-1.7086,0.9316,-0.1738,
30.087763,-1.9490,1.6000,-1.6856,-1.7086,0.9316,-0.1738,
30.088401,-2.1717,-1.6616,-1.2545,-1.7086,0.9316,-0.1738,
30.149545,-2.1717,-1.6616,-1.2545,-1.1536,1.1729,-0.1529,
30.154338,-2.1717,-1.6616,-1.2545,-1.1536,1.1729,-0.1529,
30.155528,-0.5781,-0.1293,0.4520,-1.1536,1.1729,-0.1529,
30.215232,-0.5781,-0.1293,0.4520,-0.7010,0.7329,0.1381,
30.218864,-0.5781,-0.1293,0.4520,-0.7010,0.7329,0.1381,
30.219351,-0.4554,-2.8962,-0.3276,-0.7010,0.7329,0.1381,
30.281994,-0.4554,-2.8962,-0.3276,-0.0092,1.2718,0.0076,
30.284230,-0.4554,-2.8962,-0.3276,-0.0092,1.2718,0.0076,
30.285135,-0.0982,-1.7387,0.3020,-0.0092,1.2718,0.0076,
30.345958,-0.0982,-1.7387,0.3020,0.2592,1.0369,-0.0284,
30.350875,-0.0982,-1.7387,0.3020,0.2592,1.0369,-0.0284,
30.351747,-0.7860,-1.5619,0.8591,0.2592,1.0369,-0.0284,
30.410743,-0.7860,-1.5619,0.8591,0.1281,0.5718,-0.0564,
30.414132,-0.7860,-1.5619,0.8591,0.1281,0.5718,-0.0564,
30.415156,-1.6755,-0.5139,1.5221,0.1281,0.5718,-0.0564,
30.476567,-1.6755,-0.5139,1.5221,-1.2860,-0.0027,-0.1315,
30.480770,-1.6755,-0.5139,1.5221,-1.2860,-0.0027,-0.1315,
30.481954,-3.4581,7.8644,0.7192,-1.2860,-0.0027,-0.1315,
30.542159,-3.4581,7.8644,0.7192,0.4676,0.2329,0.1487,
30.546306,-3.4581,7.8644,0.7192,0.4676,0.2329,0.1487,
30.547219,1.6337,-5.7538,-2.8429,0.4676,0.2329,0.1487,
30.608021,1.6337,-5.7538,-2.8429,1.2278,0.5788,0.2085,
30.611372,1.6337,-5.7538,-2.8429,1.2278,0.5788,0.2085,
30.611804,2.4299,6.8234,-4.1294,1.2278,0.5788,0.2085,
30.673528,2.4299,6.8234,-4.1294,0.8532,0.7039,0.1567,
30.677328,2.4299,6.8234,-4.1294,0.8532,0.7039,0.1567,
30.678392,-0.1737,-0.8544,-1.9665,0.8532,0.7039,0.1567,
30.739078,-0.1737,-0.8544,-1.9665,0.6603,1.0388,-0.2509,
30.742832,-0.1737,-0.8544,-1.9665,0.6603,1.0388,-0.2509,
30.743917,0.6554,-2.1030,-1.3631,0.6603,1.0388,-0.2509,
30.804170,0.6554,-2.1030,-1.3631,0.2356,1.2924,0.0180,
30.807337,0.6554,-2.1030,-1.3631,0.2356,1.2924,0.0180,
30.807940,0.5065,-2.5212,-0.4952,0.2356,1.2924,0.0180,
30.870155,0.5065,-2.5212,-0.4952,0.4229,0.5148,-0.0817,
30.875042,0.5065,-2.5212,-0.4952,0.4229,0.5148,-0.0817,
30.876153,-0.2781,-1.4465,0.4840,0.4229,0.5148,-0.0817,
30.935828,-0.2781,-1.4465,0.4840,0.1385,0.0255,-0.2152,
30.939359,-0.2781,-1.4465,0.4840,0.1385,0.0255,-0.2152,
30.940340,0.7854,0.1123,1.0929,0.1385,0.0255,-0.2152,
31.000599,0.7854,0.1123,1.0929,0.3038,-0.1158,-0.1263,
31.003992,0.7854,0.1123,1.0929,0.3038,-0.1158,-0.1263,
31.004386,2.4347,1.1640,2.0659,0.3038,-0.1158,-0.1263,
31.065864,2.4347,1.1640,2.0659,-0.5424,-0.3659,-0.5997,
31.070279,2.4347,1.1640,2.0659,-0.5424,-0.3659,-0.5997,
31.070791,0.9387,0.2159,0.8806,-0.5424,-0.3659,-0.5997,
31.133049,0.9387,0.2159,0.8806,-0.3665,1.6309,0.9452,
31.135632,0.9387,0.2159,0.8806,-0.3665,1.6309,0.9452,
31.136208,1.6129,3.7500,-3.7091,-0.3665,1.6309,0.9452,
31.196017,1.6129,3.7500,-3.7091,-2.0782,-0.3569,-0.0919,
31.201590,1.6129,3.7500,-3.7091,-2.0782,-0.3569,-0.0919,
31.202301,-5.0150,0.3867,-2.8962,-2.0782,-0.3569,-0.0919,
31.262382,-5.0150,0.3867,-2.8962,-1.3480,1.7278,-0.1413,
31.266422,-5.0150,0.3867,-2.8962,-1.3480,1.7278,-0.1413,
31.267207,1.4843,-0.6025,-0.1092,-1.3480,1.7278,-0.1413,
31.328324,1.4843,-0.6025,-0.1092,-0.8201,1.2072,0.0811,
31.331987,1.4843,-0.6025,-0.1092,-0.8201,1.2072,0.0811,
31.332739,-0.4235,-2.4301,-0.2955,-0.8201,1.2072,0.0811,
31.393614,-0.4235,-2.4301,-0.2955,-0.0072,1.4601,0.1436,
31.398280,-0.4235,-2.4301,-0.2955,-0.0072,1.4601,0.1436,
31.399392,0.4639,-3.1006,-0.3573,-0.0072,1.4601,0.1436,
31.460036,0.4639,-3.1006,-0.3573,0.6313,1.4122,0.1423,
31.464010,0.4639,-3.1006,-0.3573,0.6313,1.4122,0.1423,
31.465050,-1.0698,-1.9486,0.8173,0.6313,1.4122,0.1423,
31.523050,-1.0698,-1.9486,0.8173,0.3496,0.8543,0.0110,
31.528643,-1.0698,-1.9486,0.8173,0.3496,0.8543,0.0110,
31.529717,-1.7157,-0.0138,1.0762,0.3496,0.8543,0.0110,
31.590355,-1.7157,-0.0138,1.0762,0.0376,0.1955,0.1941,
31.595665,-1.7157,-0.0138,1.0762,0.0376,0.1955,0.1941,
31.596738,-0.7253,0.0219,1.8701,0.0376,0.1955,0.1941,
31.656068,-0.7253,0.0219,1.8701,-1.5612,0.7469,-0.1008,
31.661589,-0.7253,0.0219,1.8701,-1.5612,0.7469,-0.1008,
31.663062,-1.8033,11.4660,0.6472,-1.5612,0.7469,-0.1008,
31.720626,-1.8033,11.4660,0.6472,0.7494,0.0557,0.2294,
31.726080,-1.8033,11.4660,0.6472,0.7494,0.0557,0.2294,
31.727030,0.8394,-3.7073,-2.6543,0.7494,0.0557,0.2294,
31.785903,0.8394,-3.7073,-2.6543,0.8150,-0.0783,0.4305,
31.790758,0.8394,-3.7073,-2.6543,0.8150,-0.0783,0.4305,
31.792368,2.4005,3.9912,-2.9995,0.8150,-0.0783,0.4305,
31.853056,2.4005,3.9912,-2.9995,0.9433,0.2317,0.4067,
31.856889,2.4005,3.9912,-2.9995,0.9433,0.2317,0.4067,
31.858049,0.6452,-2.0658,-1.9063,0.9433,0.2317,0.4067,
31.917540,0.6452,-2.0658,-1.9063,0.6158,0.7789,0.3063,
31.922391,0.6452,-2.0658,-1.9063,0.6158,0.7789,0.3063,
31.922858,1.5032,-2.1514,-2.1975,0.6158,0.7789,0.3063,
31.985485,1.5032,-2.1514,-2.1975,0.4595,0.8960,0.0628,
31.988227,1.5032,-2.1514,-2.1975,0.4595,0.8960,0.0628,
31.989329,-0.0661,-1.6082,-1.5382,0.4595,0.8960,0.0628,
32.050007,-0.0661,-1.6082,-1.5382,0.2068,0.3370,0.1504,
32.052452,-0.0661,-1.6082,-1.5382,0.2068,0.3370,0.1504,
32.053583,-0.0064,-1.1291,-0.4596,0.2068,0.3370,0.1504,
32.114220,-0.0064,-1.1291,-0.4596,0.1203,-0.0011,-0.0310,
32.117647,-0.0064,-1.1291,-0.4596,0.1203,-0.0011,-0.0310,
32.118675,-0.0305,0.0768,0.5684,0.1203,-0.0011,-0.0310,
32.181455,-0.0305,0.0768,0.5684,0.2828,-0.5484,-0.2818,
32.184545,-0.0305,0.0768,0.5684,0.2828,-0.5484,-0.2818,
32.185656,-0.0609,-1.0686,-0.5437,0.2828,-0.5484,-0.2818,
32.244787,-0.0609,-1.0686,-0.5437,0.3439,-1.1529,-0.6816,
32.249053,-0.0609,-1.0686,-0.5437,0.3439,-1.1529,-0.6816,
32.249991,1.4190,1.4809,0.8243,0.3439,-1.1529,-0.6816,
32.311401,1.4190,1.4809,0.8243,-0.0486,-0.8903,-0.2272,
32.314423,1.4190,1.4809,0.8243,-0.0486,-0.8903,-0.2272,
32.315181,2.5693,0.5684,1.1445,-0.0486,-0.8903,-0.2272,
32.378212,2.5693,0.5684,1.1445,-0.6744,-1.2521,0.1765,
32.381138,2.5693,0.5684,1.1445,-0.6744,-1.2521,0.1765,
32.382646,0.6990,1.7898,-3.0663,-0.6744,-1.2521,0.1765,
32.440335,0.6990,1.7898,-3.0663,-1.1854,-0.1579,1.0318,
32.444121,0.6990,1.7898,-3.0663,-1.1854,-0.1579,1.0318,
32.445277,-1.8658,2.6398,-3.9888,-1.1854,-0.1579,1.0318,
32.506973,-1.8658,2.6398,-3.9888,-1.6664,-0.5913,0.1993,
32.509930,-1.8658,2.6398,-3.9888,-1.6664,-0.5913,0.1993,
32.510920,-0.7050,0.1336,0.0605,-1.6664,-0.5913,0.1993,
32.571943,-0.7050,0.1336,0.0605,-1.1037,1.7213,-0.2091,
32.576717,-0.7050,0.1336,0.0605,-1.1037,1.7213,-0.2091,
32.577413,1.8504,-2.4891,0.1578,-1.1037,1.7213,-0.2091,
32.636818,1.8504,-2.4891,0.1578,-0.6035,2.0238,0.0857,
32.641051,1.8504,-2.4891,0.1578,-0.6035,2.0238,0.0857,
32.642268,-0.2836,-1.2286,-0.5215,-0.6035,2.0238,0.0857,
32.703056,-0.2836,-1.2286,-0.5215,-0.1168,1.6179,0.3972,
32.706428,-0.2836,-1.2286,-0.5215,-0.1168,1.6179,0.3972,
32.707077,-0.3580,-1.7561,-0.4604,-0.1168,1.6179,0.3972,
32.767840,-0.3580,-1.7561,-0.4604,0.2439,1.4453,0.1822,
32.771244,-0.3580,-1.7561,-0.4604,0.2439,1.4453,0.1822,
32.771777,-0.1515,-1.2773,-0.3844,0.2439,1.4453,0.1822,
32.832913,-0.1515,-1.2773,-0.3844,0.2416,0.6785,0.2947,
32.837351,-0.1515,-1.2773,-0.3844,0.2416,0.6785,0.2947,
32.837847,-1.4787,-1.2779,0.6564,0.2416,0.6785,0.2947,
32.900426,-1.4787,-1.2779,0.6564,0.1984,0.6141,0.1790,
32.903653,-1.4787,-1.2779,0.6564,0.1984,0.6141,0.1790,
32.904577,0.0398,-0.2536,1.4365,0.1984,0.6141,0.1790,
32.966080,0.0398,-0.2536,1.4365,0.5563,0.8244,0.0312,
32.969326,0.0398,-0.2536,1.4365,0.5563,0.8244,0.0312,
32.970626,0.7930,-0.2111,2.2104,0.5563,0.8244,0.0312,
33.031465,0.7930,-0.2111,2.2104,0.3511,-0.1205,-0.7091,
33.034132,0.7930,-0.2111,2.2104,0.3511,-0.1205,-0.7091,
33.035141,-2.7559,10.8288,-2.6357,0.3511,-0.1205,-0.7091,
33.096871,-2.7559,10.8288,-2.6357,1.3555,0.3572,-0.2596,
33.100379,-2.7559,10.8288,-2.6357,1.3555,0.3572,-0.2596,
33.101513,0.4933,-3.5553,-2.0662,1.3555,0.3572,-0.2596,
33.162143,0.4933,-3.5553,-2.0662,0.8134,-0.0247,0.6680,
33.165490,0.4933,-3.5553,-2.0662,0.8134,-0.0247,0.6680,
33.166589,-0.0024,0.4020,-1.0965,0.8134,-0.0247,0.6680,
33.227526,-0.0024,0.4020,-1.0965,0.3315,0.1668,0.3742,
33.230999,-0.0024,0.4020,-1.0965,0.3315,0.1668,0.3742,
33.232082,2.8051,-0.7418,-2.8748,0.3315,0.1668,0.3742,
33.292511,2.8051,-0.7418,-2.8748,0.9539,0.9313,0.4108,
33.297089,2.8051,-0.7418,-2.8748,0.9539,0.9313,0.4108,
33.297677,0.0316,-2.3795,-2.2121,0.9539,0.9313,0.4108,
33.357257,0.0316,-2.3795,-2.2121,0.6074,0.4746,0.0199,
33.361028,0.0316,-2.3795,-2.2121,0.6074,0.4746,0.0199,
33.361701,-0.7293,1.5330,-0.2448,0.6074,0.4746,0.0199,
33.422219,-0.7293,1.5330,-0.2448,-0.0118,-0.4061,0.1718,
33.428118,-0.7293,1.5330,-0.2448,-0.0118,-0.4061,0.1718,
33.429006,-0.0951,-0.8096,-0.1770,-0.0118,-0.4061,0.1718,
33.488370,-0.0951,-0.8096,-0.1770,0.0706,-0.6223,0.1381,
33.492232,-0.0951,-0.8096,-0.1770,0.0706,-0.6223,0.1381,
33.493138,0.7592,-0.3126,1.1350,0.0706,-0.6223,0.1381,
33.554091,0.7592,-0.3126,1.1350,0.3213,-0.3778,0.3096,
33.557884,0.7592,-0.3126,1.1350,0.3213,-0.3778,0.3096,
33.558194,2.8994,-0.0097,1.9549,0.3213,-0.3778,0.3096,
33.619449,2.8994,-0.0097,1.9549,0.1335,0.0041,-0.1471,
33.623612,2.8994,-0.0097,1.9549,0.1335,0.0041,-0.1471,
33.624759,1.0606,0.4283,1.4811,0.1335,0.0041,-0.1471,
33.686175,1.0606,0.4283,1.4811,-0.7877,-0.9581,-0.4737,
33.688585,1.0606,0.4283,1.4811,-0.7877,-0.9581,-0.4737,
33.689755,-1.3822,1.4572,-0.4485,-0.7877,-0.9581,-0.4737,
33.749022,-1.3822,1.4572,-0.4485,-0.5373,-0.0264,0.8854,
33.753627,-1.3822,1.4572,-0.4485,-0.5373,-0.0264,0.8854,
33.754870,1.9540,3.5356,-4.1003,-0.5373,-0.0264,0.8854,
33.816940,1.9540,3.5356,-4.1003,-2.0530,-1.3415,-0.3563,
33.820362,1.9540,3.5356,-4.1003,-2.0530,-1.3415,-0.3563,
33.821251,-4.0632,-0.8539,-4.4986,-2.0530,-1.3415,-0.3563,
33.883091,-4.0632,-0.8539,-4.4986,-1.4238,0.6976,-0.5939,
33.885688,-4.0632,-0.8539,-4.4986,-1.4238,0.6976,-0.5939,
33.886846,1.7940,0.1010,0.5424,-1.4238,0.6976,-0.5939,
33.947527,1.7940,0.1010,0.5424,-0.9386,-0.1932,-0.0142,
33.951140,1.7940,0.1010,0.5424,-0.9386,-0.1932,-0.0142,
33.951923,-0.6435,-2.6120,0.1163,-0.9386,-0.1932,-0.0142,
34.012408,-0.6435,-2.6120,0.1163,0.0139,0.4094,0.1839,
34.017609,-0.6435,-2.6120,0.1163,0.0139,0.4094,0.1839,
34.017965,-0.3071,-3.7763,0.4451,0.0139,0.4094,0.1839,
34.078901,-0.3071,-3.7763,0.4451,0.6990,0.4650,0.0935,
34.083167,-0.3071,-3.7763,0.4451,0.6990,0.4650,0.0935,
34.083615,0.3146,-2.6365,1.4132,0.6990,0.4650,0.0935,
34.144630,0.3146,-2.6365,1.4132,0.6979,0.3502,0.1970,
34.148360,0.3146,-2.6365,1.4132,0.6979,0.3502,0.1970,
34.148702,0.2586,0.2898,1.0310,0.6979,0.3502,0.1970,
34.208864,0.2586,0.2898,1.0310,-0.0565,-0.9817,-0.2856,
34.212927,0.2586,0.2898,1.0310,-0.0565,-0.9817,-0.2856,
34.213360,-2.4390,14.2480,-2.2776,-0.0565,-0.9817,-0.2856,
34.274321,-2.4390,14.2480,-2.2776,1.3598,1.3225,-0.3731,
34.277512,-2.4390,14.2480,-2.2776,1.3598,1.3225,-0.3731,
34.278238,1.7587,-4.8552,-1.2075,1.3598,1.3225,-0.3731,
34.340461,1.7587,-4.8552,-1.2075,0.8259,1.0841,1.0678,
34.344086,1.7587,-4.8552,-1.2075,0.8259,1.0841,1.0678,
34.344451,3.1906,-3.6642,-0.9414,0.8259,1.0841,1.0678,
34.407218,3.1906,-3.6642,-0.9414,0.4670,1.2995,-0.4013,
34.408905,3.1906,-3.6642,-0.9414,0.4670,1.2995,-0.4013,
34.409306,-2.2882,1.8052,-1.3963,0.4670,1.2995,-0.4013,
34.471811,-2.2882,1.8052,-1.3963,-0.0745,0.2072,0.2164,
34.474514,-2.2882,1.8052,-1.3963,-0.0745,0.2072,0.2164,
34.474940,0.0869,-1.2746,-1.9125,-0.0745,0.2072,0.2164,
34.535853,0.0869,-1.2746,-1.9125,0.4192,-0.1281,0.0790,
34.540592,0.0869,-1.2746,-1.9125,0.4192,-0.1281,0.0790,
34.540939,-0.7116,0.1859,-0.4170,0.4192,-0.1281,0.0790,
34.601891,-0.7116,0.1859,-0.4170,0.2320,-1.2226,0.1100,
34.605783,-0.7116,0.1859,-0.4170,0.2320,-1.2226,0.1100,
34.606172,0.2245,-1.5748,-0.4581,0.2320,-1.2226,0.1100,
34.667473,0.2245,-1.5748,-0.4581,0.4780,-1.2339,0.0328,
34.670857,0.2245,-1.5748,-0.4581,0.4780,-1.2339,0.0328,
34.671666,1.4465,-0.0166,0.7889,0.4780,-1.2339,0.0328,
34.733057,1.4465,-0.0166,0.7889,0.3545,-1.0508,0.0764,
34.737264,1.4465,-0.0166,0.7889,0.3545,-1.0508,0.0764,
34.737614,2.5103,0.2373,1.5169,0.3545,-1.0508,0.0764,
34.798037,2.5103,0.2373,1.5169,-0.2680,-0.5689,-0.1735,
34.803252,2.5103,0.2373,1.5169,-0.2680,-0.5689,-0.1735,
34.803694,1.8121,1.0683,2.4564,-0.2680,-0.5689,-0.1735,
34.864425,1.8121,1.0683,2.4564,-1.0374,0.3702,0.3108,
34.868531,1.8121,1.0683,2.4564,-1.0374,0.3702,0.3108,
34.869152,2.5109,2.6904,-5.2586,-1.0374,0.3702,0.3108,
34.929861,2.5109,2.6904,-5.2586,-1.4281,0.1567,0.0069,
34.934212,2.5109,2.6904,-5.2586,-1.4281,0.1567,0.0069,
34.935254,-4.7423,3.7973,-2.3892,-1.4281,0.1567,0.0069,
34.993154,-4.7423,3.7973,-2.3892,-1.7825,-0.1051,-0.6437,
34.997621,-4.7423,3.7973,-2.3892,-1.7825,-0.1051,-0.6437,
34.998849,0.7090,-2.9761,-3.8360,-1.7825,-0.1051,-0.6437,
35.060620,0.7090,-2.9761,-3.8360,-0.8540,1.0495,-0.3722,
35.064007,0.7090,-2.9761,-3.8360,-0.8540,1.0495,-0.3722,
35.064868,-0.1931,-0.9914,1.2682,-0.8540,1.0495,-0.3722,
35.126410,-0.1931,-0.9914,1.2682,-0.1362,0.5118,-0.0069,
35.130314,-0.1931,-0.9914,1.2682,-0.1362,0.5118,-0.0069,
35.131234,-0.2923,-3.4726,0.4056,-0.1362,0.5118,-0.0069,
35.191267,-0.2923,-3.4726,0.4056,0.3112,1.0692,-0.0099,
35.194883,-0.2923,-3.4726,0.4056,0.3112,1.0692,-0.0099,
35.195707,-0.0192,-2.8456,1.1819,0.3112,1.0692,-0.0099,
35.256635,-0.0192,-2.8456,1.1819,0.6474,0.9526,0.1064,
35.260639,-0.0192,-2.8456,1.1819,0.6474,0.9526,0.1064,
35.261615,0.5969,-1.4543,1.3179,0.6474,0.9526,0.1064,
35.322901,0.5969,-1.4543,1.3179,0.4308,0.6133,-0.0863,
35.326812,0.5969,-1.4543,1.3179,0.4308,0.6133,-0.0863,
35.327101,-1.1618,2.5322,2.3846,0.4308,0.6133,-0.0863,
35.387295,-1.1618,2.5322,2.3846,0.3346,-1.3853,-1.7727,
35.390789,-1.1618,2.5322,2.3846,0.3346,-1.3853,-1.7727,
35.391630,-3.3123,9.3168,-5.8669,0.3346,-1.3853,-1.7727,
35.454159,-3.3123,9.3168,-5.8669,1.3248,0.8126,0.3929,
35.456757,-3.3123,9.3168,-5.8669,1.3248,0.8126,0.3929,
35.457520,2.8962,-5.4178,-0.3932,1.3248,0.8126,0.3929,
35.519658,2.8962,-5.4178,-0.3932,0.0212,-0.4006,1.4236,
35.522388,2.8962,-5.4178,-0.3932,0.0212,-0.4006,1.4236,
35.522694,3.7123,3.5796,0.2391,0.0212,-0.4006,1.4236,
35.583488,3.7123,3.5796,0.2391,0.7025,2.5945,0.0793,
35.588325,3.7123,3.5796,0.2391,0.7025,2.5945,0.0793,
35.589133,0.2302,-3.2235,-3.4995,0.7025,2.5945,0.0793,
35.651062,0.2302,-3.2235,-3.4995,0.7495,1.2451,0.1078,
35.653827,0.2302,-3.2235,-3.4995,0.7495,1.2451,0.1078,
35.654227,-1.3051,0.1740,-1.8648,0.7495,1.2451,0.1078,
35.714323,-1.3051,0.1740,-1.8648,0.1842,0.6261,-0.2856,
35.718868,-1.3051,0.1740,-1.8648,0.1842,0.6261,-0.2856,
35.720008,0.5391,-0.0406,-0.0427,0.1842,0.6261,-0.2856,
35.780332,0.5391,-0.0406,-0.0427,0.0150,-0.3442,0.0641,
35.785809,0.5391,-0.0406,-0.0427,0.0150,-0.3442,0.0641,
35.786641,-0.2006,-1.7258,1.1534,0.0150,-0.3442,0.0641,
35.846244,-0.2006,-1.7258,1.1534,-0.1194,-0.7433,-0.1701,
35.850694,-0.2006,-1.7258,1.1534,-0.1194,-0.7433,-0.1701,
35.851992,0.6768,1.0347,2.7323,-0.1194,-0.7433,-0.1701,
35.910589,0.6768,1.0347,2.7323,-1.2161,-1.1397,-0.7184,
35.915474,0.6768,1.0347,2.7323,-1.2161,-1.1397,-0.7184,
35.916519,1.6539,0.8655,-1.1341,-1.2161,-1.1397,-0.7184,
35.977523,1.6539,0.8655,-1.1341,-0.3622,0.2190,0.9369,
35.981078,1.6539,0.8655,-1.1341,-0.3622,0.2190,0.9369,
35.981839,2.1158,5.3542,-4.2624,-0.3622,0.2190,0.9369,
36.044209,2.1158,5.3542,-4.2624,-1.8705,0.3045,-0.8202,
36.047169,2.1158,5.3542,-4.2624,-1.8705,0.3045,-0.8202,
36.047473,-2.4573,-4.2091,0.2981,-1.8705,0.3045,-0.8202,
36.107403,-2.4573,-4.2091,0.2981,-0.9598,1.7683,-0.3957,
36.111370,-2.4573,-4.2091,0.2981,-0.9598,1.7683,-0.3957,
36.112213,2.3653,-0.7673,0.5845,-0.9598,1.7683,-0.3957,
36.174441,2.3653,-0.7673,0.5845,-0.3170,0.3479,0.0967,
36.179682,2.3653,-0.7673,0.5845,-0.3170,0.3479,0.0967,
36.180656,-0.9885,-1.6588,-0.3872,-0.3170,0.3479,0.0967,
36.237981,-0.9885,-1.6588,-0.3872,0.2969,0.8289,0.1092,
36.242598,-0.9885,-1.6588,-0.3872,0.2969,0.8289,0.1092,
36.243203,0.9048,-3.1582,0.2481,0.2969,0.8289,0.1092,
36.303146,0.9048,-3.1582,0.2481,0.7217,1.1367,0.0605,
36.308657,0.9048,-3.1582,0.2481,0.7217,1.1367,0.0605,
36.308982,0.6923,-0.9757,1.3516,0.7217,1.1367,0.0605,
36.370146,0.6923,-0.9757,1.3516,0.4511,0.5073,0.2879,
36.374659,0.6923,-0.9757,1.3516,0.4511,0.5073,0.2879,
36.375443,-1.3643,-0.0368,3.5494,0.4511,0.5073,0.2879,
36.435530,-1.3643,-0.0368,3.5494,-1.3899,0.1232,0.3070,
36.438661,-1.3643,-0.0368,3.5494,-1.3899,0.1232,0.3070,
36.439328,-0.4676,14.8302,-2.5625,-1.3899,0.1232,0.3070,
36.499787,-0.4676,14.8302,-2.5625,1.0687,0.8980,-0.7208,
36.504511,-0.4676,14.8302,-2.5625,1.0687,0.8980,-0.7208,
36.505384,-0.3375,-3.3266,-2.4974,1.0687,0.8980,-0.7208,
36.566028,-0.3375,-3.3266,-2.4974,1.0644,0.6497,1.5136,
36.570283,-0.3375,-3.3266,-2.4974,1.0644,0.6497,1.5136,
36.571354,2.9206,-2.9627,-0.4896,1.0644,0.6497,1.5136,
36.630982,2.9206,-2.9627,-0.4896,0.0648,0.9850,0.3505,
36.636521,2.9206,-2.9627,-0.4896,0.0648,0.9850,0.3505,
36.636939,3.8680,-1.1085,-3.1551,0.0648,0.9850,0.3505,
36.698786,3.8680,-1.1085,-3.1551,0.9395,1.7573,0.3488,
36.701458,3.8680,-1.1085,-3.1551,0.9395,1.7573,0.3488,
36.701911,0.4904,-0.9169,-1.2847,0.9395,1.7573,0.3488,
36.764397,0.4904,-0.9169,-1.2847,0.2550,0.4670,0.3428,
36.767551,0.4904,-0.9169,-1.2847,0.2550,0.4670,0.3428,
36.768016,-0.5876,0.8906,0.2048,0.2550,0.4670,0.3428,
36.826988,-0.5876,0.8906,0.2048,0.2404,0.1443,-0.0162,
36.831529,-0.5876,0.8906,0.2048,0.2404,0.1443,-0.0162,
36.833013,0.8714,-0.7813,-0.1632,0.2404,0.1443,-0.0162,
36.894103,0.8714,-0.7813,-0.1632,0.2373,-0.5345,-0.4226,
36.896590,0.8714,-0.7813,-0.1632,0.2373,-0.5345,-0.4226,
36.897492,0.6962,-1.3069,-0.1222,0.2373,-0.5345,-0.4226,
36.959945,0.6962,-1.3069,-0.1222,0.3836,-1.2956,-0.5001,
36.962422,0.6962,-1.3069,-0.1222,0.3836,-1.2956,-0.5001,
36.962697,2.4778,-0.6674,1.3657,0.3836,-1.2956,-0.5001,
37.023818,2.4778,-0.6674,1.3657,-0.1358,-1.0805,-0.1361,
37.027968,2.4778,-0.6674,1.3657,-0.1358,-1.0805,-0.1361,
37.029076,3.1889,2.0797,1.0341,-0.1358,-1.0805,-0.1361,
37.090503,3.1889,2.0797,1.0341,-0.4155,-0.5000,1.0296,
37.094741,3.1889,2.0797,1.0341,-0.4155,-0.5000,1.0296,
37.095578,-1.1173,5.0669,-2.6616,-0.4155,-0.5000,1.0296,
37.155607,-1.1173,5.0669,-2.6616,-2.2255,-0.6185,-0.2990,
37.160479,-1.1173,5.0669,-2.6616,-2.2255,-0.6185,-0.2990,
37.161624,-2.8343,-2.0664,-0.0151,-2.2255,-0.6185,-0.2990,
37.220421,-2.8343,-2.0664,-0.0151,-1.1684,0.8039,-0.1584,
37.226545,-2.8343,-2.0664,-0.0151,-1.1684,0.8039,-0.1584,
37.227044,-0.4997,-1.0453,-0.5385,-1.1684,0.8039,-0.1584,
37.287546,-0.4997,-1.0453,-0.5385,-0.7153,-0.4519,-0.1825,
37.289943,-0.4997,-1.0453,-0.5385,-0.7153,-0.4519,-0.1825,
37.290209,-0.0013,-1.0875,-0.2078,-0.7153,-0.4519,-0.1825,
37.352635,-0.0013,-1.0875,-0.2078,-0.1694,0.5505,0.2540,
37.356525,-0.0013,-1.0875,-0.2078,-0.1694,0.5505,0.2540,
37.358258,2.2908,-3.6985,0.8150,-0.1694,0.5505,0.2540,
37.416946,2.2908,-3.6985,0.8150,0.5426,1.2500,0.0232,
37.421059,2.2908,-3.6985,0.8150,0.5426,1.2500,0.0232,
37.422502,0.8835,-2.3026,1.6427,0.5426,1.2500,0.0232,
37.482358,0.8835,-2.3026,1.6427,0.2109,0.9675,0.2245,
37.486484,0.8835,-2.3026,1.6427,0.2109,0.9675,0.2245,
37.487085,0.0987,0.6912,2.9487,0.2109,0.9675,0.2245,
37.548131,0.0987,0.6912,2.9487,-1.0282,0.8260,-0.2257,
37.552180,0.0987,0.6912,2.9487,-1.0282,0.8260,-0.2257,
37.552593,-0.1801,14.7154,-0.8500,-1.0282,0.8260,-0.2257,
37.613247,-0.1801,14.7154,-0.8500,1.3470,-0.1787,-1.2701,
37.616890,-0.1801,14.7154,-0.8500,1.3470,-0.1787,-1.2701,
37.617642,-0.5692,-5.9358,-0.4058,1.3470,-0.1787,-1.2701,
37.678991,-0.5692,-5.9358,-0.4058,1.4122,2.6800,0.7755,
37.683404,-0.5692,-5.9358,-0.4058,1.4122,2.6800,0.7755,
37.684494,4.2719,-1.7661,-2.3559,1.4122,2.6800,0.7755,
37.743873,4.2719,-1.7661,-2.3559,-0.4678,0.0860,0.1584,
37.748224,4.2719,-1.7661,-2.3559,-0.4678,0.0860,0.1584,
37.749386,-0.3947,1.4526,0.1498,-0.4678,0.0860,0.1584,
37.811098,-0.3947,1.4526,0.1498,0.2231,1.0993,0.4873,
37.814629,-0.3947,1.4526,0.1498,0.2231,1.0993,0.4873,
37.815800,1.8275,-3.4320,-3.1736,0.2231,1.0993,0.4873,
37.875892,1.8275,-3.4320,-3.1736,0.7066,1.1322,0.3238,
37.879335,1.8275,-3.4320,-3.1736,0.7066,1.1322,0.3238,
37.880627,-1.0362,0.4631,-1.1681,0.7066,1.1322,0.3238,
37.941085,-1.0362,0.4631,-1.1681,0.1226,-0.2740,0.5018,
37.944699,-1.0362,0.4631,-1.1681,0.1226,-0.2740,0.5018,
37.946042,0.6989,-0.4982,-0.5067,0.1226,-0.2740,0.5018,
38.006506,0.6989,-0.4982,-0.5067,-0.0467,0.2831,0.1246,
38.010373,0.6989,-0.4982,-0.5067,-0.0467,0.2831,0.1246,
38.011731,2.1012,-0.5678,-0.1816,-0.0467,0.2831,0.1246,
38.072822,2.1012,-0.5678,-0.1816,-0.1984,0.1290,0.0197,
38.078100,2.1012,-0.5678,-0.1816,-0.1984,0.1290,0.0197,
38.079442,1.3071,0.9748,2.4253,-0.1984,0.1290,0.0197,
38.136791,1.3071,0.9748,2.4253,-0.5023,0.3022,-0.0845,
38.140955,1.3071,0.9748,2.4253,-0.5023,0.3022,-0.0845,
38.142194,3.1222,0.8692,0.6015,-0.5023,0.3022,-0.0845,
38.206556,3.1222,0.8692,0.6015,-1.3283,-0.0993,0.1407,
38.210009,3.1222,0.8692,0.6015,-1.3283,-0.0993,0.1407,
38.210822,-2.5354,1.7792,-2.0058,-1.3283,-0.0993,0.1407,
38.268674,-2.5354,1.7792,-2.0058,-1.8331,-1.1933,0.4513,
38.273603,-2.5354,1.7792,-2.0058,-1.8331,-1.1933,0.4513,
38.274654,-2.4953,-0.0083,-2.3426,-1.8331,-1.1933,0.4513,
38.334106,-2.4953,-0.0083,-2.3426,-1.0001,0.6596,-0.4719,
38.339430,-2.4953,-0.0083,-2.3426,-1.0001,0.6596,-0.4719,
38.340921,2.1841,-0.0522,0.1012,-1.0001,0.6596,-0.4719,
38.399498,2.1841,-0.0522,0.1012,-0.6179,0.9986,-0.1188,
38.403692,2.1841,-0.0522,0.1012,-0.6179,0.9986,-0.1188,
38.404387,-0.2687,-1.9070,0.8750,-0.6179,0.9986,-0.1188,
38.464785,-0.2687,-1.9070,0.8750,0.1721,0.6997,0.1652,
38.469311,-0.2687,-1.9070,0.8750,0.1721,0.6997,0.1652,
38.469980,-0.5052,-4.4159,1.0333,0.1721,0.6997,0.1652,
38.530868,-0.5052,-4.4159,1.0333,0.7333,0.4847,0.1457,
38.533845,-0.5052,-4.4159,1.0333,0.7333,0.4847,0.1457,
38.535094,-1.3704,-2.3955,1.8034,0.7333,0.4847,0.1457,
38.596382,-1.3704,-2.3955,1.8034,-1.6330,0.7634,-0.3945,
38.600352,-1.3704,-2.3955,1.8034,-1.6330,0.7634,-0.3945,
38.601543,0.4931,12.2628,4.2632,-1.6330,0.7634,-0.3945,
38.662641,0.4931,12.2628,4.2632,0.7010,0.6891,0.2807,
38.665888,0.4931,12.2628,4.2632,0.7010,0.6891,0.2807,
38.667692,1.5767,-2.2809,-1.6608,0.7010,0.6891,0.2807,
38.726951,1.5767,-2.2809,-1.6608,1.5768,0.1071,0.2894,
38.730451,1.5767,-2.2809,-1.6608,1.5768,0.1071,0.2894,
38.731162,0.0383,1.2890,-1.8274,1.5768,0.1071,0.2894,
38.792799,0.0383,1.2890,-1.8274,1.3028,0.1072,0.2831,
38.796391,0.0383,1.2890,-1.8274,1.3028,0.1072,0.2831,
38.797956,0.6749,-2.8956,-1.5571,1.3028,0.1072,0.2831,
38.856989,0.6749,-2.8956,-1.5571,1.3147,1.4259,0.0925,
38.862259,0.6749,-2.8956,-1.5571,1.3147,1.4259,0.0925,
38.863135,2.7946,-2.4771,-1.7079,1.3147,1.4259,0.0925,
38.924399,2.7946,-2.4771,-1.7079,1.0246,0.5924,-0.3181,
38.926906,2.7946,-2.4771,-1.7079,1.0246,0.5924,-0.3181,
38.927929,-0.3943,0.4112,1.8688,1.0246,0.5924,-0.3181,
38.989994,-0.3943,0.4112,1.8688,0.3160,-0.2917,-0.1717,
38.992704,-0.3943,0.4112,1.8688,0.3160,-0.2917,-0.1717,
38.993833,1.0255,0.4728,1.9008,0.3160,-0.2917,-0.1717,
39.054528,1.0255,0.4728,1.9008,-0.3508,-0.7295,-0.3473,
39.059006,1.0255,0.4728,1.9008,-0.3508,-0.7295,-0.3473,
39.060290,0.6229,0.2912,2.0163,-0.3508,-0.7295,-0.3473,
39.119750,0.6229,0.2912,2.0163,-0.8034,-0.5130,0.7654,
39.123513,0.6229,0.2912,2.0163,-0.8034,-0.5130,0.7654,
39.124473,1.8836,3.7263,-3.1785,-0.8034,-0.5130,0.7654,
39.185517,1.8836,3.7263,-3.1785,-1.1507,-1.1083,0.2950,
39.189950,1.8836,3.7263,-3.1785,-1.1507,-1.1083,0.2950,
39.191133,-2.8372,1.0182,-3.2683,-1.1507,-1.1083,0.2950,
39.251170,-2.8372,1.0182,-3.2683,-1.5783,0.0938,-0.2683,
39.254323,-2.8372,1.0182,-3.2683,-1.5783,0.0938,-0.2683,
39.255448,0.9807,-3.0785,-1.0682,-1.5783,0.0938,-0.2683,
39.315388,0.9807,-3.0785,-1.0682,-1.1031,-0.1428,-0.2381,
39.320991,0.9807,-3.0785,-1.0682,-1.1031,-0.1428,-0.2381,
39.322216,-0.9634,0.9256,0.8418,-1.1031,-0.1428,-0.2381,
39.380403,-0.9634,0.9256,0.8418,-0.5779,-0.2390,0.1060,
39.385432,-0.9634,0.9256,0.8418,-0.5779,-0.2390,0.1060,
39.386429,0.0442,-2.8214,0.2750,-0.5779,-0.2390,0.1060,
39.445739,0.0442,-2.8214,0.2750,0.3309,0.6797,-0.3173,
39.450776,0.0442,-2.8214,0.2750,0.3309,0.6797,-0.3173,
39.451761,0.5816,-2.2118,1.4712,0.3309,0.6797,-0.3173,
39.511969,0.5816,-2.2118,1.4712,0.6289,0.5678,-0.0463,
39.516306,0.5816,-2.2118,1.4712,0.6289,0.5678,-0.0463,
39.517523,0.5706,-1.9599,2.0196,0.6289,0.5678,-0.0463,
39.577887,0.5706,-1.9599,2.0196,-0.2341,0.3372,0.1101,
39.581533,0.5706,-1.9599,2.0196,-0.2341,0.3372,0.1101,
39.582810,-2.4492,3.2001,3.1932,-0.2341,0.3372,0.1101,
39.642032,-2.4492,3.2001,3.1932,-0.7072,-0.0699,-0.7361,
39.646028,-2.4492,3.2001,3.1932,-0.7072,-0.0699,-0.7361,
39.646688,0.3991,5.7741,0.0255,-0.7072,-0.0699,-0.7361,
39.708659,0.3991,5.7741,0.0255,0.7840,1.0927,0.6371,
39.712694,0.3991,5.7741,0.0255,0.7840,1.0927,0.6371,
39.713390,3.2316,-0.5298,-1.2759,0.7840,1.0927,0.6371,
39.772923,3.2316,-0.5298,-1.2759,1.3318,0.5835,0.2770,
39.777716,3.2316,-0.5298,-1.2759,1.3318,0.5835,0.2770,
39.779092,-0.3328,-0.9017,-2.0669,1.3318,0.5835,0.2770,
39.840095,-0.3328,-0.9017,-2.0669,1.1089,0.2088,0.2683,
39.843921,-0.3328,-0.9017,-2.0669,1.1089,0.2088,0.2683,
39.845384,0.5432,-2.4313,-3.6597,1.1089,0.2088,0.2683,
39.908247,0.5432,-2.4313,-3.6597,1.0316,0.4372,0.0199,
39.912268,0.5432,-2.4313,-3.6597,1.0316,0.4372,0.0199,
39.913662,1.4556,0.4995,-2.2987,1.0316,0.4372,0.0199,
39.971999,1.4556,0.4995,-2.2987,0.5641,0.1547,0.0460,
39.975804,1.4556,0.4995,-2.2987,0.5641,0.1547,0.0460,
39.976741,0.6456,0.1623,-0.0528,0.5641,0.1547,0.0460,
40.035699,0.6456,0.1623,-0.0528,0.2569,0.1422,0.0823,
40.040335,0.6456,0.1623,-0.0528,0.2569,0.1422,0.0823,
40.041656,1.2731,0.7013,1.3458,0.2569,0.1422,0.0823,
40.101365,1.2731,0.7013,1.3458,-0.3158,-0.4311,-0.0929,
40.105583,1.2731,0.7013,1.3458,-0.3158,-0.4311,-0.0929,
40.107059,1.0424,0.0433,1.5444,-0.3158,-0.4311,-0.0929,
40.167272,1.0424,0.0433,1.5444,-0.8173,-0.0183,-0.5510,
40.170650,1.0424,0.0433,1.5444,-0.8173,-0.0183,-0.5510,
40.171979,1.6625,-1.7308,0.5538,-0.8173,-0.0183,-0.5510,
40.233583,1.6625,-1.7308,0.5538,-0.4375,0.4777,0.7356,
40.237419,1.6625,-1.7308,0.5538,-0.4375,0.4777,0.7356,
40.238667,1.5593,4.1013,-1.9626,-0.4375,0.4777,0.7356,
40.297675,1.5593,4.1013,-1.9626,-1.4856,-0.0171,0.7688,
40.301999,1.5593,4.1013,-1.9626,-1.4856,-0.0171,0.7688,
40.303341,-1.6658,-0.6407,-1.3389,-1.4856,-0.0171,0.7688,
40.363653,-1.6658,-0.6407,-1.3389,-0.6872,1.6667,-0.2940,
40.368239,-1.6658,-0.6407,-1.3389,-0.6872,1.6667,-0.2940,
40.369792,2.2418,0.1358,-0.9178,-0.6872,1.6667,-0.2940,
40.428978,2.2418,0.1358,-0.9178,-0.1339,1.2401,-0.0055,
40.433568,2.2418,0.1358,-0.9178,-0.1339,1.2401,-0.0055,
40.435024,-0.9680,-1.5761,-0.2577,-0.1339,1.2401,-0.0055,
40.494360,-0.9680,-1.5761,-0.2577,0.3407,1.4187,-0.0738,
40.498522,-0.9680,-1.5761,-0.2577,0.3407,1.4187,-0.0738,
40.499226,0.9916,-1.3946,0.7898,0.3407,1.4187,-0.0738,
40.559956,0.9916,-1.3946,0.7898,0.6176,1.1403,0.0849,
40.564552,0.9916,-1.3946,0.7898,0.6176,1.1403,0.0849,
40.565908,-0.4326,-1.1674,0.8017,0.6176,1.1403,0.0849,
40.624743,-0.4326,-1.1674,0.8017,0.8566,1.1328,-0.1912,
40.630893,-0.4326,-1.1674,0.8017,0.8566,1.1328,-0.1912,
40.631529,-0.3535,-0.1126,2.0622,0.8566,1.1328,-0.1912,
40.690409,-0.3535,-0.1126,2.0622,0.1103,0.5392,-0.1637,
40.693980,-0.3535,-0.1126,2.0622,0.1103,0.5392,-0.1637,
40.694292,-0.2840,0.7010,4.0613,0.1103,0.5392,-0.1637,
40.756384,-0.2840,0.7010,4.0613,-0.3450,0.5342,-1.1431,
40.760346,-0.2840,0.7010,4.0613,-0.3450,0.5342,-1.1431,
40.762140,-0.4031,7.7871,-2.6943,-0.3450,0.5342,-1.1431,
40.821422,-0.4031,7.7871,-2.6943,0.5198,0.7792,0.0971,
40.825339,-0.4031,7.7871,-2.6943,0.5198,0.7792,0.0971,
40.826317,1.5374,-3.9751,-2.3398,0.5198,0.7792,0.0971,
40.886842,1.5374,-3.9751,-2.3398,1.1319,-0.1035,0.5269,
40.890889,1.5374,-3.9751,-2.3398,1.1319,-0.1035,0.5269,
40.892226,-1.5560,0.5451,-2.7727,1.1319,-0.1035,0.5269,
40.952431,-1.5560,0.5451,-2.7727,0.1611,-0.2477,0.3059,
40.956477,-1.5560,0.5451,-2.7727,0.1611,-0.2477,0.3059,
40.957406,3.2307,-0.3415,-1.8347,0.1611,-0.2477,0.3059,
41.019465,3.2307,-0.3415,-1.8347,0.5612,0.5837,0.2092,
41.024092,3.2307,-0.3415,-1.8347,0.5612,0.5837,0.2092,
41.025520,-0.3479,-0.7947,-0.3664,0.5612,0.5837,0.2092,
41.084843,-0.3479,-0.7947,-0.3664,0.7260,-0.3833,0.3768,
41.087639,-0.3479,-0.7947,-0.3664,0.7260,-0.3833,0.3768,
41.088461,-0.0962,0.1323,0.0506,0.7260,-0.3833,0.3768,
41.150225,-0.0962,0.1323,0.0506,0.3025,-0.4783,0.2477,
41.155013,-0.0962,0.1323,0.0506,0.3025,-0.4783,0.2477,
41.155824,1.1171,0.4755,1.4732,0.3025,-0.4783,0.2477,
41.217503,1.1171,0.4755,1.4732,-0.0600,-0.4391,0.0559,
41.219657,1.1171,0.4755,1.4732,-0.0600,-0.4391,0.0559,
41.219958,1.8403,-0.2337,1.7951,-0.0600,-0.4391,0.0559,
41.280782,1.8403,-0.2337,1.7951,0.1590,-0.2723,-0.1129,
41.285763,1.8403,-0.2337,1.7951,0.1590,-0.2723,-0.1129,
41.286463,3.4498,-0.4695,1.9916,0.1590,-0.2723,-0.1129,
41.347285,3.4498,-0.4695,1.9916,0.0220,0.3166,-0.3048,
41.349500,3.4498,-0.4695,1.9916,0.0220,0.3166,-0.3048,
41.349895,5.0494,2.6299,2.2931,0.0220,0.3166,-0.3048,
41.412142,5.0494,2.6299,2.2931,-0.8011,0.1129,-0.4630,
41.415777,5.0494,2.6299,2.2931,-0.8011,0.1129,-0.4630,
41.416114,1.3444,3.6805,-0.9215,-0.8011,0.1129,-0.4630,
41.477683,1.3444,3.6805,-0.9215,-1.0159,1.1064,0.3902,
41.481723,1.3444,3.6805,-0.9215,-1.0159,1.1064,0.3902,
41.482358,-0.8438,-0.9075,-2.9892,-1.0159,1.1064,0.3902,
41.543635,-0.8438,-0.9075,-2.9892,-1.4482,0.2248,-0.0127,
41.546972,-0.8438,-0.9075,-2.9892,-1.4482,0.2248,-0.0127,
41.547306,-3.8284,-1.4975,0.2773,-1.4482,0.2248,-0.0127,
41.609711,-3.8284,-1.4975,0.2773,-0.7952,0.7920,-0.1106,
41.612134,-3.8284,-1.4975,0.2773,-0.7952,0.7920,-0.1106,
41.612697,-0.0273,-1.4480,0.0497,-0.7952,0.7920,-0.1106,
41.674363,-0.0273,-1.4480,0.0497,-0.3601,0.6304,-0.0044,
41.676739,-0.0273,-1.4480,0.0497,-0.3601,0.6304,-0.0044,
41.677250,-0.2046,-1.9674,0.1281,-0.3601,0.6304,-0.0044,
41.739493,-0.2046,-1.9674,0.1281,0.1064,0.7996,-0.0113,
41.742999,-0.2046,-1.9674,0.1281,0.1064,0.7996,-0.0113,
41.743442,0.2671,-0.9549,1.2092,0.1064,0.7996,-0.0113,
41.804861,0.2671,-0.9549,1.2092,0.1132,0.4618,0.0878,
41.808726,0.2671,-0.9549,1.2092,0.1132,0.4618,0.0878,
41.809822,0.3952,-0.7501,4.6338,0.1132,0.4618,0.0878,
41.871252,0.3952,-0.7501,4.6338,0.1257,0.7459,0.2359,
41.873788,0.3952,-0.7501,4.6338,0.1257,0.7459,0.2359,
41.874107,2.7635,-2.2380,2.4208,0.1257,0.7459,0.2359,
41.936137,2.7635,-2.2380,2.4208,0.5770,-0.0421,-0.9194,
41.938911,2.7635,-2.2380,2.4208,0.5770,-0.0421,-0.9194,
41.939916,-5.7097,13.6138,-2.7010,0.5770,-0.0421,-0.9194,
42.000628,-5.7097,13.6138,-2.7010,-0.2364,1.2077,0.6942,
42.005696,-5.7097,13.6138,-2.7010,-0.2364,1.2077,0.6942,
42.006387,0.5859,-8.0565,-3.5263,-0.2364,1.2077,0.6942,
42.066308,0.5859,-8.0565,-3.5263,0.4771,0.1994,0.5721,
42.070212,0.5859,-8.0565,-3.5263,0.4771,0.1994,0.5721,
42.070590,0.2628,1.6809,-2.8913,0.4771,0.1994,0.5721,
42.131326,0.2628,1.6809,-2.8913,0.3957,0.6408,-0.0257,
42.135232,0.2628,1.6809,-2.8913,0.3957,0.6408,-0.0257,
42.135643,-0.0448,-2.1659,-2.2840,0.3957,0.6408,-0.0257,
42.195576,-0.0448,-2.1659,-2.2840,0.7854,-0.1750,0.1541,
42.201910,-0.0448,-2.1659,-2.2840,0.7854,-0.1750,0.1541,
42.202332,-1.8851,0.7412,-0.3713,0.7854,-0.1750,0.1541,
42.262954,-1.8851,0.7412,-0.3713,0.1465,-1.1640,0.5292,
42.266615,-1.8851,0.7412,-0.3713,0.1465,-1.1640,0.5292,
42.267451,0.1959,0.5330,0.9010,0.1465,-1.1640,0.5292,
42.329617,0.1959,0.5330,0.9010,-0.2897,-1.2478,0.5231,
42.332372,0.1959,0.5330,0.9010,-0.2897,-1.2478,0.5231,
42.333272,0.2606,-1.3017,1.2715,-0.2897,-1.2478,0.5231,
42.393560,0.2606,-1.3017,1.2715,-0.1110,-0.9125,0.3772,
42.396593,0.2606,-1.3017,1.2715,-0.1110,-0.9125,0.3772,
42.396893,2.9024,-1.2444,2.1753,-0.1110,-0.9125,0.3772,
42.458855,2.9024,-1.2444,2.1753,0.1106,0.0144,0.2805,
42.462727,2.9024,-1.2444,2.1753,0.1106,0.0144,0.2805,
42.463070,2.0998,1.8696,2.0554,0.1106,0.0144,0.2805,
42.524036,2.0998,1.8696,2.0554,-0.5707,0.4482,-0.3661,
42.528835,2.0998,1.8696,2.0554,-0.5707,0.4482,-0.3661,
42.529235,-0.4955,1.6583,-0.5471,-0.5707,0.4482,-0.3661,
42.589945,-0.4955,1.6583,-0.5471,-2.3418,-0.4832,0.0562,
42.595447,-0.4955,1.6583,-0.5471,-2.3418,-0.4832,0.0562,
42.596456,-2.5711,2.6860,-6.2635,-2.3418,-0.4832,0.0562,
42.656503,-2.5711,2.6860,-6.2635,-1.2367,-0.8300,-0.6510,
42.659717,-2.5711,2.6860,-6.2635,-1.2367,-0.8300,-0.6510,
42.660044,-0.1782,3.1482,-2.3797,-1.2367,-0.8300,-0.6510,
42.720621,-0.1782,3.1482,-2.3797,-0.6993,0.9859,-1.1270,
42.724427,-0.1782,3.1482,-2.3797,-0.6993,0.9859,-1.1270,
42.724749,2.3498,-2.6945,0.9006,-0.6993,0.9859,-1.1270,
42.786165,2.3498,-2.6945,0.9006,0.3155,1.0172,-0.2185,
42.789995,2.3498,-2.6945,0.9006,0.3155,1.0172,-0.2185,
42.790327,-0.8906,-6.0338,2.1583,0.3155,1.0172,-0.2185,
42.850542,-0.8906,-6.0338,2.1583,-0.4751,0.2744,0.3538,
42.855361,-0.8906,-6.0338,2.1583,-0.4751,0.2744,0.3538,
42.855697,-0.7829,-0.0748,3.1796,-0.4751,0.2744,0.3538,
42.916837,-0.7829,-0.0748,3.1796,-0.0400,0.3616,-0.5370,
42.920971,-0.7829,-0.0748,3.1796,-0.0400,0.3616,-0.5370,
42.921977,-4.0946,-2.3602,3.1437,-0.0400,0.3616,-0.5370,
42.983466,-4.0946,-2.3602,3.1437,-0.2291,-1.1365,-0.0426,
42.985838,-4.0946,-2.3602,3.1437,-0.2291,-1.1365,-0.0426,
42.986655,-1.0833,17.1826,-2.5283,-0.2291,-1.1365,-0.0426,
43.048777,-1.0833,17.1826,-2.5283,0.7602,-0.6608,0.3859,
43.052275,-1.0833,17.1826,-2.5283,0.7602,-0.6608,0.3859,
43.053117,1.8042,-3.3289,-1.8756,0.7602,-0.6608,0.3859,
43.114663,1.8042,-3.3289,-1.8756,1.3187,0.7210,0.2230,
43.118920,1.8042,-3.3289,-1.8756,1.3187,0.7210,0.2230,
43.119773,2.4046,-0.3641,-2.2308,1.3187,0.7210,0.2230,
43.179320,2.4046,-0.3641,-2.2308,0.8887,-0.3636,0.2486,
43.183149,2.4046,-0.3641,-2.2308,0.8887,-0.3636,0.2486,
43.183972,-1.3703,-1.2934,-1.2094,0.8887,-0.3636,0.2486,
43.245823,-1.3703,-1.2934,-1.2094,0.9568,-0.7366,0.1038,
43.248279,-1.3703,-1.2934,-1.2094,0.9568,-0.7366,0.1038,
43.249096,1.1298,0.9190,-0.8768,0.9568,-0.7366,0.1038,
43.310464,1.1298,0.9190,-0.8768,0.3517,-0.6284,-0.0241,
43.313498,1.1298,0.9190,-0.8768,0.3517,-0.6284,-0.0241,
43.314149,-0.0606,-0.2690,0.0454,0.3517,-0.6284,-0.0241,
43.376777,-0.0606,-0.2690,0.0454,0.4232,-1.1067,-0.0890,
43.380007,-0.0606,-0.2690,0.0454,0.4232,-1.1067,-0.0890,
43.380355,1.2245,-0.6078,0.4136,0.4232,-1.1067,-0.0890,
43.442037,1.2245,-0.6078,0.4136,0.3978,-1.1585,0.0208,
43.445135,1.2245,-0.6078,0.4136,0.3978,-1.1585,0.0208,
43.445560,0.9340,0.8314,1.7591,0.3978,-1.1585,0.0208,
43.507061,0.9340,0.8314,1.7591,-0.5603,-1.2399,0.0276,
43.511208,0.9340,0.8314,1.7591,-0.5603,-1.2399,0.0276,
43.511578,0.3776,0.1937,0.8846,-0.5603,-1.2399,0.0276,
43.575388,0.3776,0.1937,0.8846,-1.0122,-1.0201,0.4916,
43.578763,0.3776,0.1937,0.8846,-1.0122,-1.0201,0.4916,
43.579639,1.2068,4.2399,-1.1174,-1.0122,-1.0201,0.4916,
43.637960,1.2068,4.2399,-1.1174,-1.3224,-0.7454,-0.1390,
43.642777,1.2068,4.2399,-1.1174,-1.3224,-0.7454,-0.1390,
43.643730,-0.6219,-3.2402,-1.3527,-1.3224,-0.7454,-0.1390,
43.703100,-0.6219,-3.2402,-1.3527,-0.9745,-0.0024,-0.1975,
43.708178,-0.6219,-3.2402,-1.3527,-0.9745,-0.0024,-0.1975,
43.708751,0.5112,0.6478,1.7845,-0.9745,-0.0024,-0.1975,
43.768606,0.5112,0.6478,1.7845,-0.5238,-0.3048,0.1982,
43.772146,0.5112,0.6478,1.7845,-0.5238,-0.3048,0.1982,
43.772492,0.3356,-2.2317,0.7478,-0.5238,-0.3048,0.1982,
43.833993,0.3356,-2.2317,0.7478,0.0990,0.7630,-0.0593,
43.837491,0.3356,-2.2317,0.7478,0.0990,0.7630,-0.0593,
43.837835,1.6160,-3.1027,1.2646,0.0990,0.7630,-0.0593,
43.900365,1.6160,-3.1027,1.2646,0.7396,0.7445,-0.1735,
43.903472,1.6160,-3.1027,1.2646,0.7396,0.7445,-0.1735,
43.904317,1.6096,-1.9823,3.4659,0.7396,0.7445,-0.1735,
43.964537,1.6096,-1.9823,3.4659,0.4844,1.1034,-0.2593,
43.969009,1.6096,-1.9823,3.4659,0.4844,1.1034,-0.2593,
43.969446,0.4599,-1.2112,-1.0858,0.4844,1.1034,-0.2593,
44.029932,0.4599,-1.2112,-1.0858,0.4879,-0.2492,-1.2225,
44.035129,0.4599,-1.2112,-1.0858,0.4879,-0.2492,-1.2225,
44.035456,-4.2943,7.8144,-1.8261,0.4879,-0.2492,-1.2225,
44.096789,-4.2943,7.8144,-1.8261,1.1006,1.6078,0.8389,
44.099266,-4.2943,7.8144,-1.8261,1.1006,1.6078,0.8389,
44.100327,1.1696,-6.8689,-3.8875,1.1006,1.6078,0.8389,
44.162436,1.1696,-6.8689,-3.8875,0.5399,0.6810,0.9737,
44.165024,1.1696,-6.8689,-3.8875,0.5399,0.6810,0.9737,
44.165997,1.2212,2.4801,0.7997,0.5399,0.6810,0.9737,
44.227444,1.2212,2.4801,0.7997,0.5296,0.3702,0.1341,
44.230154,1.2212,2.4801,0.7997,0.5296,0.3702,0.1341,
44.230969,0.1963,-3.1444,-2.1802,0.5296,0.3702,0.1341,
44.293765,0.1963,-3.1444,-2.1802,1.1148,0.5405,-0.0179,
44.296151,0.1963,-3.1444,-2.1802,1.1148,0.5405,-0.0179,
44.296948,-1.0752,0.0717,-0.3430,1.1148,0.5405,-0.0179,
44.356714,-1.0752,0.0717,-0.3430,0.2526,-0.6804,-0.0495,
44.360995,-1.0752,0.0717,-0.3430,0.2526,-0.6804,-0.0495,
44.362137,-0.8487,1.2672,1.5337,0.2526,-0.6804,-0.0495,
44.423185,-0.8487,1.2672,1.5337,-0.0211,-1.2335,0.1949,
44.426883,-0.8487,1.2672,1.5337,-0.0211,-1.2335,0.1949,
44.427775,2.0927,-0.6393,1.4071,-0.0211,-1.2335,0.1949,
44.487278,2.0927,-0.6393,1.4071,-0.1277,-0.3412,0.1037,
44.492040,2.0927,-0.6393,1.4071,-0.1277,-0.3412,0.1037,
44.492766,1.3815,-0.0276,1.8550,-0.1277,-0.3412,0.1037,
44.552751,1.3815,-0.0276,1.8550,-0.4991,-0.6159,-0.2899,
44.556709,1.3815,-0.0276,1.8550,-0.4991,-0.6159,-0.2899,
44.557431,0.7702,0.8952,1.0139,-0.4991,-0.6159,-0.2899,
44.618220,0.7702,0.8952,1.0139,-0.2960,0.0512,0.7433,
44.622014,0.7702,0.8952,1.0139,-0.2960,0.0512,0.7433,
44.622746,2.5914,5.7644,-2.9150,-0.2960,0.0512,0.7433,
44.684200,2.5914,5.7644,-2.9150,-1.6545,0.2114,-0.6022,
44.688932,2.5914,5.7644,-2.9150,-1.6545,0.2114,-0.6022,
44.689281,-2.4529,-2.9890,0.4753,-1.6545,0.2114,-0.6022,
44.749794,-2.4529,-2.9890,0.4753,-0.9381,1.6446,-0.4424,
44.755395,-2.4529,-2.9890,0.4753,-0.9381,1.6446,-0.4424,
44.756281,3.3299,-0.2658,0.3728,-0.9381,1.6446,-0.4424,
44.817000,3.3299,-0.2658,0.3728,-0.4800,0.9128,-0.0567,
44.820789,3.3299,-0.2658,0.3728,-0.4800,0.9128,-0.0567,
44.821145,-1.1125,-1.8902,0.4347,-0.4800,0.9128,-0.0567,
44.882858,-1.1125,-1.8902,0.4347,-0.0860,1.1606,0.1926,
44.885666,-1.1125,-1.8902,0.4347,-0.0860,1.1606,0.1926,
44.886328,1.3362,-3.0751,0.0011,-0.0860,1.1606,0.1926,
44.949036,1.3362,-3.0751,0.0011,0.2450,1.1312,0.3033,
44.952067,1.3362,-3.0751,0.0011,0.2450,1.1312,0.3033,
44.953063,-0.4131,-1.1434,1.1853,0.2450,1.1312,0.3033,
45.012218,-0.4131,-1.1434,1.1853,0.3190,0.8572,0.0970,
45.017610,-0.4131,-1.1434,1.1853,0.3190,0.8572,0.0970,
45.018049,-0.6055,-0.6103,2.0496,0.3190,0.8572,0.0970,
45.078201,-0.6055,-0.6103,2.0496,-1.4080,1.1388,0.1629,
45.081536,-0.6055,-0.6103,2.0496,-1.4080,1.1388,0.1629,
45.081845,0.4487,14.0052,0.4953,-1.4080,1.1388,0.1629,
45.143288,0.4487,14.0052,0.4953,1.4070,0.0009,-1.2617,
45.148288,0.4487,14.0052,0.4953,1.4070,0.0009,-1.2617,
45.148598,-2.2472,-5.1661,-1.9039,1.4070,0.0009,-1.2617,
45.208485,-2.2472,-5.1661,-1.9039,0.8763,1.5014,1.1660,
45.212392,-2.2472,-5.1661,-1.9039,0.8763,1.5014,1.1660,
45.213436,4.2113,-1.4722,0.8637,0.8763,1.5014,1.1660,
45.273963,4.2113,-1.4722,0.8637,-0.1190,0.2863,0.3717,
45.279040,4.2113,-1.4722,0.8637,-0.1190,0.2863,0.3717,
45.280196,3.3232,0.3897,-2.2167,-0.1190,0.2863,0.3717,
45.339997,3.3232,0.3897,-2.2167,0.5997,1.6921,0.3285,
45.344080,3.3232,0.3897,-2.2167,0.5997,1.6921,0.3285,
45.344910,0.5384,-3.2733,-1.8577,0.5997,1.6921,0.3285,
45.405895,0.5384,-3.2733,-1.8577,0.6871,0.8154,0.0333,
45.408943,0.5384,-3.2733,-1.8577,0.6871,0.8154,0.0333,
45.409743,-2.0892,1.6713,0.2338,0.6871,0.8154,0.0333,
45.471970,-2.0892,1.6713,0.2338,0.2089,0.0454,-0.1269,
45.475018,-2.0892,1.6713,0.2338,0.2089,0.0454,-0.1269,
45.475746,0.9591,-1.3469,-0.3238,0.2089,0.0454,-0.1269,
45.537357,0.9591,-1.3469,-0.3238,0.0153,-0.7219,-0.0994,
45.540438,0.9591,-1.3469,-0.3238,0.0153,-0.7219,-0.0994,
45.541555,0.1792,0.0579,1.7749,0.0153,-0.7219,-0.0994,
45.601513,0.1792,0.0579,1.7749,-0.3819,-1.0238,0.0964,
45.606161,0.1792,0.0579,1.7749,-0.3819,-1.0238,0.0964,
45.607471,3.8076,0.3838,1.5340,-0.3819,-1.0238,0.0964,
45.665648,3.8076,0.3838,1.5340,-0.5227,0.2805,-0.0394,
45.670256,3.8076,0.3838,1.5340,-0.5227,0.2805,-0.0394,
45.671205,4.3928,3.0839,-2.3561,-0.5227,0.2805,-0.0394,
45.731781,4.3928,3.0839,-2.3561,-0.6782,0.5301,0.1736,
45.736203,4.3928,3.0839,-2.3561,-0.6782,0.5301,0.1736,
45.737291,-1.4046,1.3466,-1.4588,-0.6782,0.5301,0.1736,
45.797483,-1.4046,1.3466,-1.4588,-1.1246,0.3228,-0.2544,
45.801807,-1.4046,1.3466,-1.4588,-1.1246,0.3228,-0.2544,
45.803104,-0.7841,-1.2888,-0.6794,-1.1246,0.3228,-0.2544,
45.862826,-0.7841,-1.2888,-0.6794,-0.6924,1.8815,-0.4337,
45.867739,-0.7841,-1.2888,-0.6794,-0.6924,1.8815,-0.4337,
45.868845,1.2356,-1.0446,-0.3508,-0.6924,1.8815,-0.4337,
45.928727,1.2356,-1.0446,-0.3508,-0.4181,1.3343,0.0596,
45.932748,1.2356,-1.0446,-0.3508,-0.4181,1.3343,0.0596,
45.934206,-1.0715,-1.3846,0.4994,-0.4181,1.3343,0.0596,
45.995727,-1.0715,-1.3846,0.4994,-0.2712,1.1481,0.0684,
45.999182,-1.0715,-1.3846,0.4994,-0.2712,1.1481,0.0684,
46.000221,-0.0708,-1.2326,0.6358,-0.2712,1.1481,0.0684,
46.060762,-0.0708,-1.2326,0.6358,-0.0034,0.9200,0.1216,
46.066422,-0.0708,-1.2326,0.6358,-0.0034,0.9200,0.1216,
46.067663,0.5010,-1.8905,0.7953,-0.0034,0.9200,0.1216,
46.126118,0.5010,-1.8905,0.7953,0.4959,0.9462,0.0693,
46.130496,0.5010,-1.8905,0.7953,0.4959,0.9462,0.0693,
46.131249,-0.5197,-2.1222,1.6591,0.4959,0.9462,0.0693,
46.192318,-0.5197,-2.1222,1.6591,0.0597,0.8679,0.1649,
46.197673,-0.5197,-2.1222,1.6591,0.0597,0.8679,0.1649,
46.198818,0.2849,1.0412,0.9849,0.0597,0.8679,0.1649,
46.255371,0.2849,1.0412,0.9849,0.6335,-0.5238,-1.9077,
46.260372,0.2849,1.0412,0.9849,0.6335,-0.5238,-1.9077,
46.262007,-1.9061,7.2739,-1.9917,0.6335,-0.5238,-1.9077,
46.322484,-1.9061,7.2739,-1.9917,1.5638,1.9329,0.5559,
46.325770,-1.9061,7.2739,-1.9917,1.5638,1.9329,0.5559,
46.327204,1.3899,-7.5382,-2.8022,1.5638,1.9329,0.5559,
46.387520,1.3899,-7.5382,-2.8022,-0.0147,-0.1133,0.2301,
46.393562,1.3899,-7.5382,-2.8022,-0.0147,-0.1133,0.2301,
46.395032,-0.3616,6.5380,3.6154,-0.0147,-0.1133,0.2301,
46.452624,-0.3616,6.5380,3.6154,0.3884,1.6058,0.1533,
46.456152,-0.3616,6.5380,3.6154,0.3884,1.6058,0.1533,
46.457160,4.2683,-3.0537,-2.7440,0.3884,1.6058,0.1533,
46.518659,4.2683,-3.0537,-2.7440,0.7046,0.9584,0.2465,
46.522159,4.2683,-3.0537,-2.7440,0.7046,0.9584,0.2465,
46.523334,-1.2513,-0.2107,-0.7704,0.7046,0.9584,0.2465,
46.584483,-1.2513,-0.2107,-0.7704,0.5623,0.5956,0.1532,
46.589044,-1.2513,-0.2107,-0.7704,0.5623,0.5956,0.1532,
46.590521,-0.4508,0.0623,0.2660,0.5623,0.5956,0.1532,
46.660541,-0.4508,0.0623,0.2660,0.3622,0.4762,-0.0554,
46.668000,-0.4508,0.0623,0.2660,0.3622,0.4762,-0.0554,
46.672541,2.6566,0.1910,1.4714,0.3622,0.4762,-0.0554,
46.713515,2.6566,0.1910,1.4714,-0.5933,0.4181,-0.2692,
46.720410,2.6566,0.1910,1.4714,-0.5933,0.4181,-0.2692,
46.721555,1.4918,1.5201,1.7309,-0.5933,0.4181,-0.2692,
46.779367,1.4918,1.5201,1.7309,-0.6167,1.3208,0.9858,
46.783628,1.4918,1.5201,1.7309,-0.6167,1.3208,0.9858,
46.784279,4.2667,3.1108,-0.9417,-0.6167,1.3208,0.9858,
46.844624,4.2667,3.1108,-0.9417,-1.3352,-0.7407,-0.0640,
46.848905,4.2667,3.1108,-0.9417,-1.3352,-0.7407,-0.0640,
46.850217,-4.5077,0.2205,-3.1180,-1.3352,-0.7407,-0.0640,
46.910176,-4.5077,0.2205,-3.1180,-1.0898,1.7155,-0.4107,
46.914401,-4.5077,0.2205,-3.1180,-1.0898,1.7155,-0.4107,
46.915471,0.0233,-0.5924,0.6358,-1.0898,1.7155,-0.4107,
46.976543,0.0233,-0.5924,0.6358,-0.8995,1.4737,-0.2940,
46.979896,0.0233,-0.5924,0.6358,-0.8995,1.4737,-0.2940,
46.980888,-0.3635,-0.3790,-0.2389,-0.8995,1.4737,-0.2940,
47.041581,-0.3635,-0.3790,-0.2389,-0.4517,0.6645,0.1032,
47.045142,-0.3635,-0.3790,-0.2389,-0.4517,0.6645,0.1032,
47.046244,-0.6722,-2.0211,0.8026,-0.4517,0.6645,0.1032,
47.106407,-0.6722,-2.0211,0.8026,0.0958,1.0518,-0.0655,
47.110618,-0.6722,-2.0211,0.8026,0.0958,1.0518,-0.0655,
47.111260,0.2302,-2.1006,1.0451,0.0958,1.0518,-0.0655,
47.172938,0.2302,-2.1006,1.0451,0.1400,0.8389,-0.2156,
47.176033,0.2302,-2.1006,1.0451,0.1400,0.8389,-0.2156,
