
time,ax,ay,az,wx,wy,wz,
0.023782,0.0000,0.0000,0.0000,0.0000,0.0000,0.0000,
0.030665,0.0000,0.0000,0.0000,-0.0959,-0.2839,-0.0845,
0.077103,0.0000,0.0000,0.0000,-0.0959,-0.2839,-0.0845,
0.096588,0.0000,0.0000,0.0000,-0.0915,0.0069,-0.1008,
0.142032,0.0000,0.0000,0.0000,-0.0915,0.0069,-0.1008,
0.161779,0.0000,0.0000,0.0000,-0.0567,-0.0628,-0.0250,
0.208098,0.0000,0.0000,0.0000,-0.0567,-0.0628,-0.0250,
0.227900,0.0000,0.0000,0.0000,-0.0464,-0.2350,0.0067,
0.273214,0.0000,0.0000,0.0000,-0.0464,-0.2350,0.0067,
0.293191,0.0000,0.0000,0.0000,-0.2350,-0.2906,0.0281,
0.339300,0.0000,0.0000,0.0000,-0.2350,-0.2906,0.0281,
0.358665,0.0000,0.0000,0.0000,-0.3696,-0.2561,0.0263,
0.405197,0.0000,0.0000,0.0000,-0.3696,-0.2561,0.0263,
0.424533,0.0000,0.0000,0.0000,-0.2385,-0.2975,-0.0221,
0.469513,0.0000,0.0000,0.0000,-0.2385,-0.2975,-0.0221,
0.487395,0.1233,-0.5958,1.6520,-0.2385,-0.2975,-0.0221,
0.491321,0.1233,-0.5958,1.6520,-0.7957,-0.0768,-0.3622,
0.535289,0.1233,-0.5958,1.6520,-0.7957,-0.0768,-0.3622,
0.552311,0.4152,-0.1506,1.8567,-0.7957,-0.0768,-0.3622,
0.556514,0.4152,-0.1506,1.8567,-0.5641,-0.6626,-0.3632,
0.601022,0.4152,-0.1506,1.8567,-0.5641,-0.6626,-0.3632,
0.617694,-0.0630,-0.5415,0.5538,-0.5641,-0.6626,-0.3632,
0.620850,-0.0630,-0.5415,0.5538,-0.2640,-1.0040,-0.5505,
0.666838,-0.0630,-0.5415,0.5538,-0.2640,-1.0040,-0.5505,
0.683376,0.6955,-0.5592,0.6492,-0.2640,-1.0040,-0.5505,
0.686071,0.6955,-0.5592,0.6492,0.1376,-0.3454,-0.3089,
0.731684,0.6955,-0.5592,0.6492,0.1376,-0.3454,-0.3089,
0.749010,0.4732,-1.1165,0.6162,0.1376,-0.3454,-0.3089,
0.751613,0.4732,-1.1165,0.6162,0.0582,-0.6507,-0.1984,
0.798099,0.4732,-1.1165,0.6162,0.0582,-0.6507,-0.1984,
0.814947,0.5469,-0.4986,1.5230,0.0582,-0.6507,-0.1984,
0.817712,0.5469,-0.4986,1.5230,0.5217,-0.6286,-0.1544,
0.883546,0.5469,-0.4986,1.5230,1.4827,-0.7398,0.2020,
0.912175,0.5469,-0.4986,1.5230,1.4827,-0.7398,0.2020,
0.913652,0.5404,-0.1256,0.8966,1.4827,-0.7398,0.2020,
0.928303,0.5404,-0.1256,0.8966,1.4827,-0.7398,0.2020,
0.949136,0.5404,-0.1256,0.8966,2.1626,0.3616,0.0159,
0.993428,0.5404,-0.1256,0.8966,2.1626,0.3616,0.0159,
0.994676,0.0032,-1.1318,2.8732,2.1626,0.3616,0.0159,
1.014192,0.0032,-1.1318,2.8732,1.2692,1.8266,0.6099,
1.059390,0.0032,-1.1318,2.8732,1.2692,1.8266,0.6099,
1.060915,-0.6485,1.0628,2.2159,1.2692,1.8266,0.6099,
1.079993,-0.6485,1.0628,2.2159,0.5053,-2.7611,-0.4774,
1.124948,-0.6485,1.0628,2.2159,0.5053,-2.7611,-0.4774,
1.125840,0.2115,-0.5640,0.3237,0.5053,-2.7611,-0.4774,
1.145294,0.2115,-0.5640,0.3237,-0.2514,-1.7833,-0.5102,
1.190166,0.2115,-0.5640,0.3237,-0.2514,-1.7833,-0.5102,
1.191529,1.9842,-0.0733,-0.1635,-0.2514,-1.7833,-0.5102,
1.209730,1.9842,-0.0733,-0.1635,0.2364,-1.1183,-0.5664,
1.256733,1.9842,-0.0733,-0.1635,0.2364,-1.1183,-0.5664,
1.257781,1.6040,0.0277,-0.3698,0.2364,-1.1183,-0.5664,
1.276787,1.6040,0.0277,-0.3698,0.6124,-1.4080,0.0571,
1.321838,1.6040,0.0277,-0.3698,0.6124,-1.4080,0.0571,
1.322705,1.7531,-0.9859,1.3754,0.6124,-1.4080,0.0571,
1.341403,1.7531,-0.9859,1.3754,1.3683,-2.1058,-0.1700,
1.386498,1.7531,-0.9859,1.3754,1.3683,-2.1058,-0.1700,
1.387681,1.2673,-0.4695,1.3885,1.3683,-2.1058,-0.1700,
1.407172,1.2673,-0.4695,1.3885,0.5962,-1.5240,-0.0049,
1.451810,1.2673,-0.4695,1.3885,0.5962,-1.5240,-0.0049,
1.452785,1.6704,-0.2768,1.2629,0.5962,-1.5240,-0.0049,
1.472811,1.6704,-0.2768,1.2629,0.3761,-1.3497,0.1623,
1.517427,1.6704,-0.2768,1.2629,0.3761,-1.3497,0.1623,
1.518510,1.8640,-0.5772,1.3494,0.3761,-1.3497,0.1623,
1.537857,1.8640,-0.5772,1.3494,0.9198,-0.8242,1.3129,
1.583423,1.8640,-0.5772,1.3494,0.9198,-0.8242,1.3129,
1.584140,3.9003,1.6914,0.8582,0.9198,-0.8242,1.3129,
1.603162,3.9003,1.6914,0.8582,-0.1527,-1.0122,2.0452,
1.649177,3.9003,1.6914,0.8582,-0.1527,-1.0122,2.0452,
1.649976,3.6740,2.4336,-0.3631,-0.1527,-1.0122,2.0452,
1.668449,3.6740,2.4336,-0.3631,-2.0841,0.0328,1.0934,
1.714114,3.6740,2.4336,-0.3631,-2.0841,0.0328,1.0934,
1.715150,0.1024,0.7293,-1.0210,-2.0841,0.0328,1.0934,
1.733923,0.1024,0.7293,-1.0210,-1.4691,1.1225,0.2802,
1.780066,0.1024,0.7293,-1.0210,-1.4691,1.1225,0.2802,
1.781513,-1.9653,1.8741,-1.2290,-1.4691,1.1225,0.2802,
1.799667,-1.9653,1.8741,-1.2290,-1.6023,1.5566,-0.3862,
1.845502,-1.9653,1.8741,-1.2290,-1.6023,1.5566,-0.3862,
1.847059,-2.0969,-0.4961,-0.4123,-1.6023,1.5566,-0.3862,
1.864555,-2.0969,-0.4961,-0.4123,-1.3401,-0.4059,0.1648,
1.910666,-2.0969,-0.4961,-0.4123,-1.3401,-0.4059,0.1648,
1.912012,-2.0472,-1.9092,-1.5083,-1.3401,-0.4059,0.1648,
1.931425,-2.0472,-1.9092,-1.5083,0.0893,0.2949,-0.0907,
1.976246,-2.0472,-1.9092,-1.5083,0.0893,0.2949,-0.0907,
1.977683,-1.1564,-3.7042,-1.6070,0.0893,0.2949,-0.0907,
1.996086,-1.1564,-3.7042,-1.6070,0.5043,0.1570,-0.1576,
2.041854,-1.1564,-3.7042,-1.6070,0.5043,0.1570,-0.1576,
2.043312,0.5704,-1.9108,0.4338,0.5043,0.1570,-0.1576,
2.061950,0.5704,-1.9108,0.4338,1.1237,1.0498,0.5148,
2.107403,0.5704,-1.9108,0.4338,1.1237,1.0498,0.5148,
2.108603,5.5773,3.9417,7.3261,1.1237,1.0498,0.5148,
2.127145,5.5773,3.9417,7.3261,-0.9916,0.7743,0.5831,
2.172253,5.5773,3.9417,7.3261,-0.9916,0.7743,0.5831,
2.173153,-0.3942,-1.1042,2.5345,-0.9916,0.7743,0.5831,
2.192589,-0.3942,-1.1042,2.5345,1.2712,-0.4649,-0.8160,
2.238194,-0.3942,-1.1042,2.5345,1.2712,-0.4649,-0.8160,
2.239595,-2.2698,1.6877,-2.1072,1.2712,-0.4649,-0.8160,
2.258486,-2.2698,1.6877,-2.1072,0.4148,-1.0029,-0.4236,
2.303226,-2.2698,1.6877,-2.1072,0.4148,-1.0029,-0.4236,
2.304474,-0.8452,-0.7865,-3.4198,0.4148,-1.0029,-0.4236,
2.323405,-0.8452,-0.7865,-3.4198,0.9183,-0.6031,-0.3690,
2.368903,-0.8452,-0.7865,-3.4198,0.9183,-0.6031,-0.3690,
2.370167,0.3350,-0.0975,-2.2583,0.9183,-0.6031,-0.3690,
2.388940,0.3350,-0.0975,-2.2583,0.6707,0.3971,-0.1807,
2.434512,0.3350,-0.0975,-2.2583,0.6707,0.3971,-0.1807,
2.435813,0.7757,-0.0567,0.4527,0.6707,0.3971,-0.1807,
2.455025,0.7757,-0.0567,0.4527,0.7703,-0.8464,-0.2053,
2.499880,0.7757,-0.0567,0.4527,0.7703,-0.8464,-0.2053,
2.500764,1.3936,-1.0441,0.5676,0.7703,-0.8464,-0.2053,
2.520781,1.3936,-1.0441,0.5676,1.0470,-0.3227,-0.3658,
2.565645,1.3936,-1.0441,0.5676,1.0470,-0.3227,-0.3658,
2.567690,1.6855,-1.1607,0.7180,1.0470,-0.3227,-0.3658,
2.585395,1.6855,-1.1607,0.7180,0.7529,-0.1356,-0.4847,
2.631287,1.6855,-1.1607,0.7180,0.7529,-0.1356,-0.4847,
2.632420,1.7774,-0.4937,1.9455,0.7529,-0.1356,-0.4847,
2.650469,1.7774,-0.4937,1.9455,0.4497,-0.7071,-0.1741,
2.697139,1.7774,-0.4937,1.9455,0.4497,-0.7071,-0.1741,
2.698304,2.1160,-0.9376,0.7245,0.4497,-0.7071,-0.1741,
2.716059,2.1160,-0.9376,0.7245,0.7607,-0.4800,0.3793,
2.762109,2.1160,-0.9376,0.7245,0.7607,-0.4800,0.3793,
2.763330,3.6951,0.9953,0.6858,0.7607,-0.4800,0.3793,
2.781647,3.6951,0.9953,0.6858,-0.7141,-0.2049,0.8326,
2.827885,3.6951,0.9953,0.6858,-0.7141,-0.2049,0.8326,
2.829340,3.2778,1.9682,0.3383,-0.7141,-0.2049,0.8326,
2.848460,3.2778,1.9682,0.3383,-1.0942,0.8651,0.7561,
2.892613,3.2778,1.9682,0.3383,-1.0942,0.8651,0.7561,
2.893984,0.6937,1.7269,0.1915,-1.0942,0.8651,0.7561,
2.912619,0.6937,1.7269,0.1915,-0.6610,0.8071,0.5687,
2.958463,0.6937,1.7269,0.1915,-0.6610,0.8071,0.5687,
2.960036,-1.9095,2.7483,-2.8672,-0.6610,0.8071,0.5687,
2.978550,-1.9095,2.7483,-2.8672,-1.2573,1.1332,-0.7295,
3.024362,-1.9095,2.7483,-2.8672,-1.2573,1.1332,-0.7295,
3.026038,-3.9891,-0.2734,-2.3817,-1.2573,1.1332,-0.7295,
3.044622,-3.9891,-0.2734,-2.3817,-2.4288,0.2440,-0.0654,
3.090333,-3.9891,-0.2734,-2.3817,-2.4288,0.2440,-0.0654,
3.091344,-0.9618,-1.9652,-1.0747,-2.4288,0.2440,-0.0654,
3.109099,-0.9618,-1.9652,-1.0747,-2.2620,-0.4679,-0.4262,
3.155753,-0.9618,-1.9652,-1.0747,-2.2620,-0.4679,-0.4262,
3.156880,-0.6348,-2.7269,0.4504,-2.2620,-0.4679,-0.4262,
3.175288,-0.6348,-2.7269,0.4504,0.4171,-0.6988,-0.7624,
3.221059,-0.6348,-2.7269,0.4504,0.4171,-0.6988,-0.7624,
3.221872,-1.2149,-2.5570,-1.3503,0.4171,-0.6988,-0.7624,
3.240309,-1.2149,-2.5570,-1.3503,0.8845,-1.5084,0.1674,
3.285754,-1.2149,-2.5570,-1.3503,0.8845,-1.5084,0.1674,
3.286666,1.2235,0.2623,0.1691,0.8845,-1.5084,0.1674,
3.308216,1.2235,0.2623,0.1691,-0.1852,-0.1753,1.1228,
3.351570,1.2235,0.2623,0.1691,-0.1852,-0.1753,1.1228,
3.353150,2.5451,1.0835,5.6719,-0.1852,-0.1753,1.1228,
3.371708,2.5451,1.0835,5.6719,-0.0739,-1.1388,-0.0612,
3.417298,2.5451,1.0835,5.6719,-0.0739,-1.1388,-0.0612,
3.419322,-0.1503,-2.3790,1.2742,-0.0739,-1.1388,-0.0612,
3.436958,-0.1503,-2.3790,1.2742,2.1586,-1.1096,-0.1965,
3.482741,-0.1503,-2.3790,1.2742,2.1586,-1.1096,-0.1965,
3.484544,-0.6186,1.9446,-3.4842,2.1586,-1.1096,-0.1965,
3.503500,-0.6186,1.9446,-3.4842,0.0799,-1.8966,0.1739,
3.550210,-0.6186,1.9446,-3.4842,0.0799,-1.8966,0.1739,
3.552625,-2.2779,0.6866,-1.4590,0.0799,-1.8966,0.1739,
3.567864,-2.2779,0.6866,-1.4590,0.3231,-0.1017,-0.9733,
3.615616,-2.2779,0.6866,-1.4590,0.3231,-0.1017,-0.9733,
3.618309,-2.2304,0.0533,-0.9582,0.3231,-0.1017,-0.9733,
3.634551,-2.2304,0.0533,-0.9582,1.2124,-0.8447,-0.1970,
3.678665,-2.2304,0.0533,-0.9582,1.2124,-0.8447,-0.1970,
3.680419,-0.0871,-0.4012,-1.2755,1.2124,-0.8447,-0.1970,
3.699957,-0.0871,-0.4012,-1.2755,0.5702,-1.5194,-0.0096,
3.745156,-0.0871,-0.4012,-1.2755,0.5702,-1.5194,-0.0096,
3.747739,1.2164,-0.2312,-0.3159,0.5702,-1.5194,-0.0096,
3.764069,1.2164,-0.2312,-0.3159,0.3571,-2.6515,0.2337,
3.812233,1.2164,-0.2312,-0.3159,0.3571,-2.6515,0.2337,
3.813800,1.7469,-1.0566,-0.5782,0.3571,-2.6515,0.2337,
3.830369,1.7469,-1.0566,-0.5782,0.0105,-1.9913,0.0040,
3.875704,1.7469,-1.0566,-0.5782,0.0105,-1.9913,0.0040,
3.876873,2.4237,-1.2514,0.6967,0.0105,-1.9913,0.0040,
3.894776,2.4237,-1.2514,0.6967,0.2375,-1.3392,-0.4070,
3.940728,2.4237,-1.2514,0.6967,0.2375,-1.3392,-0.4070,
3.941873,1.5409,0.1535,1.0618,0.2375,-1.3392,-0.4070,
3.961276,1.5409,0.1535,1.0618,0.4090,-0.5620,-0.6035,
4.006206,1.5409,0.1535,1.0618,0.4090,-0.5620,-0.6035,
4.007463,2.9150,1.3118,0.7483,0.4090,-0.5620,-0.6035,
4.026408,2.9150,1.3118,0.7483,-0.0420,-0.3644,0.1710,
4.072253,2.9150,1.3118,0.7483,-0.0420,-0.3644,0.1710,
4.073829,3.5661,1.2369,1.4578,-0.0420,-0.3644,0.1710,
4.091999,3.5661,1.2369,1.4578,-0.7271,-1.7205,0.7227,
4.137551,3.5661,1.2369,1.4578,-0.7271,-1.7205,0.7227,
4.138521,1.9059,1.4007,1.1434,-0.7271,-1.7205,0.7227,
4.159536,1.9059,1.4007,1.1434,-1.8746,-0.2831,0.5414,
4.203624,1.9059,1.4007,1.1434,-1.8746,-0.2831,0.5414,
4.205045,-0.9968,2.4523,-0.1741,-1.8746,-0.2831,0.5414,
4.222622,-0.9968,2.4523,-0.1741,-1.1781,0.8815,0.7705,
4.268675,-0.9968,2.4523,-0.1741,-1.1781,0.8815,0.7705,
4.270208,-2.5995,2.0600,-2.6163,-1.1781,0.8815,0.7705,
4.288254,-2.5995,2.0600,-2.6163,-1.5404,0.3459,-0.2465,
4.333739,-2.5995,2.0600,-2.6163,-1.5404,0.3459,-0.2465,
4.335367,-3.4693,-1.1779,-2.2144,-1.5404,0.3459,-0.2465,
4.353978,-3.4693,-1.1779,-2.2144,-2.0209,-1.0446,0.4226,
4.399527,-3.4693,-1.1779,-2.2144,-2.0209,-1.0446,0.4226,
4.401109,-1.8551,-2.2045,-1.7263,-2.0209,-1.0446,0.4226,
4.419549,-1.8551,-2.2045,-1.7263,-1.4232,-0.2309,-0.0823,
4.465734,-1.8551,-2.2045,-1.7263,-1.4232,-0.2309,-0.0823,
4.467561,-1.3046,-2.5730,-1.0193,-1.4232,-0.2309,-0.0823,
4.485697,-1.3046,-2.5730,-1.0193,0.0229,-0.1323,-0.0234,
4.530762,-1.3046,-2.5730,-1.0193,0.0229,-0.1323,-0.0234,
4.533303,0.0335,-1.4270,-0.5799,0.0229,-0.1323,-0.0234,
4.550318,0.0335,-1.4270,-0.5799,0.6854,-0.2042,0.7014,
4.597093,0.0335,-1.4270,-0.5799,0.6854,-0.2042,0.7014,
4.599145,2.7031,0.6137,2.0772,0.6854,-0.2042,0.7014,
4.615955,2.7031,0.6137,2.0772,-0.4482,0.4924,0.6298,
4.661095,2.7031,0.6137,2.0772,-0.4482,0.4924,0.6298,
4.663109,1.7709,1.4452,4.3343,-0.4482,0.4924,0.6298,
4.681901,1.7709,1.4452,4.3343,-0.1280,-0.1156,0.2434,
4.728501,1.7709,1.4452,4.3343,-0.1280,-0.1156,0.2434,
4.730373,-0.7836,-2.8217,-1.0375,-0.1280,-0.1156,0.2434,
4.748717,-0.7836,-2.8217,-1.0375,1.3021,-0.9859,-0.8479,
4.793209,-0.7836,-2.8217,-1.0375,1.3021,-0.9859,-0.8479,
4.796187,-2.1267,4.3240,-2.0601,1.3021,-0.9859,-0.8479,
4.812276,-2.1267,4.3240,-2.0601,0.2839,-1.6495,-0.2414,
4.858000,-2.1267,4.3240,-2.0601,0.2839,-1.6495,-0.2414,
4.859904,-2.1248,-2.0006,-4.0416,0.2839,-1.6495,-0.2414,
4.877268,-2.1248,-2.0006,-4.0416,0.9024,-0.3238,-0.0336,
4.924247,-2.1248,-2.0006,-4.0416,0.9024,-0.3238,-0.0336,
4.926092,-0.2839,0.3374,-3.1398,0.9024,-0.3238,-0.0336,
4.943352,-0.2839,0.3374,-3.1398,1.2352,0.1914,-0.4772,
4.988790,-0.2839,0.3374,-3.1398,1.2352,0.1914,-0.4772,
4.989558,-0.6022,0.6181,0.3434,1.2352,0.1914,-0.4772,
5.009088,-0.6022,0.6181,0.3434,-0.0747,-2.0795,0.3419,
5.053656,-0.6022,0.6181,0.3434,-0.0747,-2.0795,0.3419,
5.054384,0.8043,-1.0660,0.2687,-0.0747,-2.0795,0.3419,
5.074155,0.8043,-1.0660,0.2687,0.4704,-1.4447,-0.0880,
5.120142,0.8043,-1.0660,0.2687,0.4704,-1.4447,-0.0880,
5.120816,1.1100,-1.3009,-0.5239,0.4704,-1.4447,-0.0880,
5.139309,1.1100,-1.3009,-0.5239,0.4975,-0.1026,-0.3296,
5.185472,1.1100,-1.3009,-0.5239,0.4975,-0.1026,-0.3296,
5.186533,1.1116,-0.7803,-0.0150,0.4975,-0.1026,-0.3296,
5.205520,1.1116,-0.7803,-0.0150,0.3103,-0.2404,-0.2892,
5.250679,1.1116,-0.7803,-0.0150,0.3103,-0.2404,-0.2892,
5.251840,1.6134,0.5588,0.2768,0.3103,-0.2404,-0.2892,
5.269860,1.6134,0.5588,0.2768,0.1434,-0.5548,-0.3105,
5.316408,1.6134,0.5588,0.2768,0.1434,-0.5548,-0.3105,
5.317516,3.0806,0.6606,0.2577,0.1434,-0.5548,-0.3105,
5.336446,3.0806,0.6606,0.2577,0.0179,-0.2042,0.1136,
5.381959,3.0806,0.6606,0.2577,0.0179,-0.2042,0.1136,
5.383263,4.5935,1.2650,0.9456,0.0179,-0.2042,0.1136,
5.401187,4.5935,1.2650,0.9456,-1.3761,-0.0709,0.4131,
5.447694,4.5935,1.2650,0.9456,-1.3761,-0.0709,0.4131,
5.448714,-0.7093,-0.2675,0.2355,-1.3761,-0.0709,0.4131,
5.467558,-0.7093,-0.2675,0.2355,-1.3349,0.7940,0.9291,
5.512654,-0.7093,-0.2675,0.2355,-1.3349,0.7940,0.9291,
5.514382,-0.5398,2.9466,-2.1895,-1.3349,0.7940,0.9291,
5.532655,-0.5398,2.9466,-2.1895,-0.7283,0.9033,0.4866,
5.577845,-0.5398,2.9466,-2.1895,-0.7283,0.9033,0.4866,
5.579790,-2.4336,0.3741,-2.6336,-0.7283,0.9033,0.4866,
5.598453,-2.4336,0.3741,-2.6336,-1.7904,-0.4079,0.4724,
5.643734,-2.4336,0.3741,-2.6336,-1.7904,-0.4079,0.4724,
5.645368,-2.7977,-0.6197,-2.5489,-1.7904,-0.4079,0.4724,
5.663288,-2.7977,-0.6197,-2.5489,-1.2943,0.1686,0.2747,
5.712919,-2.7977,-0.6197,-2.5489,-1.2943,0.1686,0.2747,
5.714514,-2.1615,-1.7538,-2.5297,-1.2943,0.1686,0.2747,
5.728878,-2.1615,-1.7538,-2.5297,-0.1581,1.4452,0.0764,
5.773972,-2.1615,-1.7538,-2.5297,-0.1581,1.4452,0.0764,
5.775455,-0.9312,-1.3647,-1.6187,-0.1581,1.4452,0.0764,
5.794204,-0.9312,-1.3647,-1.6187,-0.2993,0.3154,0.4917,
5.839450,-0.9312,-1.3647,-1.6187,-0.2993,0.3154,0.4917,
5.840725,2.8906,0.5631,3.1647,-0.2993,0.3154,0.4917,
5.859520,2.8906,0.5631,3.1647,0.1182,1.4100,0.3476,
5.906077,2.8906,0.5631,3.1647,0.1182,1.4100,0.3476,
5.907443,1.7037,0.2154,3.7951,0.1182,1.4100,0.3476,
5.924607,1.7037,0.2154,3.7951,0.5777,-0.5744,0.3056,
5.970436,1.7037,0.2154,3.7951,0.5777,-0.5744,0.3056,
5.971637,0.3571,-0.1792,-0.6232,0.5777,-0.5744,0.3056,
5.990495,0.3571,-0.1792,-0.6232,2.4939,-0.6118,-0.4693,
6.036219,0.3571,-0.1792,-0.6232,2.4939,-0.6118,-0.4693,
6.038070,-1.2840,0.7152,-2.6978,2.4939,-0.6118,-0.4693,
6.056038,-1.2840,0.7152,-2.6978,1.2297,-0.3039,-1.2248,
6.102041,-1.2840,0.7152,-2.6978,1.2297,-0.3039,-1.2248,
6.103822,-1.5544,-0.0470,-3.1896,1.2297,-0.3039,-1.2248,
6.121764,-1.5544,-0.0470,-3.1896,1.0971,0.1649,-0.1104,
6.167684,-1.5544,-0.0470,-3.1896,1.0971,0.1649,-0.1104,
6.169929,0.1429,-0.3393,-1.8685,1.0971,0.1649,-0.1104,
6.186704,0.1429,-0.3393,-1.8685,0.8329,0.1048,-0.2915,
6.233505,0.1429,-0.3393,-1.8685,0.8329,0.1048,-0.2915,
6.235915,-0.1675,-0.2575,-0.9454,0.8329,0.1048,-0.2915,
6.252357,-0.1675,-0.2575,-0.9454,0.7191,0.0634,-0.2237,
6.297908,-0.1675,-0.2575,-0.9454,0.7191,0.0634,-0.2237,
6.299126,0.3466,-1.3000,-0.6993,0.7191,0.0634,-0.2237,
6.318071,0.3466,-1.3000,-0.6993,0.8270,-0.0412,-0.3984,
6.363485,0.3466,-1.3000,-0.6993,0.8270,-0.0412,-0.3984,
6.364685,0.5894,-0.7362,0.0428,0.8270,-0.0412,-0.3984,
6.383506,0.5894,-0.7362,0.0428,0.4812,-0.4065,-0.3771,
6.428981,0.5894,-0.7362,0.0428,0.4812,-0.4065,-0.3771,
6.430655,1.2414,-0.0120,0.4512,0.4812,-0.4065,-0.3771,
6.448101,1.2414,-0.0120,0.4512,0.4771,-0.8105,-0.3005,
6.494087,1.2414,-0.0120,0.4512,0.4771,-0.8105,-0.3005,
6.495360,2.2982,0.4370,0.7233,0.4771,-0.8105,-0.3005,
6.514738,2.2982,0.4370,0.7233,0.1226,-0.7851,0.0567,
6.559902,2.2982,0.4370,0.7233,0.1226,-0.7851,0.0567,
6.561644,4.2248,-0.0832,2.6541,0.1226,-0.7851,0.0567,
6.579682,4.2248,-0.0832,2.6541,-0.6019,-1.2100,0.3308,
6.625281,4.2248,-0.0832,2.6541,-0.6019,-1.2100,0.3308,
6.626765,3.7040,1.2006,-0.7789,-0.6019,-1.2100,0.3308,
6.648255,3.7040,1.2006,-0.7789,-0.7123,2.1701,0.6703,
6.691026,3.7040,1.2006,-0.7789,-0.7123,2.1701,0.6703,
6.692520,0.7804,0.4536,0.2557,-0.7123,2.1701,0.6703,
6.710266,0.7804,0.4536,0.2557,0.3057,1.0945,0.4276,
6.756401,0.7804,0.4536,0.2557,0.3057,1.0945,0.4276,
6.758003,-2.1645,3.2028,-5.4158,0.3057,1.0945,0.4276,
6.776214,-2.1645,3.2028,-5.4158,-1.6945,1.2107,-0.3679,
6.821438,-2.1645,3.2028,-5.4158,-1.6945,1.2107,-0.3679,
6.822706,-4.0221,-0.5857,-3.0062,-1.6945,1.2107,-0.3679,
6.841593,-4.0221,-0.5857,-3.0062,-2.2662,0.2639,0.3859,
6.887549,-4.0221,-0.5857,-3.0062,-2.2662,0.2639,0.3859,
6.889239,-2.3045,-1.3828,-2.5929,-2.2662,0.2639,0.3859,
6.907281,-2.3045,-1.3828,-2.5929,-2.2046,0.2891,-0.0684,
6.952849,-2.3045,-1.3828,-2.5929,-2.2046,0.2891,-0.0684,
6.954492,-1.2548,-0.9132,-1.0958,-2.2046,0.2891,-0.0684,
6.973332,-1.2548,-0.9132,-1.0958,-0.8558,0.0521,-0.0286,
7.018747,-1.2548,-0.9132,-1.0958,-0.8558,0.0521,-0.0286,
7.020389,0.0789,-1.5328,-1.4144,-0.8558,0.0521,-0.0286,
7.038520,0.0789,-1.5328,-1.4144,0.0915,0.1060,0.5403,
7.083992,0.0789,-1.5328,-1.4144,0.0915,0.1060,0.5403,
7.085712,2.2823,0.6094,0.6255,0.0915,0.1060,0.5403,
7.103484,2.2823,0.6094,0.6255,-0.1804,0.9975,0.5461,
7.150155,2.2823,0.6094,0.6255,-0.1804,0.9975,0.5461,
7.151907,2.5876,-0.3656,3.6749,-0.1804,0.9975,0.5461,
7.169973,2.5876,-0.3656,3.6749,1.2996,0.0828,0.0751,
7.214149,2.5876,-0.3656,3.6749,1.2996,0.0828,0.0751,
7.215612,0.0970,0.1045,-0.3258,1.2996,0.0828,0.0751,
7.235009,0.0970,0.1045,-0.3258,2.0736,-1.1240,-0.6596,
7.280506,0.0970,0.1045,-0.3258,2.0736,-1.1240,-0.6596,
7.282483,-1.8649,0.5991,-2.2284,2.0736,-1.1240,-0.6596,
7.300013,-1.8649,0.5991,-2.2284,0.8968,0.4142,-0.6252,
7.345429,-1.8649,0.5991,-2.2284,0.8968,0.4142,-0.6252,
7.348201,-0.6336,-0.9627,-1.9391,0.8968,0.4142,-0.6252,
7.365688,-0.6336,-0.9627,-1.9391,1.5296,0.1820,-0.2425,
7.411185,-0.6336,-0.9627,-1.9391,1.5296,0.1820,-0.2425,
7.412892,0.8925,-0.7210,-1.8382,1.5296,0.1820,-0.2425,
7.431579,0.8925,-0.7210,-1.8382,0.9290,0.0982,-0.2460,
7.477351,0.8925,-0.7210,-1.8382,0.9290,0.0982,-0.2460,
7.478505,0.8731,-0.6548,-1.3546,0.9290,0.0982,-0.2460,
7.496531,0.8731,-0.6548,-1.3546,0.8294,-0.0629,-0.1526,
7.542842,0.8731,-0.6548,-1.3546,0.8294,-0.0629,-0.1526,
7.545640,1.0481,-0.8009,-0.8034,0.8294,-0.0629,-0.1526,
7.563613,1.0481,-0.8009,-0.8034,0.7184,-0.0038,-0.2593,
7.608432,1.0481,-0.8009,-0.8034,0.7184,-0.0038,-0.2593,
7.611294,0.5089,-0.3165,0.2372,0.7184,-0.0038,-0.2593,
7.627826,0.5089,-0.3165,0.2372,0.4391,-0.4381,-0.1883,
7.673940,0.5089,-0.3165,0.2372,0.4391,-0.4381,-0.1883,
7.676314,1.3172,-0.2372,0.4693,0.4391,-0.4381,-0.1883,
7.693769,1.3172,-0.2372,0.4693,0.1767,-0.9943,-0.1219,
7.738443,1.3172,-0.2372,0.4693,0.1767,-0.9943,-0.1219,
7.740057,2.3261,-0.2628,1.5076,0.1767,-0.9943,-0.1219,
7.758312,2.3261,-0.2628,1.5076,-0.1220,-1.0725,-0.0606,
7.803483,2.3261,-0.2628,1.5076,-0.1220,-1.0725,-0.0606,
7.805903,2.8403,1.4899,1.2858,-0.1220,-1.0725,-0.0606,
7.823546,2.8403,1.4899,1.2858,-0.2286,0.7091,0.3963,
7.869566,2.8403,1.4899,1.2858,-0.2286,0.7091,0.3963,
7.870771,2.3201,0.8620,0.1915,-0.2286,0.7091,0.3963,
7.889725,2.3201,0.8620,0.1915,-0.9838,1.1518,0.6666,
7.935023,2.3201,0.8620,0.1915,-0.9838,1.1518,0.6666,
7.936272,0.2815,2.0529,-3.4744,-0.9838,1.1518,0.6666,
7.955371,0.2815,2.0529,-3.4744,-1.4213,0.0099,0.4687,
8.000863,0.2815,2.0529,-3.4744,-1.4213,0.0099,0.4687,
8.001967,-1.2064,0.9614,-3.4063,-1.4213,0.0099,0.4687,
8.020177,-1.2064,0.9614,-3.4063,-2.2159,0.7682,0.2106,
8.065263,-1.2064,0.9614,-3.4063,-2.2159,0.7682,0.2106,
8.066289,-1.7605,-0.8831,-2.1897,-2.2159,0.7682,0.2106,
8.085465,-1.7605,-0.8831,-2.1897,-1.7449,0.1500,0.1946,
8.130573,-1.7605,-0.8831,-2.1897,-1.7449,0.1500,0.1946,
8.131676,-1.5428,-0.7350,-1.4142,-1.7449,0.1500,0.1946,
8.152885,-1.5428,-0.7350,-1.4142,-1.0336,-0.1170,0.3186,
8.196995,-1.5428,-0.7350,-1.4142,-1.0336,-0.1170,0.3186,
8.198356,-0.6859,-1.6851,-1.4021,-1.0336,-0.1170,0.3186,
8.217373,-0.6859,-1.6851,-1.4021,0.4100,0.2469,0.9745,
8.262136,-0.6859,-1.6851,-1.4021,0.4100,0.2469,0.9745,
8.263770,1.7667,-2.2882,-1.0765,0.4100,0.2469,0.9745,
8.282506,1.7667,-2.2882,-1.0765,0.4942,0.9762,0.1842,
8.328645,1.7667,-2.2882,-1.0765,0.4942,0.9762,0.1842,
8.330830,3.1488,0.7993,3.4882,0.4942,0.9762,0.1842,
8.349328,3.1488,0.7993,3.4882,0.4462,1.7732,0.2607,
8.393439,3.1488,0.7993,3.4882,0.4462,1.7732,0.2607,
8.396105,1.6131,0.2815,2.2490,0.4462,1.7732,0.2607,
8.413836,1.6131,0.2815,2.2490,0.8059,0.1011,0.3399,
8.460017,1.6131,0.2815,2.2490,0.8059,0.1011,0.3399,
8.461926,1.0306,1.1887,-1.7458,0.8059,0.1011,0.3399,
8.478466,1.0306,1.1887,-1.7458,1.2668,-0.8775,-0.8344,
8.524571,1.0306,1.1887,-1.7458,1.2668,-0.8775,-0.8344,
8.526668,-1.5825,0.0995,-2.6016,1.2668,-0.8775,-0.8344,
8.544872,-1.5825,0.0995,-2.6016,0.6400,0.2750,-0.7149,
8.591174,-1.5825,0.0995,-2.6016,0.6400,0.2750,-0.7149,
8.593121,-0.9795,-0.2530,-2.9436,0.6400,0.2750,-0.7149,
8.610267,-0.9795,-0.2530,-2.9436,1.2622,1.3158,-0.3567,
8.655206,-0.9795,-0.2530,-2.9436,1.2622,1.3158,-0.3567,
8.656749,0.8627,-1.1405,-1.6006,1.2622,1.3158,-0.3567,
8.675583,0.8627,-1.1405,-1.6006,0.8015,0.6745,-0.3267,
8.722759,0.8627,-1.1405,-1.6006,0.8015,0.6745,-0.3267,
8.725048,0.7321,-0.2060,-0.5587,0.8015,0.6745,-0.3267,
8.741391,0.7321,-0.2060,-0.5587,0.8022,-0.2338,0.1411,
8.786544,0.7321,-0.2060,-0.5587,0.8022,-0.2338,0.1411,
8.787853,1.1289,-0.9784,-0.3430,0.8022,-0.2338,0.1411,
8.805713,1.1289,-0.9784,-0.3430,0.7246,0.0040,-0.2240,
8.852298,1.1289,-0.9784,-0.3430,0.7246,0.0040,-0.2240,
8.854508,0.8822,-1.1870,0.0991,0.7246,0.0040,-0.2240,
8.871931,0.8822,-1.1870,0.0991,0.6871,-0.0348,-0.2983,
8.916979,0.8822,-1.1870,0.0991,0.6871,-0.0348,-0.2983,
8.918695,1.6058,0.1284,0.4531,0.6871,-0.0348,-0.2983,
8.937480,1.6058,0.1284,0.4531,0.6603,-0.2954,-0.3867,
8.982811,1.6058,0.1284,0.4531,0.6603,-0.2954,-0.3867,
8.985619,2.1804,0.1666,1.2071,0.6603,-0.2954,-0.3867,
9.002778,2.1804,0.1666,1.2071,-0.0447,-0.6524,-0.1295,
9.048125,2.1804,0.1666,1.2071,-0.0447,-0.6524,-0.1295,
9.049697,4.0407,0.5888,1.4166,-0.0447,-0.6524,-0.1295,
9.068158,4.0407,0.5888,1.4166,-0.6332,-0.4867,0.4530,
9.113988,4.0407,0.5888,1.4166,-0.6332,-0.4867,0.4530,
9.116004,5.5026,1.2584,-0.7170,-0.6332,-0.4867,0.4530,
9.133475,5.5026,1.2584,-0.7170,-0.6567,1.9580,0.1567,
9.181995,5.5026,1.2584,-0.7170,-0.6567,1.9580,0.1567,
9.185416,0.3557,-0.8623,-0.1558,-0.6567,1.9580,0.1567,
9.199067,0.3557,-0.8623,-0.1558,-0.3115,1.8007,0.4607,
9.244943,0.3557,-0.8623,-0.1558,-0.3115,1.8007,0.4607,
9.246369,-0.0093,3.9262,-4.8869,-0.3115,1.8007,0.4607,
9.264582,-0.0093,3.9262,-4.8869,-1.3638,0.6200,0.5147,
9.310582,-0.0093,3.9262,-4.8869,-1.3638,0.6200,0.5147,
9.311873,-1.9253,-0.7802,-3.1840,-1.3638,0.6200,0.5147,
9.330288,-1.9253,-0.7802,-3.1840,-2.3219,0.2943,0.5473,
9.376477,-1.9253,-0.7802,-3.1840,-2.3219,0.2943,0.5473,
9.377816,-1.1678,-1.9529,-1.9284,-2.3219,0.2943,0.5473,
9.397790,-1.1678,-1.9529,-1.9284,-1.2802,1.2333,0.4849,
9.441431,-1.1678,-1.9529,-1.9284,-1.2802,1.2333,0.4849,
9.443235,-0.7532,-1.8218,0.1729,-1.2802,1.2333,0.4849,
9.460696,-0.7532,-1.8218,0.1729,0.7970,0.3155,0.1807,
9.506431,-0.7532,-1.8218,0.1729,0.7970,0.3155,0.1807,
9.508127,-0.0835,-1.9811,-1.5924,0.7970,0.3155,0.1807,
9.526513,-0.0835,-1.9811,-1.5924,0.7414,1.0583,0.0316,
9.572207,-0.0835,-1.9811,-1.5924,0.7414,1.0583,0.0316,
9.573263,2.1199,0.0527,2.4435,0.7414,1.0583,0.0316,
9.592925,2.1199,0.0527,2.4435,-0.2095,1.9636,0.0292,
9.637685,2.1199,0.0527,2.4435,-0.2095,1.9636,0.0292,
9.640225,1.7191,0.8675,5.4792,-0.2095,1.9636,0.0292,
9.658071,1.7191,0.8675,5.4792,0.7483,-1.0353,0.7758,
9.703512,1.7191,0.8675,5.4792,0.7483,-1.0353,0.7758,
9.705079,1.3118,3.0847,-1.7185,0.7483,-1.0353,0.7758,
9.723427,1.3118,3.0847,-1.7185,1.3239,-0.5669,0.3624,
9.768423,1.3118,3.0847,-1.7185,1.3239,-0.5669,0.3624,
9.770440,-0.9176,-2.4799,-3.8347,1.3239,-0.5669,0.3624,
9.787993,-0.9176,-2.4799,-3.8347,0.6881,0.4782,-1.2384,
9.833657,-0.9176,-2.4799,-3.8347,0.6881,0.4782,-1.2384,
9.834786,-1.8767,0.9939,-3.0234,0.6881,0.4782,-1.2384,
9.853136,-1.8767,0.9939,-3.0234,0.8774,0.6278,-0.2040,
9.898327,-1.8767,0.9939,-3.0234,0.8774,0.6278,-0.2040,
9.899326,0.5790,-0.2778,-0.4259,0.8774,0.6278,-0.2040,
9.918438,0.5790,-0.2778,-0.4259,0.5760,-0.4328,-0.0379,
9.964424,0.5790,-0.2778,-0.4259,0.5760,-0.4328,-0.0379,
9.965519,1.7656,-1.1717,-0.4035,0.5760,-0.4328,-0.0379,
9.983961,1.7656,-1.1717,-0.4035,0.9713,-0.0334,-0.3135,
10.029395,1.7656,-1.1717,-0.4035,0.9713,-0.0334,-0.3135,
10.030382,1.5522,-1.1856,0.3693,0.9713,-0.0334,-0.3135,
10.049438,1.5522,-1.1856,0.3693,1.2536,0.8407,-0.4588,
10.094661,1.5522,-1.1856,0.3693,1.2536,0.8407,-0.4588,
10.095746,1.1652,-1.2299,0.2914,1.2536,0.8407,-0.4588,
10.115107,1.1652,-1.2299,0.2914,1.0832,0.4910,-0.5066,
10.163129,1.1652,-1.2299,0.2914,1.0832,0.4910,-0.5066,
10.164344,0.6220,-0.0613,0.6909,1.0832,0.4910,-0.5066,
10.181079,0.6220,-0.0613,0.6909,0.5231,-0.5194,-0.2462,
10.226994,0.6220,-0.0613,0.6909,0.5231,-0.5194,-0.2462,
10.228669,2.2679,0.0902,1.5336,0.5231,-0.5194,-0.2462,
10.246735,2.2679,0.0902,1.5336,-0.0064,-1.2129,-0.2158,
10.292474,2.2679,0.0902,1.5336,-0.0064,-1.2129,-0.2158,
10.293963,3.9802,2.0032,1.7996,-0.0064,-1.2129,-0.2158,
10.313134,3.9802,2.0032,1.7996,-0.2674,-0.3740,0.2796,
10.358176,3.9802,2.0032,1.7996,-0.2674,-0.3740,0.2796,
10.359874,3.9309,1.7854,0.3442,-0.2674,-0.3740,0.2796,
10.377854,3.9309,1.7854,0.3442,-1.5646,0.9073,0.5527,
10.424108,3.9309,1.7854,0.3442,-1.5646,0.9073,0.5527,
10.425243,0.7916,0.7188,-0.4663,-1.5646,0.9073,0.5527,
10.443750,0.7916,0.7188,-0.4663,-1.0130,1.5331,1.0400,
10.489459,0.7916,0.7188,-0.4663,-1.0130,1.5331,1.0400,
10.491949,0.9451,2.1063,-3.2051,-1.0130,1.5331,1.0400,
10.508492,0.9451,2.1063,-3.2051,-1.7191,0.6785,0.5198,
10.555512,0.9451,2.1063,-3.2051,-1.7191,0.6785,0.5198,
10.557232,-1.6040,-0.9875,-2.5154,-1.7191,0.6785,0.5198,
10.574620,-1.6040,-0.9875,-2.5154,-1.8685,-0.0657,0.6132,
10.619235,-1.6040,-0.9875,-2.5154,-1.8685,-0.0657,0.6132,
10.620826,-2.7475,-1.0237,-2.4000,-1.8685,-0.0657,0.6132,
10.640759,-2.7475,-1.0237,-2.4000,-0.6857,1.1874,0.5104,
10.685312,-2.7475,-1.0237,-2.4000,-0.6857,1.1874,0.5104,
10.686259,-1.2466,-1.8962,-1.0768,-0.6857,1.1874,0.5104,
10.705005,-1.2466,-1.8962,-1.0768,0.1066,1.0154,0.5188,
10.750119,-1.2466,-1.8962,-1.0768,0.1066,1.0154,0.5188,
10.752110,0.2664,-2.4783,-0.3195,0.1066,1.0154,0.5188,
10.771222,0.2664,-2.4783,-0.3195,0.6521,1.7975,0.0255,
10.815844,0.2664,-2.4783,-0.3195,0.6521,1.7975,0.0255,
10.817501,2.4127,0.7275,4.2680,0.6521,1.7975,0.0255,
10.836115,2.4127,0.7275,4.2680,0.4902,2.4800,0.2561,
10.882258,2.4127,0.7275,4.2680,0.4902,2.4800,0.2561,
10.883423,-0.4550,0.5944,4.1633,0.4902,2.4800,0.2561,
10.901585,-0.4550,0.5944,4.1633,0.9623,-1.6435,0.3729,
10.947156,-0.4550,0.5944,4.1633,0.9623,-1.6435,0.3729,
10.948236,0.7319,2.4694,-2.9864,0.9623,-1.6435,0.3729,
10.967587,0.7319,2.4694,-2.9864,1.1810,-0.7488,-0.2346,
11.013195,0.7319,2.4694,-2.9864,1.1810,-0.7488,-0.2346,
11.015408,-0.5622,-0.9209,-2.1986,1.1810,-0.7488,-0.2346,
11.032700,-0.5622,-0.9209,-2.1986,0.9771,0.3407,-0.6493,
11.078402,-0.5622,-0.9209,-2.1986,0.9771,0.3407,-0.6493,
11.080458,0.6894,-0.1283,-3.1037,0.9771,0.3407,-0.6493,
11.098618,0.6894,-0.1283,-3.1037,1.3512,1.7643,-0.5191,
11.144654,0.6894,-0.1283,-3.1037,1.3512,1.7643,-0.5191,
11.146459,0.8021,-1.8671,0.4361,1.3512,1.7643,-0.5191,
11.164100,0.8021,-1.8671,0.4361,1.3641,0.5979,-0.6139,
11.209009,0.8021,-1.8671,0.4361,1.3641,0.5979,-0.6139,
11.210730,0.1799,-0.0980,0.4268,1.3641,0.5979,-0.6139,
11.231056,0.1799,-0.0980,0.4268,0.8751,-0.4326,0.0273,
11.274967,0.1799,-0.0980,0.4268,0.8751,-0.4326,0.0273,
11.277230,0.8227,-0.6972,0.9128,0.8751,-0.4326,0.0273,
11.294754,0.8227,-0.6972,0.9128,0.5061,-0.7081,-0.0463,
11.339847,0.8227,-0.6972,0.9128,0.5061,-0.7081,-0.0463,
11.341399,1.5042,-0.4566,1.3271,0.5061,-0.7081,-0.0463,
11.360331,1.5042,-0.4566,1.3271,0.5991,-0.6084,-0.3286,
11.405821,1.5042,-0.4566,1.3271,0.5991,-0.6084,-0.3286,
11.407661,1.5374,-0.2982,2.5452,0.5991,-0.6084,-0.3286,
11.424748,1.5374,-0.2982,2.5452,0.2605,-0.7274,-0.1871,
11.471712,1.5374,-0.2982,2.5452,0.2605,-0.7274,-0.1871,
11.473899,2.5380,0.5453,1.0527,0.2605,-0.7274,-0.1871,
11.491096,2.5380,0.5453,1.0527,0.2248,-0.0041,-0.0108,
11.536769,2.5380,0.5453,1.0527,0.2248,-0.0041,-0.0108,
11.539031,3.2102,2.8825,1.8212,0.2248,-0.0041,-0.0108,
11.556465,3.2102,2.8825,1.8212,-1.3489,-0.3670,0.4873,
11.601690,3.2102,2.8825,1.8212,-1.3489,-0.3670,0.4873,
11.603764,3.6202,0.1264,-0.9978,-1.3489,-0.3670,0.4873,
11.622072,3.6202,0.1264,-0.9978,-1.6196,1.1985,0.3813,
11.667250,3.6202,0.1264,-0.9978,-1.6196,1.1985,0.3813,
11.669201,0.9292,1.6779,-2.0074,-1.6196,1.1985,0.3813,
11.687530,0.9292,1.6779,-2.0074,-1.2610,0.8267,0.9019,
11.735371,0.9292,1.6779,-2.0074,-1.2610,0.8267,0.9019,
11.737403,0.0179,2.4717,-3.2727,-1.2610,0.8267,0.9019,
11.752734,0.0179,2.4717,-3.2727,-1.9821,0.0466,0.8231,
11.800085,0.0179,2.4717,-3.2727,-1.9821,0.0466,0.8231,
11.802347,-2.0903,-0.5162,-2.2873,-1.9821,0.0466,0.8231,
11.819783,-2.0903,-0.5162,-2.2873,-1.1358,0.1271,0.6258,
11.863545,-2.0903,-0.5162,-2.2873,-1.1358,0.1271,0.6258,
11.864289,-2.3303,-1.1090,-2.0392,-1.1358,0.1271,0.6258,
11.883291,-2.3303,-1.1090,-2.0392,0.2222,1.4859,1.9329,
11.929270,-2.3303,-1.1090,-2.0392,0.2222,1.4859,1.9329,
11.930086,0.2179,-3.1460,-0.9965,0.2222,1.4859,1.9329,
11.950023,0.2179,-3.1460,-0.9965,0.5122,1.1277,0.7169,
11.994725,0.2179,-3.1460,-0.9965,0.5122,1.1277,0.7169,
11.995560,-1.1983,-4.2822,0.6407,0.5122,1.1277,0.7169,
12.014191,-1.1983,-4.2822,0.6407,0.7958,1.9532,-1.2275,
12.060554,-1.1983,-4.2822,0.6407,0.7958,1.9532,-1.2275,
12.061229,0.8218,2.7129,4.6261,0.7958,1.9532,-1.2275,
12.080132,0.8218,2.7129,4.6261,0.3635,-0.1802,-0.0186,
12.126365,0.8218,2.7129,4.6261,0.3635,-0.1802,-0.0186,
12.127052,3.8666,-0.3990,1.3350,0.3635,-0.1802,-0.0186,
12.146297,3.8666,-0.3990,1.3350,1.4404,-0.4160,1.1402,
12.191572,3.8666,-0.3990,1.3350,1.4404,-0.4160,1.1402,
12.193065,4.5388,0.1302,-3.3116,1.4404,-0.4160,1.1402,
12.211178,4.5388,0.1302,-3.3116,2.5633,3.1000,-1.9980,
12.256833,4.5388,0.1302,-3.3116,2.5633,3.1000,-1.9980,
12.258376,-2.1688,0.8470,-1.0773,2.5633,3.1000,-1.9980,
12.277003,-2.1688,0.8470,-1.0773,0.0524,1.3292,-1.3989,
12.321599,-2.1688,0.8470,-1.0773,0.0524,1.3292,-1.3989,
12.323152,-3.0200,-0.9275,-2.9116,0.0524,1.3292,-1.3989,
12.342033,-3.0200,-0.9275,-2.9116,0.9247,0.2601,0.7813,
12.387481,-3.0200,-0.9275,-2.9116,0.9247,0.2601,0.7813,
12.389190,-1.6079,-2.4139,-2.4778,0.9247,0.2601,0.7813,
12.408535,-1.6079,-2.4139,-2.4778,0.7559,-0.9128,0.0799,
12.453994,-1.6079,-2.4139,-2.4778,0.7559,-0.9128,0.0799,
12.456065,-0.3635,0.7216,-0.3843,0.7559,-0.9128,0.0799,
12.474240,-0.3635,0.7216,-0.3843,1.5591,0.0536,0.0870,
12.518843,-0.3635,0.7216,-0.3843,1.5591,0.0536,0.0870,
12.520500,2.4262,0.1136,4.1150,1.5591,0.0536,0.0870,
12.538268,2.4262,0.1136,4.1150,-0.0403,-0.8943,0.2051,
12.584390,2.4262,0.1136,4.1150,-0.0403,-0.8943,0.2051,
12.585168,1.8293,-1.2156,1.1912,-0.0403,-0.8943,0.2051,
12.604821,1.8293,-1.2156,1.1912,1.0218,-0.7153,-0.6150,
12.649524,1.8293,-1.2156,1.1912,1.0218,-0.7153,-0.6150,
12.650134,1.9787,-0.4717,1.0371,1.0218,-0.7153,-0.6150,
12.669569,1.9787,-0.4717,1.0371,0.7902,0.7920,-0.5324,
12.715283,1.9787,-0.4717,1.0371,0.7902,0.7920,-0.5324,
12.716146,3.3528,0.5650,1.6974,0.7902,0.7920,-0.5324,
12.734669,3.3528,0.5650,1.6974,-0.0040,0.5351,-0.0089,
12.780198,3.3528,0.5650,1.6974,-0.0040,0.5351,-0.0089,
12.780694,3.5522,2.6180,2.6836,-0.0040,0.5351,-0.0089,
12.801362,3.5522,2.6180,2.6836,-1.2468,0.1648,0.7039,
12.846438,3.5522,2.6180,2.6836,-1.2468,0.1648,0.7039,
12.847481,1.9544,1.6344,-1.1084,-1.2468,0.1648,0.7039,
12.867251,1.9544,1.6344,-1.1084,-1.1133,2.0704,0.9300,
12.911292,1.9544,1.6344,-1.1084,-1.1133,2.0704,0.9300,
12.912712,-1.0223,2.6134,-1.7971,-1.1133,2.0704,0.9300,
12.932146,-1.0223,2.6134,-1.7971,-2.1032,-0.8343,0.5078,
12.978668,-1.0223,2.6134,-1.7971,-2.1032,-0.8343,0.5078,
12.980492,-2.9147,0.5367,-2.0528,-2.1032,-0.8343,0.5078,
12.997573,-2.9147,0.5367,-2.0528,-2.5737,-0.6512,0.8459,
13.042807,-2.9147,0.5367,-2.0528,-2.5737,-0.6512,0.8459,
13.044617,-2.7170,-2.8025,-2.0526,-2.5737,-0.6512,0.8459,
13.063297,-2.7170,-2.8025,-2.0526,-1.0084,1.4322,0.1304,
13.107877,-2.7170,-2.8025,-2.0526,-1.0084,1.4322,0.1304,
13.109615,-1.4171,-0.9101,-0.1990,-1.0084,1.4322,0.1304,
13.127712,-1.4171,-0.9101,-0.1990,0.1142,0.4711,0.4412,
13.174010,-1.4171,-0.9101,-0.1990,0.1142,0.4711,0.4412,
13.175933,-0.6739,-3.5896,-0.5654,0.1142,0.4711,0.4412,
13.193427,-0.6739,-3.5896,-0.5654,1.0799,0.3496,0.0389,
13.240762,-0.6739,-3.5896,-0.5654,1.0799,0.3496,0.0389,
13.242727,0.4814,-0.7421,0.4032,1.0799,0.3496,0.0389,
13.259472,0.4814,-0.7421,0.4032,1.2831,1.6510,-0.3166,
13.305753,0.4814,-0.7421,0.4032,1.2831,1.6510,-0.3166,
13.307049,0.0180,2.9113,7.6078,1.2831,1.6510,-0.3166,
13.324616,0.0180,2.9113,7.6078,0.3900,-1.7071,0.3461,
13.371620,0.0180,2.9113,7.6078,0.3900,-1.7071,0.3461,
13.372589,2.4186,3.1030,-1.4001,0.3900,-1.7071,0.3461,
13.391267,2.4186,3.1030,-1.4001,2.2442,-0.3444,-0.5783,
13.435398,2.4186,3.1030,-1.4001,2.2442,-0.3444,-0.5783,
13.436620,-1.5884,-1.6333,-2.5878,2.2442,-0.3444,-0.5783,
13.455670,-1.5884,-1.6333,-2.5878,0.3129,0.3464,-1.2807,
13.500974,-1.5884,-1.6333,-2.5878,0.3129,0.3464,-1.2807,
13.502647,-2.5361,-0.9913,-0.5388,0.3129,0.3464,-1.2807,
13.521481,-2.5361,-0.9913,-0.5388,0.7300,0.6458,-0.3212,
13.566591,-2.5361,-0.9913,-0.5388,0.7300,0.6458,-0.3212,
13.568245,-0.4815,-0.4262,-0.7994,0.7300,0.6458,-0.3212,
13.586370,-0.4815,-0.4262,-0.7994,1.1367,-0.3442,-0.1168,
13.633306,-0.4815,-0.4262,-0.7994,1.1367,-0.3442,-0.1168,
13.635219,0.4510,-0.0366,0.1783,1.1367,-0.3442,-0.1168,
13.652606,0.4510,-0.0366,0.1783,0.1437,-0.7921,0.1489,
13.696681,0.4510,-0.0366,0.1783,0.1437,-0.7921,0.1489,
13.697618,1.2630,-0.4103,1.5003,0.1437,-0.7921,0.1489,
13.718023,1.2630,-0.4103,1.5003,-0.0279,-1.9601,0.1765,
13.762704,1.2630,-0.4103,1.5003,-0.0279,-1.9601,0.1765,
13.764699,1.1305,-1.1785,1.0695,-0.0279,-1.9601,0.1765,
13.782622,1.1305,-1.1785,1.0695,0.5206,-0.0331,-0.3899,
13.829882,1.1305,-1.1785,1.0695,0.5206,-0.0331,-0.3899,
13.832201,0.7973,-0.2570,2.0274,0.5206,-0.0331,-0.3899,
13.848460,0.7973,-0.2570,2.0274,0.8328,0.3879,-0.6060,
13.894831,0.7973,-0.2570,2.0274,0.8328,0.3879,-0.6060,
13.895624,2.1061,1.0195,0.4943,0.8328,0.3879,-0.6060,
13.913909,2.1061,1.0195,0.4943,0.2008,0.3830,0.0754,
13.959510,2.1061,1.0195,0.4943,0.2008,0.3830,0.0754,
13.960153,3.7045,1.9775,3.0838,0.2008,0.3830,0.0754,
13.979379,3.7045,1.9775,3.0838,-1.7704,-2.0215,1.1119,
14.026364,3.7045,1.9775,3.0838,-1.7704,-2.0215,1.1119,
14.027509,1.8269,0.5281,-0.6720,-1.7704,-2.0215,1.1119,
14.046816,1.8269,0.5281,-0.6720,-1.7017,1.9904,1.5824,
14.091194,1.8269,0.5281,-0.6720,-1.7017,1.9904,1.5824,
14.092841,0.5722,3.2378,0.3679,-1.7017,1.9904,1.5824,
14.112096,0.5722,3.2378,0.3679,-0.7611,0.6904,0.9969,
14.155354,0.5722,3.2378,0.3679,-0.7611,0.6904,0.9969,
14.156903,-2.0621,2.5743,-2.3866,-0.7611,0.6904,0.9969,
14.177184,-2.0621,2.5743,-2.3866,-2.0563,-0.1973,0.1758,
14.222668,-2.0621,2.5743,-2.3866,-2.0563,-0.1973,0.1758,
14.223929,-3.6983,-2.4240,-2.5424,-2.0563,-0.1973,0.1758,
14.242291,-3.6983,-2.4240,-2.5424,-1.4377,0.6315,0.0463,
14.287431,-3.6983,-2.4240,-2.5424,-1.4377,0.6315,0.0463,
14.289046,-2.6996,-1.7978,-1.6498,-1.4377,0.6315,0.0463,
14.306417,-2.6996,-1.7978,-1.6498,-0.5774,1.3317,-0.1350,
14.353924,-2.6996,-1.7978,-1.6498,-0.5774,1.3317,-0.1350,
14.356290,-1.1563,-2.6161,0.2226,-0.5774,1.3317,-0.1350,
14.373536,-1.1563,-2.6161,0.2226,0.3099,-0.1862,-0.1768,
14.417120,-1.1563,-2.6161,0.2226,0.3099,-0.1862,-0.1768,
14.417841,-0.2841,-1.7057,1.2679,0.3099,-0.1862,-0.1768,
14.437917,-0.2841,-1.7057,1.2679,1.2511,0.3111,-0.0530,
14.483674,-0.2841,-1.7057,1.2679,1.2511,0.3111,-0.0530,
14.484354,4.1598,2.1734,5.6327,1.2511,0.3111,-0.0530,
14.503408,4.1598,2.1734,5.6327,0.1471,0.1688,0.2894,
14.549372,4.1598,2.1734,5.6327,0.1471,0.1688,0.2894,
14.549923,1.4966,-1.0703,3.6632,0.1471,0.1688,0.2894,
14.568468,1.4966,-1.0703,3.6632,1.9042,-1.1683,-0.5266,
14.613097,1.4966,-1.0703,3.6632,1.9042,-1.1683,-0.5266,
14.613775,-0.2483,2.2415,-4.0727,1.9042,-1.1683,-0.5266,
14.633679,-0.2483,2.2415,-4.0727,1.0411,1.1374,-1.3462,
14.680328,-0.2483,2.2415,-4.0727,1.0411,1.1374,-1.3462,
14.681278,-1.6052,-1.1615,-1.0229,1.0411,1.1374,-1.3462,
14.698644,-1.6052,-1.1615,-1.0229,-0.0812,1.4345,-0.7761,
14.746261,-1.6052,-1.1615,-1.0229,-0.0812,1.4345,-0.7761,
14.746850,-0.0363,-0.4259,-0.9622,-0.0812,1.4345,-0.7761,
14.766176,-0.0363,-0.4259,-0.9622,1.7414,0.5912,0.1179,
14.809934,-0.0363,-0.4259,-0.9622,1.7414,0.5912,0.1179,
14.810854,0.5763,-1.2296,-2.4097,1.7414,0.5912,0.1179,
14.831325,0.5763,-1.2296,-2.4097,0.9824,0.4890,0.0260,
14.877025,0.5763,-1.2296,-2.4097,0.9824,0.4890,0.0260,
14.877674,0.1146,-0.6520,0.1015,0.9824,0.4890,0.0260,
14.897056,0.1146,-0.6520,0.1015,0.9540,-0.4291,0.1436,
14.941205,0.1146,-0.6520,0.1015,0.9540,-0.4291,0.1436,
14.942584,-0.4000,-0.0030,1.5404,0.9540,-0.4291,0.1436,
14.961239,-0.4000,-0.0030,1.5404,0.3561,-0.3913,-0.0935,
15.007005,-0.4000,-0.0030,1.5404,0.3561,-0.3913,-0.0935,
15.008846,1.0372,-0.4898,1.0334,0.3561,-0.3913,-0.0935,
15.027276,1.0372,-0.4898,1.0334,0.8932,0.1038,-0.5000,
15.073922,1.0372,-0.4898,1.0334,0.8932,0.1038,-0.5000,
15.076093,1.3174,0.0733,2.4736,0.8932,0.1038,-0.5000,
15.093247,1.3174,0.0733,2.4736,0.4125,-0.2880,-0.1750,
15.137819,1.3174,0.0733,2.4736,0.4125,-0.2880,-0.1750,
15.139603,2.7063,1.0457,1.6202,0.4125,-0.2880,-0.1750,
15.158004,2.7063,1.0457,1.6202,-0.2973,-0.4650,0.3227,
15.203572,2.7063,1.0457,1.6202,-0.2973,-0.4650,0.3227,
15.205754,5.2762,2.7576,1.7436,-0.2973,-0.4650,0.3227,
15.223486,5.2762,2.7576,1.7436,-1.5569,0.1717,0.9082,
15.269611,5.2762,2.7576,1.7436,-1.5569,0.1717,0.9082,
15.271364,2.2759,1.0765,-0.7531,-1.5569,0.1717,0.9082,
15.289787,2.2759,1.0765,-0.7531,-0.8117,3.1232,0.9890,
15.334421,2.2759,1.0765,-0.7531,-0.8117,3.1232,0.9890,
15.336414,-0.6218,2.4619,-1.5733,-0.8117,3.1232,0.9890,
15.355424,-0.6218,2.4619,-1.5733,-1.1370,0.3850,0.3094,
15.400585,-0.6218,2.4619,-1.5733,-1.1370,0.3850,0.3094,
15.402391,-3.6003,0.8369,-3.1975,-1.1370,0.3850,0.3094,
15.420473,-3.6003,0.8369,-3.1975,-2.2124,-0.3694,1.2715,
15.465615,-3.6003,0.8369,-3.1975,-2.2124,-0.3694,1.2715,
15.467338,-3.1028,-2.3772,-2.8863,-2.2124,-0.3694,1.2715,
15.486046,-3.1028,-2.3772,-2.8863,-1.1935,1.7118,0.6235,
15.532007,-3.1028,-2.3772,-2.8863,-1.1935,1.7118,0.6235,
15.533220,-1.3632,-0.1550,-0.3553,-1.1935,1.7118,0.6235,
15.550393,-1.3632,-0.1550,-0.3553,-0.2471,1.1223,0.4934,
15.597802,-1.3632,-0.1550,-0.3553,-0.2471,1.1223,0.4934,
15.598844,-1.2842,-2.4088,-0.2605,-0.2471,1.1223,0.4934,
15.615555,-1.2842,-2.4088,-0.2605,0.5961,0.9059,-0.1753,
15.662184,-1.2842,-2.4088,-0.2605,0.5961,0.9059,-0.1753,
15.663323,0.0016,-0.9577,1.9739,0.5961,0.9059,-0.1753,
15.682449,0.0016,-0.9577,1.9739,1.4778,1.5004,0.0951,
15.727327,0.0016,-0.9577,1.9739,1.4778,1.5004,0.0951,
15.728720,3.3590,1.7211,3.4390,1.4778,1.5004,0.0951,
15.747458,3.3590,1.7211,3.4390,0.8473,0.5073,0.2503,
15.793536,3.3590,1.7211,3.4390,0.8473,0.5073,0.2503,
15.795073,0.9944,-0.4116,1.1126,0.8473,0.5073,0.2503,
15.814444,0.9944,-0.4116,1.1126,2.0116,-0.2063,-0.8822,
15.858347,0.9944,-0.4116,1.1126,2.0116,-0.2063,-0.8822,
15.859025,-2.2360,2.8878,-3.8113,2.0116,-0.2063,-0.8822,
15.877512,-2.2360,2.8878,-3.8113,0.0392,2.9322,-1.6038,
15.924504,-2.2360,2.8878,-3.8113,0.0392,2.9322,-1.6038,
15.925052,-2.8935,-1.8673,0.1893,0.0392,2.9322,-1.6038,
15.943331,-2.8935,-1.8673,0.1893,0.7127,-0.9284,-0.3086,
15.991055,-2.8935,-1.8673,0.1893,0.7127,-0.9284,-0.3086,
15.991618,-1.3397,0.1762,-1.8851,0.7127,-0.9284,-0.3086,
16.009675,-1.3397,0.1762,-1.8851,1.3561,-1.3639,0.5657,
16.057269,-1.3397,0.1762,-1.8851,1.3561,-1.3639,0.5657,
16.059792,0.5156,-1.3009,-1.5044,1.3561,-1.3639,0.5657,
16.075692,0.5156,-1.3009,-1.5044,0.9598,-0.4100,-0.0113,
16.121833,0.5156,-1.3009,-1.5044,0.9598,-0.4100,-0.0113,
16.124118,1.3357,0.3733,1.5339,0.9598,-0.4100,-0.0113,
16.141611,1.3357,0.3733,1.5339,-0.3076,-1.8437,0.4803,
16.185874,1.3357,0.3733,1.5339,-0.3076,-1.8437,0.4803,
16.187771,1.1313,-1.2084,1.1582,-0.3076,-1.8437,0.4803,
16.206655,1.1313,-1.2084,1.1582,0.5563,-0.9209,-0.2790,
16.250115,1.1313,-1.2084,1.1582,0.5563,-0.9209,-0.2790,
16.250759,1.2614,-0.2250,1.2762,0.5563,-0.9209,-0.2790,
16.271063,1.2614,-0.2250,1.2762,1.0588,0.7724,-0.6070,
16.316901,1.2614,-0.2250,1.2762,1.0588,0.7724,-0.6070,
16.317860,1.8357,-0.0871,2.5546,1.0588,0.7724,-0.6070,
16.337405,1.8357,-0.0871,2.5546,0.3600,0.0105,-0.3041,
16.382564,1.8357,-0.0871,2.5546,0.3600,0.0105,-0.3041,
16.383402,3.3038,0.9975,1.8941,0.3600,0.0105,-0.3041,
16.401005,3.3038,0.9975,1.8941,-0.2934,-0.0803,0.0638,
16.448536,3.3038,0.9975,1.8941,-0.2934,-0.0803,0.0638,
16.449877,3.5018,2.4843,0.5247,-0.2934,-0.0803,0.0638,
16.468177,3.5018,2.4843,0.5247,-1.3625,1.1179,0.7364,
16.512644,3.5018,2.4843,0.5247,-1.3625,1.1179,0.7364,
16.514306,1.0972,0.3338,-0.7797,-1.3625,1.1179,0.7364,
16.531898,1.0972,0.3338,-0.7797,-0.7541,3.2632,0.9310,
16.577976,1.0972,0.3338,-0.7797,-0.7541,3.2632,0.9310,
16.580011,-0.7386,2.9901,-3.3989,-0.7541,3.2632,0.9310,
16.599727,-0.7386,2.9901,-3.3989,-1.5440,0.0044,0.6379,
16.645546,-0.7386,2.9901,-3.3989,-1.5440,0.0044,0.6379,
16.646665,-3.1100,0.3482,-3.4757,-1.5440,0.0044,0.6379,
16.664563,-3.1100,0.3482,-3.4757,-2.0487,-0.0247,0.7503,
16.710737,-3.1100,0.3482,-3.4757,-2.0487,-0.0247,0.7503,
16.712503,-3.2116,-1.7734,-2.8930,-2.0487,-0.0247,0.7503,
16.730573,-3.2116,-1.7734,-2.8930,-0.6069,2.1560,0.2833,
16.774759,-3.2116,-1.7734,-2.8930,-0.6069,2.1560,0.2833,
16.776817,-1.9295,-0.6395,-1.1120,-0.6069,2.1560,0.2833,
16.794455,-1.9295,-0.6395,-1.1120,-0.2799,0.6614,0.6442,
16.841384,-1.9295,-0.6395,-1.1120,-0.2799,0.6614,0.6442,
16.843304,-1.4059,-3.4682,0.3396,-0.2799,0.6614,0.6442,
16.860321,-1.4059,-3.4682,0.3396,0.6158,0.5290,-0.4808,
16.906613,-1.4059,-3.4682,0.3396,0.6158,0.5290,-0.4808,
16.908388,-1.8888,0.2424,1.5913,0.6158,0.5290,-0.4808,
16.926432,-1.8888,0.2424,1.5913,1.2996,-0.3059,-0.7269,
16.971524,-1.8888,0.2424,1.5913,1.2996,-0.3059,-0.7269,
16.973254,1.7566,3.3000,5.3192,1.2996,-0.3059,-0.7269,
16.991431,1.7566,3.3000,5.3192,-0.1907,-2.3013,1.4430,
17.038700,1.7566,3.3000,5.3192,-0.1907,-2.3013,1.4430,
17.040784,2.8981,-0.9618,-0.9435,-0.1907,-2.3013,1.4430,
17.056466,2.8981,-0.9618,-0.9435,2.8462,-0.1174,-1.4308,
17.103890,2.8981,-0.9618,-0.9435,2.8462,-0.1174,-1.4308,
17.105630,-0.6396,2.4268,-2.4812,2.8462,-0.1174,-1.4308,
17.121822,-0.6396,2.4268,-2.4812,-0.3364,-0.0699,-1.3244,
17.166995,-0.6396,2.4268,-2.4812,-0.3364,-0.0699,-1.3244,
17.167701,-2.3392,-2.2393,-0.7374,-0.3364,-0.0699,-1.3244,
17.188062,-2.3392,-2.2393,-0.7374,0.3238,0.7091,-0.3879,
17.233590,-2.3392,-2.2393,-0.7374,0.3238,0.7091,-0.3879,
17.234160,-1.7083,-0.1284,-0.7929,0.3238,0.7091,-0.3879,
17.253903,-1.7083,-0.1284,-0.7929,1.3781,0.0405,-0.0240,
17.298649,-1.7083,-0.1284,-0.7929,1.3781,0.0405,-0.0240,
17.299290,-0.8338,-0.0906,-1.2014,1.3781,0.0405,-0.0240,
17.318235,-0.8338,-0.0906,-1.2014,0.6862,-0.0524,0.0075,
17.364584,-0.8338,-0.0906,-1.2014,0.6862,-0.0524,0.0075,
17.366256,0.2586,0.0217,1.7657,0.6862,-0.0524,0.0075,
17.383765,0.2586,0.0217,1.7657,-0.2692,-1.7049,0.2750,
17.430753,0.2586,0.0217,1.7657,-0.2692,-1.7049,0.2750,
17.432552,0.6283,-1.0660,0.4489,-0.2692,-1.7049,0.2750,
17.450769,0.6283,-1.0660,0.4489,0.3871,-0.5412,-0.2724,
17.496187,0.6283,-1.0660,0.4489,0.3871,-0.5412,-0.2724,
17.497248,0.7160,-0.0523,0.8340,0.3871,-0.5412,-0.2724,
17.515064,0.7160,-0.0523,0.8340,0.9305,0.7740,-0.5342,
17.561361,0.7160,-0.0523,0.8340,0.9305,0.7740,-0.5342,
17.562280,0.9815,-0.6289,1.7119,0.9305,0.7740,-0.5342,
17.580567,0.9815,-0.6289,1.7119,0.6058,0.0449,-0.4215,
17.627859,0.9815,-0.6289,1.7119,0.6058,0.0449,-0.4215,
17.628783,2.0635,1.1044,0.8358,0.6058,0.0449,-0.4215,
17.648188,2.0635,1.1044,0.8358,0.0567,-0.2143,0.2433,
17.691971,2.0635,1.1044,0.8358,0.0567,-0.2143,0.2433,
17.692800,2.5872,2.0973,2.6240,0.0567,-0.2143,0.2433,
17.711592,2.5872,2.0973,2.6240,-0.8859,-1.1299,0.6252,
17.757866,2.5872,2.0973,2.6240,-0.8859,-1.1299,0.6252,
17.758553,0.8515,1.5621,-0.4000,-0.8859,-1.1299,0.6252,
17.776586,0.8515,1.5621,-0.4000,-1.7969,2.0256,0.9053,
17.822606,0.8515,1.5621,-0.4000,-1.7969,2.0256,0.9053,
17.823229,-1.1116,1.2512,-0.0288,-1.7969,2.0256,0.9053,
17.841958,-1.1116,1.2512,-0.0288,-1.0351,0.1649,0.7969,
17.888100,-1.1116,1.2512,-0.0288,-1.0351,0.1649,0.7969,
17.889158,-2.8149,2.7930,-2.7877,-1.0351,0.1649,0.7969,
17.907924,-2.8149,2.7930,-2.7877,-2.1434,-0.3341,0.5084,
17.953073,-2.8149,2.7930,-2.7877,-2.1434,-0.3341,0.5084,
17.953873,-3.1304,-1.5893,-1.4444,-2.1434,-0.3341,0.5084,
17.972730,-3.1304,-1.5893,-1.4444,-1.7248,0.0617,0.3670,
18.019163,-3.1304,-1.5893,-1.4444,-1.7248,0.0617,0.3670,
18.020322,-2.2027,-1.0923,-0.7837,-1.7248,0.0617,0.3670,
18.038647,-2.2027,-1.0923,-0.7837,-0.3734,1.0886,0.2735,
18.084233,-2.2027,-1.0923,-0.7837,-0.3734,1.0886,0.2735,
18.085227,-1.1268,-1.9385,-0.0764,-0.3734,1.0886,0.2735,
18.104561,-1.1268,-1.9385,-0.0764,0.2627,-0.2671,0.0945,
18.150157,-1.1268,-1.9385,-0.0764,0.2627,-0.2671,0.0945,
18.152040,-1.0950,-2.1479,-0.3947,0.2627,-0.2671,0.0945,
18.169630,-1.0950,-2.1479,-0.3947,1.1759,0.5458,-0.0325,
18.215224,-1.0950,-2.1479,-0.3947,1.1759,0.5458,-0.0325,
18.216783,3.0113,1.6812,4.0672,1.1759,0.5458,-0.0325,
18.235558,3.0113,1.6812,4.0672,0.0771,1.7481,0.1516,
18.281800,3.0113,1.6812,4.0672,0.0771,1.7481,0.1516,
18.283549,-0.8424,0.0185,4.7938,0.0771,1.7481,0.1516,
18.300446,-0.8424,0.0185,4.7938,0.9534,-1.3494,-0.0481,
18.346247,-0.8424,0.0185,4.7938,0.9534,-1.3494,-0.0481,
18.347334,0.3163,3.0840,-3.9594,0.9534,-1.3494,-0.0481,
18.366436,0.3163,3.0840,-3.9594,1.2142,-0.0290,-1.1417,
18.411824,0.3163,3.0840,-3.9594,1.2142,-0.0290,-1.1417,
18.413746,-1.2782,-1.8886,-2.0697,1.2142,-0.0290,-1.1417,
18.432987,-1.2782,-1.8886,-2.0697,0.3716,-0.1617,-1.1666,
18.478605,-1.2782,-1.8886,-2.0697,0.3716,-0.1617,-1.1666,
18.480416,-1.7144,-1.1371,-2.4607,0.3716,-0.1617,-1.1666,
18.497348,-1.7144,-1.1371,-2.4607,0.5252,1.0017,-0.4467,
18.543957,-1.7144,-1.1371,-2.4607,0.5252,1.0017,-0.4467,
18.545367,0.4451,0.0152,-1.5661,0.5252,1.0017,-0.4467,
18.564182,0.4451,0.0152,-1.5661,1.1400,0.4152,-0.3558,
18.608837,0.4451,0.0152,-1.5661,1.1400,0.4152,-0.3558,
18.611242,0.7521,0.2283,0.8930,1.1400,0.4152,-0.3558,
18.628626,0.7521,0.2283,0.8930,-0.4540,0.0997,0.0702,
18.673240,0.7521,0.2283,0.8930,-0.4540,0.0997,0.0702,
18.675198,1.2577,-1.0207,2.5568,-0.4540,0.0997,0.0702,
18.694064,1.2577,-1.0207,2.5568,0.6930,0.3581,-0.0932,
18.738809,1.2577,-1.0207,2.5568,0.6930,0.3581,-0.0932,
18.740834,1.1025,-0.6797,0.7634,0.6930,0.3581,-0.0932,
18.759279,1.1025,-0.6797,0.7634,1.1709,1.6357,-0.4782,
18.804211,1.1025,-0.6797,0.7634,1.1709,1.6357,-0.4782,
18.805321,0.6678,-0.3375,0.3470,1.1709,1.6357,-0.4782,
18.824118,0.6678,-0.3375,0.3470,0.8106,0.9403,-0.4316,
18.870100,0.6678,-0.3375,0.3470,0.8106,0.9403,-0.4316,
18.871329,1.1579,0.5412,-0.3580,0.8106,0.9403,-0.4316,
18.890007,1.1579,0.5412,-0.3580,-0.2602,0.3125,0.2347,
18.935004,1.1579,0.5412,-0.3580,-0.2602,0.3125,0.2347,
18.935910,2.0378,0.6980,1.6648,-0.2602,0.3125,0.2347,
18.955129,2.0378,0.6980,1.6648,-1.7712,-0.4592,0.8488,
19.001426,2.0378,0.6980,1.6648,-1.7712,-0.4592,0.8488,
19.003141,2.8608,2.2472,-0.8391,-1.7712,-0.4592,0.8488,
19.021094,2.8608,2.2472,-0.8391,-1.7237,1.1157,0.8610,
19.067539,2.8608,2.2472,-0.8391,-1.7237,1.1157,0.8610,
19.069106,-0.4412,-0.0377,-0.2137,-1.7237,1.1157,0.8610,
19.086342,-0.4412,-0.0377,-0.2137,-1.0974,1.1295,1.1912,
19.131512,-0.4412,-0.0377,-0.2137,-1.0974,1.1295,1.1912,
19.133050,0.5006,1.4084,-2.6831,-1.0974,1.1295,1.1912,
19.152335,0.5006,1.4084,-2.6831,-0.5475,1.1861,1.2920,
19.198182,0.5006,1.4084,-2.6831,-0.5475,1.1861,1.2920,
19.200540,-1.6499,-0.2678,-1.9201,-0.5475,1.1861,1.2920,
19.217961,-1.6499,-0.2678,-1.9201,0.0625,1.8566,0.4143,
19.263293,-1.6499,-0.2678,-1.9201,0.0625,1.8566,0.4143,
19.264340,-2.5425,0.0814,-1.8654,0.0625,1.8566,0.4143,
19.284402,-2.5425,0.0814,-1.8654,0.5504,1.1782,0.8476,
19.329110,-2.5425,0.0814,-1.8654,0.5504,1.1782,0.8476,
19.330606,-1.7715,-1.0331,-1.5130,0.5504,1.1782,0.8476,
19.348387,-1.7715,-1.0331,-1.5130,0.7219,1.2558,0.1020,
19.394410,-1.7715,-1.0331,-1.5130,0.7219,1.2558,0.1020,
19.396124,-2.0456,-1.3535,-0.8060,0.7219,1.2558,0.1020,
19.414117,-2.0456,-1.3535,-0.8060,0.3567,1.4975,-0.5599,
19.459908,-2.0456,-1.3535,-0.8060,0.3567,1.4975,-0.5599,
19.461421,-1.0352,0.4233,2.9437,0.3567,1.4975,-0.5599,
19.479461,-1.0352,0.4233,2.9437,0.2124,0.2682,0.1996,
19.525022,-1.0352,0.4233,2.9437,0.2124,0.2682,0.1996,
19.529906,3.4541,1.5961,4.0591,0.2124,0.2682,0.1996,
19.546404,3.4541,1.5961,4.0591,0.8552,-0.9484,1.1043,
19.591485,3.4541,1.5961,4.0591,0.8552,-0.9484,1.1043,
19.593149,2.9413,0.6724,-2.4328,0.8552,-0.9484,1.1043,
19.611719,2.9413,0.6724,-2.4328,2.5882,1.5223,-1.3324,
19.655959,2.9413,0.6724,-2.4328,2.5882,1.5223,-1.3324,
19.657501,-1.3295,-0.0192,-2.0369,2.5882,1.5223,-1.3324,
19.677153,-1.3295,-0.0192,-2.0369,-0.5029,-0.0429,-1.4725,
19.722250,-1.3295,-0.0192,-2.0369,-0.5029,-0.0429,-1.4725,
19.723541,-3.1732,-0.9644,-1.8210,-0.5029,-0.0429,-1.4725,
19.741778,-3.1732,-0.9644,-1.8210,0.8393,1.1435,-0.1776,
19.787060,-3.1732,-0.9644,-1.8210,0.8393,1.1435,-0.1776,
19.788793,-1.5116,-0.3787,-2.1465,0.8393,1.1435,-0.1776,
19.807307,-1.5116,-0.3787,-2.1465,1.4484,0.2966,-0.0356,
19.852728,-1.5116,-0.3787,-2.1465,1.4484,0.2966,-0.0356,
19.854567,-0.9116,-0.2609,-0.7681,1.4484,0.2966,-0.0356,
19.873753,-0.9116,-0.2609,-0.7681,0.2334,-0.5191,0.0764,
19.917180,-0.9116,-0.2609,-0.7681,0.2334,-0.5191,0.0764,
19.918806,0.2071,-0.1216,1.3126,0.2334,-0.5191,0.0764,
19.937317,0.2071,-0.1216,1.3126,0.0832,-2.1191,0.3717,
19.983123,0.2071,-0.1216,1.3126,0.0832,-2.1191,0.3717,
19.984609,0.7528,-1.2782,-0.5103,0.0832,-2.1191,0.3717,
20.003127,0.7528,-1.2782,-0.5103,0.6503,-0.1698,-0.5133,
20.048652,0.7528,-1.2782,-0.5103,0.6503,-0.1698,-0.5133,
20.050221,0.7421,-0.2540,0.6400,0.6503,-0.1698,-0.5133,
20.068671,0.7421,-0.2540,0.6400,0.9337,0.4760,-0.6083,
20.113447,0.7421,-0.2540,0.6400,0.9337,0.4760,-0.6083,
20.114560,1.1732,0.3420,1.3747,0.9337,0.4760,-0.6083,
20.133906,1.1732,0.3420,1.3747,0.3720,-0.2769,-0.2621,
20.180426,1.1732,0.3420,1.3747,0.3720,-0.2769,-0.2621,
20.183347,2.2665,0.9371,0.1793,0.3720,-0.2769,-0.2621,
20.199892,2.2665,0.9371,0.1793,-0.1319,0.0367,0.3202,
20.245176,2.2665,0.9371,0.1793,-0.1319,0.0367,0.3202,
20.246558,3.0332,1.5813,1.7856,-0.1319,0.0367,0.3202,
20.265503,3.0332,1.5813,1.7856,-1.2979,-0.5107,0.8448,
20.311403,3.0332,1.5813,1.7856,-1.2979,-0.5107,0.8448,
20.312966,-0.8204,0.2153,-0.2022,-1.2979,-0.5107,0.8448,
20.331614,-0.8204,0.2153,-0.2022,-1.9786,1.2087,1.1846,
20.376702,-0.8204,0.2153,-0.2022,-1.9786,1.2087,1.1846,
20.378120,-1.0654,2.7417,-1.6826,-1.9786,1.2087,1.1846,
20.398646,-1.0654,2.7417,-1.6826,-1.2839,0.3167,0.7523,
20.441816,-1.0654,2.7417,-1.6826,-1.2839,0.3167,0.7523,
20.442356,-2.0444,0.4968,-2.1910,-1.2839,0.3167,0.7523,
20.462602,-2.0444,0.4968,-2.1910,-1.8089,-0.0029,0.5814,
20.506474,-2.0444,0.4968,-2.1910,-1.8089,-0.0029,0.5814,
20.507579,-2.9280,-1.1759,-1.6143,-1.8089,-0.0029,0.5814,
20.526546,-2.9280,-1.1759,-1.6143,-0.8328,1.1131,0.2993,
20.573344,-2.9280,-1.1759,-1.6143,-0.8328,1.1131,0.2993,
20.573979,-2.5034,-0.8258,-0.5761,-0.8328,1.1131,0.2993,
20.591905,-2.5034,-0.8258,-0.5761,0.1100,0.2083,0.2615,
20.638831,-2.5034,-0.8258,-0.5761,0.1100,0.2083,0.2615,
20.639466,-2.1041,-1.4987,-1.1857,0.1100,0.2083,0.2615,
20.659215,-2.1041,-1.4987,-1.1857,0.5493,-0.0338,0.0096,
20.705880,-2.1041,-1.4987,-1.1857,0.5493,-0.0338,0.0096,
20.707921,-0.5121,-0.3206,-0.2359,0.5493,-0.0338,0.0096,
20.723572,-0.5121,-0.3206,-0.2359,1.0754,0.2411,-0.4223,
20.770531,-0.5121,-0.3206,-0.2359,1.0754,0.2411,-0.4223,
20.772373,0.2760,2.4857,3.5451,1.0754,0.2411,-0.4223,
20.789394,0.2760,2.4857,3.5451,-0.4919,-1.2304,0.3048,
20.835529,0.2760,2.4857,3.5451,-0.4919,-1.2304,0.3048,
20.837073,2.7009,-0.8468,3.4269,-0.4919,-1.2304,0.3048,
20.855265,2.7009,-0.8468,3.4269,1.0150,-1.5308,0.1892,
20.901285,2.7009,-0.8468,3.4269,1.0150,-1.5308,0.1892,
20.903273,1.2284,1.6455,-2.6539,1.0150,-1.5308,0.1892,
20.920475,1.2284,1.6455,-2.6539,1.6568,0.6413,-1.4421,
20.965585,1.2284,1.6455,-2.6539,1.6568,0.6413,-1.4421,
20.966598,-3.3937,-1.4203,-1.6031,1.6568,0.6413,-1.4421,
20.986142,-3.3937,-1.4203,-1.6031,-0.3911,0.4291,-1.0105,
21.030425,-3.3937,-1.4203,-1.6031,-0.3911,0.4291,-1.0105,
21.031281,-3.9047,0.9294,-0.1785,-0.3911,0.4291,-1.0105,
21.051241,-3.9047,0.9294,-0.1785,0.8019,-0.0608,0.1220,
21.096966,-3.9047,0.9294,-0.1785,0.8019,-0.0608,0.1220,
21.097874,-1.5749,-1.1983,0.0660,0.8019,-0.0608,0.1220,
21.116440,-1.5749,-1.1983,0.0660,0.2433,-1.5386,0.5867,
21.162679,-1.5749,-1.1983,0.0660,0.2433,-1.5386,0.5867,
21.164081,-0.2278,-0.0483,-1.1875,0.2433,-1.5386,0.5867,
21.181596,-0.2278,-0.0483,-1.1875,0.1695,-1.1545,0.0105,
21.228114,-0.2278,-0.0483,-1.1875,0.1695,-1.1545,0.0105,
21.229167,0.0421,-0.8568,0.1227,0.1695,-1.1545,0.0105,
21.247235,0.0421,-0.8568,0.1227,0.5557,-0.5423,-0.4094,
21.293447,0.0421,-0.8568,0.1227,0.5557,-0.5423,-0.4094,
21.294726,0.3592,0.1821,1.4499,0.5557,-0.5423,-0.4094,
21.312890,0.3592,0.1821,1.4499,0.6289,-0.6038,-0.5432,
21.358633,0.3592,0.1821,1.4499,0.6289,-0.6038,-0.5432,
21.359304,-0.2316,1.1794,0.4610,0.6289,-0.6038,-0.5432,
21.378512,-0.2316,1.1794,0.4610,0.3760,-0.2692,-0.1600,
21.425035,-0.2316,1.1794,0.4610,0.3760,-0.2692,-0.1600,
21.427064,1.2246,0.6103,1.1102,0.3760,-0.2692,-0.1600,
21.445108,1.2246,0.6103,1.1102,-0.6026,-1.5295,0.3873,
21.490850,1.2246,0.6103,1.1102,-0.6026,-1.5295,0.3873,
21.492600,5.3138,0.8877,0.9478,-0.6026,-1.5295,0.3873,
21.509558,5.3138,0.8877,0.9478,-1.7297,-2.1910,0.8286,
21.555906,5.3138,0.8877,0.9478,-1.7297,-2.1910,0.8286,
21.557621,0.0585,-0.1046,1.8134,-1.7297,-2.1910,0.8286,
21.575343,0.0585,-0.1046,1.8134,-1.5029,0.0878,1.0124,
21.621845,0.0585,-0.1046,1.8134,-1.5029,0.0878,1.0124,
21.623742,-1.2800,2.8533,-0.2593,-1.5029,0.0878,1.0124,
21.641921,-1.2800,2.8533,-0.2593,-0.4339,2.1182,0.6584,
21.685780,-1.2800,2.8533,-0.2593,-0.4339,2.1182,0.6584,
21.687552,-2.6674,1.5998,-1.3783,-0.4339,2.1182,0.6584,
21.706056,-2.6674,1.5998,-1.3783,-1.5716,-0.2746,0.1448,
21.752500,-2.6674,1.5998,-1.3783,-1.5716,-0.2746,0.1448,
21.754259,-3.6975,-0.6085,-1.1848,-1.5716,-0.2746,0.1448,
21.773226,-3.6975,-0.6085,-1.1848,-1.9175,-1.7553,0.4427,
21.818220,-3.6975,-0.6085,-1.1848,-1.9175,-1.7553,0.4427,
21.819867,-2.5913,-2.1546,-0.6034,-1.9175,-1.7553,0.4427,
21.836489,-2.5913,-2.1546,-0.6034,-0.0455,0.9899,-0.4201,
21.882674,-2.5913,-2.1546,-0.6034,-0.0455,0.9899,-0.4201,
21.883431,-1.9681,-2.1295,-0.2664,-0.0455,0.9899,-0.4201,
21.902745,-1.9681,-2.1295,-0.2664,0.5841,0.0325,0.0866,
21.947315,-1.9681,-2.1295,-0.2664,0.5841,0.0325,0.0866,
21.947945,1.0200,-1.0793,1.0982,0.5841,0.0325,0.0866,
21.969122,1.0200,-1.0793,1.0982,0.5315,0.5724,0.1316,
22.014081,1.0200,-1.0793,1.0982,0.5315,0.5724,0.1316,
22.015428,4.7715,2.2371,4.6229,0.5315,0.5724,0.1316,
22.034627,4.7715,2.2371,4.6229,0.2761,1.2538,0.6967,
22.079761,4.7715,2.2371,4.6229,0.2761,1.2538,0.6967,
22.081126,-0.0105,1.3955,1.0574,0.2761,1.2538,0.6967,
22.099246,-0.0105,1.3955,1.0574,0.5162,-0.1981,-0.7216,
22.144920,-0.0105,1.3955,1.0574,0.5162,-0.1981,-0.7216,
22.146266,-2.5788,-0.3696,-1.2400,0.5162,-0.1981,-0.7216,
22.164148,-2.5788,-0.3696,-1.2400,0.9497,-0.7066,-0.7372,
22.210361,-2.5788,-0.3696,-1.2400,0.9497,-0.7066,-0.7372,
22.212183,-2.5138,-0.1461,-2.9703,0.9497,-0.7066,-0.7372,
22.230330,-2.5138,-0.1461,-2.9703,0.6620,-0.1153,-1.1884,
22.275916,-2.5138,-0.1461,-2.9703,0.6620,-0.1153,-1.1884,
22.276531,-1.6211,0.0849,-1.6036,0.6620,-0.1153,-1.1884,
22.296448,-1.6211,0.0849,-1.6036,0.7190,-0.0831,-0.1564,
22.341005,-1.6211,0.0849,-1.6036,0.7190,-0.0831,-0.1564,
22.342252,0.5271,-0.0885,0.5497,0.7190,-0.0831,-0.1564,
22.360454,0.5271,-0.0885,0.5497,0.3629,-1.1448,-0.2141,
22.406657,0.5271,-0.0885,0.5497,0.3629,-1.1448,-0.2141,
22.407185,0.7816,-1.1461,-0.2040,0.3629,-1.1448,-0.2141,
22.426209,0.7816,-1.1461,-0.2040,0.8445,0.4971,-0.4247,
22.472410,0.7816,-1.1461,-0.2040,0.8445,0.4971,-0.4247,
22.473452,0.5138,-0.7299,0.4366,0.8445,0.4971,-0.4247,
22.492592,0.5138,-0.7299,0.4366,0.7892,0.4076,-0.5044,
22.538356,0.5138,-0.7299,0.4366,0.7892,0.4076,-0.5044,
22.540342,0.6476,0.1137,0.9127,0.7892,0.4076,-0.5044,
22.557331,0.6476,0.1137,0.9127,0.6122,-0.3499,-0.4307,
22.604330,0.6476,0.1137,0.9127,0.6122,-0.3499,-0.4307,
22.606099,1.4068,-0.8413,1.6085,0.6122,-0.3499,-0.4307,
22.624937,1.4068,-0.8413,1.6085,-0.0009,-0.9749,-0.2479,
22.669206,1.4068,-0.8413,1.6085,-0.0009,-0.9749,-0.2479,
22.671282,3.0840,2.2999,1.6964,-0.0009,-0.9749,-0.2479,
22.688446,3.0840,2.2999,1.6964,-0.6550,-0.0121,0.8537,
22.733555,3.0840,2.2999,1.6964,-0.6550,-0.0121,0.8537,
22.735578,1.7324,1.2324,0.0555,-0.6550,-0.0121,0.8537,
22.753857,1.7324,1.2324,0.0555,-1.9928,0.8754,0.8657,
22.798829,1.7324,1.2324,0.0555,-1.9928,0.8754,0.8657,
22.800542,-0.7592,1.6917,-1.3900,-1.9928,0.8754,0.8657,
22.818608,-0.7592,1.6917,-1.3900,-1.0905,2.0553,1.3990,
22.864610,-0.7592,1.6917,-1.3900,-1.0905,2.0553,1.3990,
22.866184,-0.4452,3.0102,-2.8691,-1.0905,2.0553,1.3990,
22.884273,-0.4452,3.0102,-2.8691,-1.7020,-0.8297,1.1020,
22.929226,-0.4452,3.0102,-2.8691,-1.7020,-0.8297,1.1020,
22.930507,-2.2170,-2.1120,-2.5115,-1.7020,-0.8297,1.1020,
22.950582,-2.2170,-2.1120,-2.5115,-0.9656,0.4297,0.8286,
22.996355,-2.2170,-2.1120,-2.5115,-0.9656,0.4297,0.8286,
22.997569,-1.1833,-1.3110,-0.6283,-0.9656,0.4297,0.8286,
23.015610,-1.1833,-1.3110,-0.6283,1.2364,1.8608,0.8937,
23.061523,-1.1833,-1.3110,-0.6283,1.2364,1.8608,0.8937,
23.062037,-1.1764,-1.7033,-2.0060,1.2364,1.8608,0.8937,
23.081002,-1.1764,-1.7033,-2.0060,1.3899,0.9847,0.0866,
23.126493,-1.1764,-1.7033,-2.0060,1.3899,0.9847,0.0866,
23.128040,-0.6975,-0.5693,-0.0956,1.3899,0.9847,0.0866,
23.146242,-0.6975,-0.5693,-0.0956,0.8573,2.2113,-0.2511,
23.191728,-0.6975,-0.5693,-0.0956,0.8573,2.2113,-0.2511,
23.192342,0.3810,3.1344,3.5643,0.8573,2.2113,-0.2511,
23.210762,0.3810,3.1344,3.5643,0.1228,1.4580,0.0024,
23.258686,0.3810,3.1344,3.5643,0.1228,1.4580,0.0024,
23.259320,1.0746,-0.3489,-1.5204,0.1228,1.4580,0.0024,
23.276682,1.0746,-0.3489,-1.5204,1.6817,1.1669,0.9085,
23.322959,1.0746,-0.3489,-1.5204,1.6817,1.1669,0.9085,
23.324330,2.3051,1.2785,-2.4234,1.6817,1.1669,0.9085,
23.343247,2.3051,1.2785,-2.4234,-0.3120,-0.5212,-0.4885,
23.388400,2.3051,1.2785,-2.4234,-0.3120,-0.5212,-0.4885,
23.389489,-3.2648,1.0183,-0.5756,-0.3120,-0.5212,-0.4885,
23.408115,-3.2648,1.0183,-0.5756,0.8525,0.8879,-0.7599,
23.453198,-3.2648,1.0183,-0.5756,0.8525,0.8879,-0.7599,
23.454427,-1.3673,0.0029,-2.8054,0.8525,0.8879,-0.7599,
23.473260,-1.3673,0.0029,-2.8054,1.4687,1.8770,-0.5212,
23.518745,-1.3673,0.0029,-2.8054,1.4687,1.8770,-0.5212,
23.520190,-0.5506,0.4695,-0.2453,1.4687,1.8770,-0.5212,
23.538943,-0.5506,0.4695,-0.2453,0.7660,0.0693,-0.1486,
23.584804,-0.5506,0.4695,-0.2453,0.7660,0.0693,-0.1486,
23.585957,0.2322,-1.0216,-0.4724,0.7660,0.0693,-0.1486,
23.606115,0.2322,-1.0216,-0.4724,0.8534,0.0312,-0.3294,
23.650681,0.2322,-1.0216,-0.4724,0.8534,0.0312,-0.3294,
23.651446,0.3563,-0.6839,-0.0313,0.8534,0.0312,-0.3294,
23.670796,0.3563,-0.6839,-0.0313,0.8632,0.1759,-0.4293,
23.715120,0.3563,-0.6839,-0.0313,0.8632,0.1759,-0.4293,
23.716236,0.2933,-0.5909,0.5482,0.8632,0.1759,-0.4293,
23.734515,0.2933,-0.5909,0.5482,0.6301,-0.0191,-0.3813,
23.780633,0.2933,-0.5909,0.5482,0.6301,-0.0191,-0.3813,
23.781735,0.2033,-0.3499,1.1029,0.6301,-0.0191,-0.3813,
23.800384,0.2033,-0.3499,1.1029,0.2094,-0.6144,-0.4319,
23.845938,0.2033,-0.3499,1.1029,0.2094,-0.6144,-0.4319,
23.846971,1.8775,0.0367,0.8680,0.2094,-0.6144,-0.4319,
23.866142,1.8775,0.0367,0.8680,-0.1054,-0.6104,-0.1098,
23.911646,1.8775,0.0367,0.8680,-0.1054,-0.6104,-0.1098,
23.912373,3.6537,0.7309,0.6242,-0.1054,-0.6104,-0.1098,
23.932130,3.6537,0.7309,0.6242,-0.9413,-0.0278,0.5345,
23.977754,3.6537,0.7309,0.6242,-0.9413,-0.0278,0.5345,
23.979143,2.8504,1.6553,-1.2482,-0.9413,-0.0278,0.5345,
23.997351,2.8504,1.6553,-1.2482,-1.8103,2.0757,0.6570,
24.042926,2.8504,1.6553,-1.2482,-1.8103,2.0757,0.6570,
24.043538,-0.6226,0.3616,-1.0959,-1.8103,2.0757,0.6570,
24.062034,-0.6226,0.3616,-1.0959,-0.5214,2.7516,1.0705,
24.107707,-0.6226,0.3616,-1.0959,-0.5214,2.7516,1.0705,
24.108996,0.5321,2.6035,-3.3953,-0.5214,2.7516,1.0705,
24.127885,0.5321,2.6035,-3.3953,-0.4446,0.4928,0.7034,
24.174356,0.5321,2.6035,-3.3953,-0.4446,0.4928,0.7034,
24.175499,-1.8355,-1.1051,-3.0254,-0.4446,0.4928,0.7034,
24.193570,-1.8355,-1.1051,-3.0254,-0.9774,0.8383,0.7019,
24.239534,-1.8355,-1.1051,-3.0254,-0.9774,0.8383,0.7019,
24.240815,-1.5187,-1.1278,-1.0980,-0.9774,0.8383,0.7019,
24.258797,-1.5187,-1.1278,-1.0980,0.7025,1.9983,0.5643,
24.304876,-1.5187,-1.1278,-1.0980,0.7025,1.9983,0.5643,
24.306790,-1.3139,-0.7477,-1.5642,0.7025,1.9983,0.5643,
24.324568,-1.3139,-0.7477,-1.5642,0.8386,1.1115,0.3485,
24.370678,-1.3139,-0.7477,-1.5642,0.8386,1.1115,0.3485,
24.372806,-0.9035,-1.4702,-0.7001,0.8386,1.1115,0.3485,
24.391527,-0.9035,-1.4702,-0.7001,0.7194,1.5690,-0.1359,
24.436089,-0.9035,-1.4702,-0.7001,0.7194,1.5690,-0.1359,
24.436755,-0.7022,1.6094,1.8981,0.7194,1.5690,-0.1359,
24.456330,-0.7022,1.6094,1.8981,-0.0644,1.1051,-0.1084,
24.501506,-0.7022,1.6094,1.8981,-0.0644,1.1051,-0.1084,
24.503133,0.2940,1.2033,3.7962,-0.0644,1.1051,-0.1084,
24.521167,0.2940,1.2033,3.7962,0.7347,-1.9433,0.9646,
24.566234,0.2940,1.2033,3.7962,0.7347,-1.9433,0.9646,
24.567413,1.8269,1.3781,-3.5763,0.7347,-1.9433,0.9646,
24.586080,1.8269,1.3781,-3.5763,0.7709,-0.0866,0.3109,
24.631423,1.8269,1.3781,-3.5763,0.7709,-0.0866,0.3109,
24.632375,-0.2716,-0.5851,-1.9637,0.7709,-0.0866,0.3109,
24.651621,-0.2716,-0.5851,-1.9637,0.3319,-0.2382,-1.2491,
24.697370,-0.2716,-0.5851,-1.9637,0.3319,-0.2382,-1.2491,
24.698355,-2.6634,0.6268,-2.2188,0.3319,-0.2382,-1.2491,
24.717102,-2.6634,0.6268,-2.2188,0.8745,1.1342,-0.6187,
24.762547,-2.6634,0.6268,-2.2188,0.8745,1.1342,-0.6187,
24.763544,-0.1975,0.0246,-0.8354,0.8745,1.1342,-0.6187,
24.782537,-0.1975,0.0246,-0.8354,0.3176,-0.0118,-0.2970,
24.827875,-0.1975,0.0246,-0.8354,0.3176,-0.0118,-0.2970,
24.828938,0.2015,-0.5188,-0.5684,0.3176,-0.0118,-0.2970,
24.847865,0.2015,-0.5188,-0.5684,0.3757,-0.3422,-0.0759,
24.893514,0.2015,-0.5188,-0.5684,0.3757,-0.3422,-0.0759,
24.895152,0.9474,-0.7542,0.0045,0.3757,-0.3422,-0.0759,
24.913307,0.9474,-0.7542,0.0045,0.4943,0.3963,-0.3176,
24.959373,0.9474,-0.7542,0.0045,0.4943,0.3963,-0.3176,
24.960396,1.2642,-0.9778,-0.0110,0.4943,0.3963,-0.3176,
24.979666,1.2642,-0.9778,-0.0110,0.5658,0.3056,-0.4470,
25.026083,1.2642,-0.9778,-0.0110,0.5658,0.3056,-0.4470,
25.027082,1.8729,-0.4408,-0.1484,0.5658,0.3056,-0.4470,
25.045648,1.8729,-0.4408,-0.1484,0.6461,0.5869,-0.5499,
25.090754,1.8729,-0.4408,-0.1484,0.6461,0.5869,-0.5499,
25.091891,1.9470,-0.3901,-0.4542,0.6461,0.5869,-0.5499,
25.110684,1.9470,-0.3901,-0.4542,0.8181,1.0861,-0.4507,
25.155854,1.9470,-0.3901,-0.4542,0.8181,1.0861,-0.4507,
25.157476,2.4199,0.1171,0.1071,0.8181,1.0861,-0.4507,
25.176213,2.4199,0.1171,0.1071,0.7865,0.7885,-0.4577,
25.221597,2.4199,0.1171,0.1071,0.7865,0.7885,-0.4577,
25.223842,2.9640,1.7045,0.9148,0.7865,0.7885,-0.4577,
25.241821,2.9640,1.7045,0.9148,-0.4340,0.6277,0.2508,
25.287689,2.9640,1.7045,0.9148,-0.4340,0.6277,0.2508,
25.288721,2.6115,-0.1139,0.7212,-0.4340,0.6277,0.2508,
25.306345,2.6115,-0.1139,0.7212,-0.8606,1.8263,0.5664,
25.353961,2.6115,-0.1139,0.7212,-0.8606,1.8263,0.5664,
25.355041,0.1535,0.7907,-1.1992,-0.8606,1.8263,0.5664,
25.374408,0.1535,0.7907,-1.1992,-0.2422,1.0179,0.8977,
25.418489,0.1535,0.7907,-1.1992,-0.2422,1.0179,0.8977,
25.419684,-1.8170,2.4158,-4.3028,-0.2422,1.0179,0.8977,
25.438556,-1.8170,2.4158,-4.3028,-2.0301,0.3966,0.7563,
25.483829,-1.8170,2.4158,-4.3028,-2.0301,0.3966,0.7563,
25.485544,-2.6788,-0.7652,-1.9700,-2.0301,0.3966,0.7563,
25.503317,-2.6788,-0.7652,-1.9700,-1.4097,0.9397,0.6585,
25.548332,-2.6788,-0.7652,-1.9700,-1.4097,0.9397,0.6585,
25.549762,-1.9432,-0.8002,-1.1905,-1.4097,0.9397,0.6585,
25.568601,-1.9432,-0.8002,-1.1905,-0.2011,2.1008,0.4855,
25.614426,-1.9432,-0.8002,-1.1905,-0.2011,2.1008,0.4855,
25.616330,-1.0189,-0.9086,-0.6804,-0.2011,2.1008,0.4855,
25.634442,-1.0189,-0.9086,-0.6804,0.3241,0.0715,0.6170,
25.680335,-1.0189,-0.9086,-0.6804,0.3241,0.0715,0.6170,
25.681590,-0.6464,-2.0453,-1.6200,0.3241,0.0715,0.6170,
25.699663,-0.6464,-2.0453,-1.6200,0.6831,1.2691,-0.0356,
25.745862,-0.6464,-2.0453,-1.6200,0.6831,1.2691,-0.0356,
25.747089,0.4109,-0.0431,0.9519,0.6831,1.2691,-0.0356,
25.765830,0.4109,-0.0431,0.9519,0.0574,1.6952,-0.2318,
25.811648,0.4109,-0.0431,0.9519,0.0574,1.6952,-0.2318,
25.813029,1.0984,3.5636,6.0626,0.0574,1.6952,-0.2318,
25.830575,1.0984,3.5636,6.0626,0.4458,-1.0846,1.0183,
25.877938,1.0984,3.5636,6.0626,0.4458,-1.0846,1.0183,
25.879813,0.5522,1.4734,-2.7996,0.4458,-1.0846,1.0183,
25.897411,0.5522,1.4734,-2.7996,1.2106,-1.0817,0.3800,
25.942065,0.5522,1.4734,-2.7996,1.2106,-1.0817,0.3800,
25.943376,-0.9645,-1.3497,-2.7393,1.2106,-1.0817,0.3800,
25.961792,-0.9645,-1.3497,-2.7393,0.7130,0.1929,-1.5957,
26.007284,-0.9645,-1.3497,-2.7393,0.7130,0.1929,-1.5957,
26.008635,-2.4735,0.4429,-2.4190,0.7130,0.1929,-1.5957,
26.027667,-2.4735,0.4429,-2.4190,1.2191,0.8862,-0.4542,
26.072820,-2.4735,0.4429,-2.4190,1.2191,0.8862,-0.4542,
26.074378,-0.7122,-0.6963,-0.4490,1.2191,0.8862,-0.4542,
26.092668,-0.7122,-0.6963,-0.4490,0.6464,-0.3874,-0.3147,
26.137628,-0.7122,-0.6963,-0.4490,0.6464,-0.3874,-0.3147,
26.139141,0.1722,-0.2701,-0.5304,0.6464,-0.3874,-0.3147,
26.157708,0.1722,-0.2701,-0.5304,0.4678,-0.3653,-0.1136,
26.203595,0.1722,-0.2701,-0.5304,0.4678,-0.3653,-0.1136,
26.205196,0.7603,-1.1297,0.0062,0.4678,-0.3653,-0.1136,
26.223732,0.7603,-1.1297,0.0062,0.7149,-0.1067,-0.3239,
26.269133,0.7603,-1.1297,0.0062,0.7149,-0.1067,-0.3239,
26.269966,0.3851,-0.6262,0.3673,0.7149,-0.1067,-0.3239,
26.289382,0.3851,-0.6262,0.3673,0.6808,-0.1764,-0.4249,
26.334122,0.3851,-0.6262,0.3673,0.6808,-0.1764,-0.4249,
26.334646,0.5520,0.7547,0.5984,0.6808,-0.1764,-0.4249,
26.355573,0.5520,0.7547,0.5984,0.5284,-0.6423,-0.2503,
26.401744,0.5520,0.7547,0.5984,0.5284,-0.6423,-0.2503,
26.403550,1.8838,-0.1869,1.3121,0.5284,-0.6423,-0.2503,
26.420896,1.8838,-0.1869,1.3121,-0.2509,-1.4717,0.1791,
26.466778,1.8838,-0.1869,1.3121,-0.2509,-1.4717,0.1791,
26.468601,4.6347,1.7304,1.4985,-0.2509,-1.4717,0.1791,
26.487339,4.6347,1.7304,1.4985,-0.9705,-1.0269,0.8911,
26.531493,4.6347,1.7304,1.4985,-0.9705,-1.0269,0.8911,
26.533094,1.4126,0.7777,0.5559,-0.9705,-1.0269,0.8911,
26.551535,1.4126,0.7777,0.5559,-1.3807,1.1009,0.9449,
26.597647,1.4126,0.7777,0.5559,-1.3807,1.1009,0.9449,
26.599464,-0.5369,1.7137,-0.9529,-1.3807,1.1009,0.9449,
26.616926,-0.5369,1.7137,-0.9529,-0.4985,1.4200,0.9420,
26.663188,-0.5369,1.7137,-0.9529,-0.4985,1.4200,0.9420,
26.664843,-1.9452,3.3851,-3.6192,-0.4985,1.4200,0.9420,
26.683580,-1.9452,3.3851,-3.6192,-1.9218,0.7344,0.2364,
26.727306,-1.9452,3.3851,-3.6192,-1.9218,0.7344,0.2364,
26.728536,-3.0504,-0.7242,-1.9783,-1.9218,0.7344,0.2364,
26.748627,-3.0504,-0.7242,-1.9783,-1.9398,-0.0701,0.3286,
26.794781,-3.0504,-0.7242,-1.9783,-1.9398,-0.0701,0.3286,
26.795781,-2.3523,-1.7472,-1.1876,-1.9398,-0.0701,0.3286,
26.813100,-2.3523,-1.7472,-1.1876,-0.6408,0.5805,-0.0985,
26.859633,-2.3523,-1.7472,-1.1876,-0.6408,0.5805,-0.0985,
26.861335,-2.0364,-2.1202,-1.6296,-0.6408,0.5805,-0.0985,
26.879407,-2.0364,-2.1202,-1.6296,0.1159,0.3323,0.2422,
26.924612,-2.0364,-2.1202,-1.6296,0.1159,0.3323,0.2422,
26.926219,0.1946,0.1611,-0.4793,0.1159,0.3323,0.2422,
26.945025,0.1946,0.1611,-0.4793,-0.3998,1.1745,0.7992,
26.990309,0.1946,0.1611,-0.4793,-0.3998,1.1745,0.7992,
26.992047,1.2042,-0.4118,5.2336,-0.3998,1.1745,0.7992,
27.010220,1.2042,-0.4118,5.2336,1.1495,-1.0747,0.0753,
27.055197,1.2042,-0.4118,5.2336,1.1495,-1.0747,0.0753,
27.056777,0.0066,-0.6380,0.1304,1.1495,-1.0747,0.0753,
27.074763,0.0066,-0.6380,0.1304,0.8829,-0.3821,-0.5292,
27.121124,0.0066,-0.6380,0.1304,0.8829,-0.3821,-0.5292,
27.123284,-0.0394,3.8551,-0.2974,0.8829,-0.3821,-0.5292,
27.140041,-0.0394,3.8551,-0.2974,0.8657,-2.1516,-0.8131,
27.187167,-0.0394,3.8551,-0.2974,0.8657,-2.1516,-0.8131,
27.188766,-1.1067,-1.6458,-2.3201,0.8657,-2.1516,-0.8131,
27.205528,-1.1067,-1.6458,-2.3201,0.9609,0.6548,-0.7663,
27.252710,-1.1067,-1.6458,-2.3201,0.9609,0.6548,-0.7663,
27.254419,0.3445,-0.3242,-2.4927,0.9609,0.6548,-0.7663,
27.272508,0.3445,-0.3242,-2.4927,1.4027,1.6017,-0.5539,
27.317449,0.3445,-0.3242,-2.4927,1.4027,1.6017,-0.5539,
27.318680,-0.8985,0.0478,0.2522,1.4027,1.6017,-0.5539,
27.337513,-0.8985,0.0478,0.2522,0.7007,-0.2906,0.0249,
27.384174,-0.8985,0.0478,0.2522,0.7007,-0.2906,0.0249,
27.385409,0.3528,-0.9044,-0.7380,0.7007,-0.2906,0.0249,
27.403416,0.3528,-0.9044,-0.7380,0.7515,0.1077,-0.0412,
27.448594,0.3528,-0.9044,-0.7380,0.7515,0.1077,-0.0412,
27.450398,0.0175,-0.8147,0.4083,0.7515,0.1077,-0.0412,
27.469513,0.0175,-0.8147,0.4083,0.7729,0.0849,-0.2361,
27.514309,0.0175,-0.8147,0.4083,0.7729,0.0849,-0.2361,
27.516043,0.0613,-0.3487,0.5634,0.7729,0.0849,-0.2361,
27.534241,0.0613,-0.3487,0.5634,0.6680,-0.1179,-0.4181,
27.579430,0.0613,-0.3487,0.5634,0.6680,-0.1179,-0.4181,
27.581282,1.0238,0.5593,0.9871,0.6680,-0.1179,-0.4181,
27.600701,1.0238,0.5593,0.9871,0.6017,-0.6232,-0.3186,
27.644966,1.0238,0.5593,0.9871,0.6017,-0.6232,-0.3186,
27.646612,3.1040,0.3404,1.4475,0.6017,-0.6232,-0.3186,
27.666494,3.1040,0.3404,1.4475,-0.2263,-0.9386,0.2524,
27.711538,3.1040,0.3404,1.4475,-0.2263,-0.9386,0.2524,
27.713057,3.6909,3.1170,0.4538,-0.2263,-0.9386,0.2524,
27.730713,3.6909,3.1170,0.4538,-1.0171,0.1900,0.7453,
27.776548,3.6909,3.1170,0.4538,-1.0171,0.1900,0.7453,
27.777628,-0.0546,0.4525,0.5004,-1.0171,0.1900,0.7453,
27.796350,-0.0546,0.4525,0.5004,-1.6125,1.4665,0.4346,
27.842256,-0.0546,0.4525,0.5004,-1.6125,1.4665,0.4346,
27.843665,-0.5545,3.9600,-2.4519,-1.6125,1.4665,0.4346,
27.861427,-0.5545,3.9600,-2.4519,-1.0476,0.2466,0.7236,
27.907265,-0.5545,3.9600,-2.4519,-1.0476,0.2466,0.7236,
27.908795,-2.4037,0.5385,-3.1868,-1.0476,0.2466,0.7236,
27.927372,-2.4037,0.5385,-3.1868,-2.6994,-0.5782,0.2932,
27.972241,-2.4037,0.5385,-3.1868,-2.6994,-0.5782,0.2932,
27.974125,-2.8614,-1.7723,-1.8226,-2.6994,-0.5782,0.2932,
27.992070,-2.8614,-1.7723,-1.8226,-1.7941,-0.2353,0.1984,
28.038221,-2.8614,-1.7723,-1.8226,-1.7941,-0.2353,0.1984,
28.040232,-1.7449,-2.0497,-1.0777,-1.7941,-0.2353,0.1984,
28.060959,-1.7449,-2.0497,-1.0777,-0.1358,0.7167,0.2387,
28.102555,-1.7449,-2.0497,-1.0777,-0.1358,0.7167,0.2387,
28.105049,-1.0294,-1.8829,-1.5590,-0.1358,0.7167,0.2387,
28.123042,-1.0294,-1.8829,-1.5590,0.3184,0.0883,0.4580,
28.168633,-1.0294,-1.8829,-1.5590,0.3184,0.0883,0.4580,
28.170121,1.4962,-1.2044,1.1349,0.3184,0.0883,0.4580,
28.188778,1.4962,-1.2044,1.1349,0.9537,1.0922,0.5357,
28.234036,1.4962,-1.2044,1.1349,0.9537,1.0922,0.5357,
28.235954,3.3505,2.6146,4.1123,0.9537,1.0922,0.5357,
28.254031,3.3505,2.6146,4.1123,0.1727,1.2509,0.4325,
28.299611,3.3505,2.6146,4.1123,0.1727,1.2509,0.4325,
28.301362,-0.2533,-0.5790,0.8075,0.1727,1.2509,0.4325,
28.319659,-0.2533,-0.5790,0.8075,1.2130,0.1052,0.0930,
28.364708,-0.2533,-0.5790,0.8075,1.2130,0.1052,0.0930,
28.365756,-1.4645,0.6249,-2.5498,1.2130,0.1052,0.0930,
28.386020,-1.4645,0.6249,-2.5498,0.7905,-0.4143,-0.7388,
28.430335,-1.4645,0.6249,-2.5498,0.7905,-0.4143,-0.7388,
28.432045,-2.1012,0.4641,-2.7027,0.7905,-0.4143,-0.7388,
28.450062,-2.1012,0.4641,-2.7027,1.1009,0.3108,-0.7636,
28.496269,-2.1012,0.4641,-2.7027,1.1009,0.3108,-0.7636,
28.498048,-1.0878,-0.9117,-2.0265,1.1009,0.3108,-0.7636,
28.516539,-1.0878,-0.9117,-2.0265,1.2833,0.2946,-0.3940,
28.562032,-1.0878,-0.9117,-2.0265,1.2833,0.2946,-0.3940,
28.563813,0.3848,-0.6446,-0.4607,1.2833,0.2946,-0.3940,
28.582740,0.3848,-0.6446,-0.4607,0.5669,-0.7442,-0.1700,
28.627412,0.3848,-0.6446,-0.4607,0.5669,-0.7442,-0.1700,
28.629251,0.2542,-0.1842,-0.6396,0.5669,-0.7442,-0.1700,
28.647837,0.2542,-0.1842,-0.6396,0.4959,-0.6917,-0.0075,
28.694039,0.2542,-0.1842,-0.6396,0.4959,-0.6917,-0.0075,
28.695406,0.8600,-0.6928,-0.0804,0.4959,-0.6917,-0.0075,
28.715600,0.8600,-0.6928,-0.0804,0.5101,-0.5724,-0.1717,
28.757693,0.8600,-0.6928,-0.0804,0.5101,-0.5724,-0.1717,
28.759777,0.7419,-0.8152,0.4311,0.5101,-0.5724,-0.1717,
28.778252,0.7419,-0.8152,0.4311,0.5232,-0.6341,-0.4220,
28.824947,0.7419,-0.8152,0.4311,0.5232,-0.6341,-0.4220,
28.826507,1.0575,0.2326,0.7442,0.5232,-0.6341,-0.4220,
28.844118,1.0575,0.2326,0.7442,0.6080,-0.6666,-0.6274,
28.888776,1.0575,0.2326,0.7442,0.6080,-0.6666,-0.6274,
28.890469,2.3091,0.2727,0.8184,0.6080,-0.6666,-0.6274,
28.908353,2.3091,0.2727,0.8184,0.4165,-0.4635,-0.0490,
28.953990,2.3091,0.2727,0.8184,0.4165,-0.4635,-0.0490,
28.955902,4.4430,3.1547,0.9382,0.4165,-0.4635,-0.0490,
28.973845,4.4430,3.1547,0.9382,-0.6396,-0.3415,0.6171,
29.019623,4.4430,3.1547,0.9382,-0.6396,-0.3415,0.6171,
29.021321,0.2268,0.5783,0.6938,-0.6396,-0.3415,0.6171,
29.041056,0.2268,0.5783,0.6938,-1.9849,1.1605,0.3491,
29.085276,0.2268,0.5783,0.6938,-1.9849,1.1605,0.3491,
29.087185,-0.5295,1.9521,-1.6563,-1.9849,1.1605,0.3491,
29.104591,-0.5295,1.9521,-1.6563,-0.7078,0.6637,1.0808,
29.151160,-0.5295,1.9521,-1.6563,-0.7078,0.6637,1.0808,
29.152981,-1.4101,1.3816,-3.2457,-0.7078,0.6637,1.0808,
29.170552,-1.4101,1.3816,-3.2457,-2.5401,-0.2963,0.7117,
29.216534,-1.4101,1.3816,-3.2457,-2.5401,-0.2963,0.7117,
29.217575,-2.3329,-1.6573,-1.4781,-2.5401,-0.2963,0.7117,
29.235842,-2.3329,-1.6573,-1.4781,-1.9342,0.2159,0.2804,
29.283160,-2.3329,-1.6573,-1.4781,-1.9342,0.2159,0.2804,
29.284831,-1.8876,-1.6188,-0.8264,-1.9342,0.2159,0.2804,
29.301559,-1.8876,-1.6188,-0.8264,-0.3152,1.0305,0.4078,
29.348198,-1.8876,-1.6188,-0.8264,-0.3152,1.0305,0.4078,
29.349786,-1.2765,-1.9546,-1.5850,-0.3152,1.0305,0.4078,
29.367849,-1.2765,-1.9546,-1.5850,0.2833,0.3560,0.4122,
29.412854,-1.2765,-1.9546,-1.5850,0.2833,0.3560,0.4122,
29.414620,0.3644,-1.6503,0.0480,0.2833,0.3560,0.4122,
29.435121,0.3644,-1.6503,0.0480,0.6319,1.6953,0.2885,
29.480244,0.3644,-1.6503,0.0480,0.6319,1.6953,0.2885,
29.482267,2.8866,3.2907,4.7199,0.6319,1.6953,0.2885,
29.498552,2.8866,3.2907,4.7199,-0.3882,0.8357,0.7395,
29.544000,2.8866,3.2907,4.7199,-0.3882,0.8357,0.7395,
29.545718,-0.1360,-1.7500,1.5057,-0.3882,0.8357,0.7395,
29.563981,-0.1360,-1.7500,1.5057,1.1933,-0.2013,0.1628,
29.609688,-0.1360,-1.7500,1.5057,1.1933,-0.2013,0.1628,
29.611553,1.1518,2.8005,-1.6813,1.1933,-0.2013,0.1628,
29.629612,1.1518,2.8005,-1.6813,1.3902,-0.2117,-0.6509,
29.674524,1.1518,2.8005,-1.6813,1.3902,-0.2117,-0.6509,
29.676572,-2.1011,-1.0598,-2.5561,1.3902,-0.2117,-0.6509,
29.696367,-2.1011,-1.0598,-2.5561,0.9833,-0.1373,-0.9140,
29.740273,-2.1011,-1.0598,-2.5561,0.9833,-0.1373,-0.9140,
29.742010,-1.7813,-1.1623,-2.6210,0.9833,-0.1373,-0.9140,
29.761158,-1.7813,-1.1623,-2.6210,1.0420,0.7601,-0.2078,
29.806408,-1.7813,-1.1623,-2.6210,1.0420,0.7601,-0.2078,
29.807875,-0.0394,-0.8110,-1.0912,1.0420,0.7601,-0.2078,
29.824506,-0.0394,-0.8110,-1.0912,1.3289,0.1333,-0.4088,
29.870774,-0.0394,-0.8110,-1.0912,1.3289,0.1333,-0.4088,
29.871924,0.5589,-0.0837,0.5089,1.3289,0.1333,-0.4088,
29.891172,0.5589,-0.0837,0.5089,0.4029,-0.8841,0.1645,
29.937649,0.5589,-0.0837,0.5089,0.4029,-0.8841,0.1645,
29.939415,1.3235,-1.4076,-0.1413,0.4029,-0.8841,0.1645,
29.958278,1.3235,-1.4076,-0.1413,0.5939,-0.6315,-0.2275,
30.001336,1.3235,-1.4076,-0.1413,0.5939,-0.6315,-0.2275,
30.002205,0.8065,-0.6944,0.5945,0.5939,-0.6315,-0.2275,
30.022457,0.8065,-0.6944,0.5945,0.8987,-0.0736,-0.4676,
30.067620,0.8065,-0.6944,0.5945,0.8987,-0.0736,-0.4676,
30.069308,1.2697,0.1957,1.8459,0.8987,-0.0736,-0.4676,
30.088208,1.2697,0.1957,1.8459,0.3392,-0.4391,-0.4476,
30.133125,1.2697,0.1957,1.8459,0.3392,-0.4391,-0.4476,
30.134061,2.8599,0.5580,0.1760,0.3392,-0.4391,-0.4476,
30.152150,2.8599,0.5580,0.1760,0.1142,0.4094,-0.1101,
30.199341,2.8599,0.5580,0.1760,0.1142,0.4094,-0.1101,
30.200200,4.9321,3.0086,1.0929,0.1142,0.4094,-0.1101,
30.218470,4.9321,3.0086,1.0929,-0.5563,0.3151,0.1846,
30.265201,4.9321,3.0086,1.0929,-0.5563,0.3151,0.1846,
30.267254,-0.4748,0.3158,0.1049,-0.5563,0.3151,0.1846,
30.287105,-0.4748,0.3158,0.1049,-1.7755,1.2396,0.3080,
30.328704,-0.4748,0.3158,0.1049,-1.7755,1.2396,0.3080,
30.329807,-0.7499,2.2307,-2.7412,-1.7755,1.2396,0.3080,
30.349921,-0.7499,2.2307,-2.7412,-1.1829,0.5217,0.9991,
30.395322,-0.7499,2.2307,-2.7412,-1.1829,0.5217,0.9991,
30.396892,-1.5635,0.4441,-3.9151,-1.1829,0.5217,0.9991,
30.415414,-1.5635,0.4441,-3.9151,-2.1043,1.4959,0.5621,
30.462094,-1.5635,0.4441,-3.9151,-2.1043,1.4959,0.5621,
30.464200,-1.7285,-1.0456,-1.2997,-2.1043,1.4959,0.5621,
30.480936,-1.7285,-1.0456,-1.2997,-1.9053,0.0872,0.5409,
30.527191,-1.7285,-1.0456,-1.2997,-1.9053,0.0872,0.5409,
30.530430,-1.4994,-1.4768,-1.0183,-1.9053,0.0872,0.5409,
30.546192,-1.4994,-1.4768,-1.0183,0.1292,0.2498,0.6704,
30.591268,-1.4994,-1.4768,-1.0183,0.1292,0.2498,0.6704,
30.592826,-1.0279,-2.6075,-1.9909,0.1292,0.2498,0.6704,
30.611423,-1.0279,-2.6075,-1.9909,0.6590,1.2556,0.0735,
30.657046,-1.0279,-2.6075,-1.9909,0.6590,1.2556,0.0735,
30.658509,1.4543,-0.4138,1.9014,0.6590,1.2556,0.0735,
30.676728,1.4543,-0.4138,1.9014,0.7978,3.2063,0.1695,
30.722207,1.4543,-0.4138,1.9014,0.7978,3.2063,0.1695,
30.724160,1.7385,2.1184,6.2454,0.7978,3.2063,0.1695,
30.741695,1.7385,2.1184,6.2454,0.4919,0.6765,0.2882,
30.787432,1.7385,2.1184,6.2454,0.4919,0.6765,0.2882,
30.788954,-0.6463,-1.3092,-0.3989,0.4919,0.6765,0.2882,
30.807664,-0.6463,-1.3092,-0.3989,1.3835,-0.2896,-0.3798,
30.852694,-0.6463,-1.3092,-0.3989,1.3835,-0.2896,-0.3798,
30.853832,-1.5220,3.4456,-1.1015,1.3835,-0.2896,-0.3798,
30.873088,-1.5220,3.4456,-1.1015,0.6967,-0.6646,-0.5796,
30.917977,-1.5220,3.4456,-1.1015,0.6967,-0.6646,-0.5796,
30.919719,-0.6293,-1.5692,-4.2754,0.6967,-0.6646,-0.5796,
30.937935,-0.6293,-1.5692,-4.2754,1.0281,0.6206,-0.4349,
30.983960,-0.6293,-1.5692,-4.2754,1.0281,0.6206,-0.4349,
30.985693,1.1876,-0.6403,-2.4625,1.0281,0.6206,-0.4349,
31.004517,1.1876,-0.6403,-2.4625,1.7142,1.3978,-0.0719,
31.049640,1.1876,-0.6403,-2.4625,1.7142,1.3978,-0.0719,
31.052041,0.1273,-1.4602,0.3078,1.7142,1.3978,-0.0719,
31.069025,0.1273,-1.4602,0.3078,1.0427,-1.2440,-0.1000,
31.116532,0.1273,-1.4602,0.3078,1.0427,-1.2440,-0.1000,
31.118676,0.2657,0.0644,-0.4561,1.0427,-1.2440,-0.1000,
31.135130,0.2657,0.0644,-0.4561,0.3126,-1.1510,0.2621,
31.179829,0.2657,0.0644,-0.4561,0.3126,-1.1510,0.2621,
31.180839,1.0434,-1.0674,0.5433,0.3126,-1.1510,0.2621,
31.200675,1.0434,-1.0674,0.5433,0.5970,-0.6579,-0.1213,
31.245774,1.0434,-1.0674,0.5433,0.5970,-0.6579,-0.1213,
31.247610,1.3719,-0.3170,0.9158,0.5970,-0.6579,-0.1213,
31.267223,1.3719,-0.3170,0.9158,0.6807,-0.0925,-0.4024,
31.311785,1.3719,-0.3170,0.9158,0.6807,-0.0925,-0.4024,
31.313660,1.9850,-0.0949,1.4662,0.6807,-0.0925,-0.4024,
31.331338,1.9850,-0.0949,1.4662,0.6387,-0.1089,-0.4372,
31.377054,1.9850,-0.0949,1.4662,0.6387,-0.1089,-0.4372,
31.378174,2.6306,0.8773,1.5323,0.6387,-0.1089,-0.4372,
31.396603,2.6306,0.8773,1.5323,0.6613,0.3894,-0.2793,
31.446108,2.6306,0.8773,1.5323,0.6613,0.3894,-0.2793,
31.447875,3.8413,3.5795,0.7165,0.6613,0.3894,-0.2793,
31.462065,3.8413,3.5795,0.7165,-0.3529,0.3793,0.0483,
31.507394,3.8413,3.5795,0.7165,-0.3529,0.3793,0.0483,
31.509774,1.0282,-0.1966,-0.4773,-0.3529,0.3793,0.0483,
31.527943,1.0282,-0.1966,-0.4773,-2.1675,1.9025,0.4235,
31.574537,1.0282,-0.1966,-0.4773,-2.1675,1.9025,0.4235,
31.576253,0.1298,2.5830,-2.3533,-2.1675,1.9025,0.4235,
31.597180,0.1298,2.5830,-2.3533,-1.7746,-0.5130,1.0263,
31.639710,0.1298,2.5830,-2.3533,-1.7746,-0.5130,1.0263,
31.642466,-0.7003,1.1261,-4.4202,-1.7746,-0.5130,1.0263,
31.658784,-0.7003,1.1261,-4.4202,-1.5120,2.3048,0.4898,
31.704498,-0.7003,1.1261,-4.4202,-1.5120,2.3048,0.4898,
31.706430,-1.2622,-2.2180,-1.8292,-1.5120,2.3048,0.4898,
31.724234,-1.2622,-2.2180,-1.8292,-1.5091,1.1057,0.6263,
31.770514,-1.2622,-2.2180,-1.8292,-1.5091,1.1057,0.6263,
31.772164,-1.2114,-0.9898,-0.9275,-1.5091,1.1057,0.6263,
31.790166,-1.2114,-0.9898,-0.9275,0.5437,-0.5516,1.8952,
31.835328,-1.2114,-0.9898,-0.9275,0.5437,-0.5516,1.8952,
31.837582,-0.2043,-2.7870,-2.4400,0.5437,-0.5516,1.8952,
31.855513,-0.2043,-2.7870,-2.4400,0.8442,1.5412,0.2521,
31.902025,-0.2043,-2.7870,-2.4400,0.8442,1.5412,0.2521,
31.903886,-0.7019,-2.1320,-0.2583,0.8442,1.5412,0.2521,
31.920806,-0.7019,-2.1320,-0.2583,-0.0341,1.9024,-0.9922,
31.966417,-0.7019,-2.1320,-0.2583,-0.0341,1.9024,-0.9922,
31.968301,-0.7442,2.2307,4.7535,-0.0341,1.9024,-0.9922,
31.985647,-0.7442,2.2307,4.7535,-0.1025,-0.0586,0.3948,
32.035444,-0.7442,2.2307,4.7535,-0.1025,-0.0586,0.3948,
32.037072,3.1110,-0.3385,2.5870,-0.1025,-0.0586,0.3948,
32.051797,3.1110,-0.3385,2.5870,1.5203,-1.6452,0.4789,
32.098449,3.1110,-0.3385,2.5870,1.5203,-1.6452,0.4789,
32.100287,2.3149,3.0446,-4.0014,1.5203,-1.6452,0.4789,
32.117392,2.3149,3.0446,-4.0014,1.3622,1.4707,-1.9199,
32.163298,2.3149,3.0446,-4.0014,1.3622,1.4707,-1.9199,
32.164807,-1.6313,-2.8449,-2.8007,1.3622,1.4707,-1.9199,
32.183336,-1.6313,-2.8449,-2.8007,0.6759,2.0316,-0.7642,
32.228636,-1.6313,-2.8449,-2.8007,0.6759,2.0316,-0.7642,
32.230250,-1.0509,0.0234,-2.5712,0.6759,2.0316,-0.7642,
32.247530,-1.0509,0.0234,-2.5712,0.8653,0.4533,0.2065,
32.294173,-1.0509,0.0234,-2.5712,0.8653,0.4533,0.2065,
32.296082,-0.7695,-1.2038,-2.0718,0.8653,0.4533,0.2065,
32.314722,-0.7695,-1.2038,-2.0718,0.9772,-0.3891,0.2831,
32.359254,-0.7695,-1.2038,-2.0718,0.9772,-0.3891,0.2831,
32.360933,0.5497,-0.3102,-0.0726,0.9772,-0.3891,0.2831,
32.379435,0.5497,-0.3102,-0.0726,0.5174,0.3274,0.1144,
32.424560,0.5497,-0.3102,-0.0726,0.5174,0.3274,0.1144,
32.426213,0.8971,-0.6070,2.6180,0.5174,0.3274,0.1144,
32.444967,0.8971,-0.6070,2.6180,0.4111,-0.3757,-0.0770,
32.490567,0.8971,-0.6070,2.6180,0.4111,-0.3757,-0.0770,
32.492533,0.7588,-0.9772,0.5021,0.4111,-0.3757,-0.0770,
32.511290,0.7588,-0.9772,0.5021,1.2097,0.4649,-0.5890,
32.557735,0.7588,-0.9772,0.5021,1.2097,0.4649,-0.5890,
32.560145,0.4447,-0.4002,0.7827,1.2097,0.4649,-0.5890,
32.577300,0.4447,-0.4002,0.7827,0.8853,0.4699,-0.4858,
32.623167,0.4447,-0.4002,0.7827,0.8853,0.4699,-0.4858,
32.624940,2.8974,0.7696,1.9884,0.8853,0.4699,-0.4858,
32.641004,2.8974,0.7696,1.9884,-0.2181,-0.6993,0.2644,
32.687058,2.8974,0.7696,1.9884,-0.2181,-0.6993,0.2644,
32.688634,4.4475,2.7072,0.8483,-0.2181,-0.6993,0.2644,
32.706565,4.4475,2.7072,0.8483,-0.8914,0.0296,0.6402,
32.752389,4.4475,2.7072,0.8483,-0.8914,0.0296,0.6402,
32.754245,1.2667,1.5810,-0.5837,-0.8914,0.0296,0.6402,
32.772623,1.2667,1.5810,-0.5837,-1.5146,2.6939,0.7442,
32.817594,1.2667,1.5810,-0.5837,-1.5146,2.6939,0.7442,
32.819319,-0.7929,2.4058,-2.2547,-1.5146,2.6939,0.7442,
32.838257,-0.7929,2.4058,-2.2547,-1.5136,-0.3357,0.3273,
32.883682,-0.7929,2.4058,-2.2547,-1.5136,-0.3357,0.3273,
32.885327,-1.9360,0.0683,-3.1343,-1.5136,-0.3357,0.3273,
32.903343,-1.9360,0.0683,-3.1343,-2.3818,1.4125,0.3157,
32.949204,-1.9360,0.0683,-3.1343,-2.3818,1.4125,0.3157,
32.950610,-1.9587,-1.4588,-2.1205,-2.3818,1.4125,0.3157,
32.970177,-1.9587,-1.4588,-2.1205,-1.4221,1.1973,0.2332,
33.015153,-1.9587,-1.4588,-2.1205,-1.4221,1.1973,0.2332,
33.016936,-1.3621,-1.4969,-1.6556,-1.4221,1.1973,0.2332,
33.033666,-1.3621,-1.4969,-1.6556,-0.3768,0.7633,0.4933,
33.079662,-1.3621,-1.4969,-1.6556,-0.3768,0.7633,0.4933,
33.081545,-0.6237,-2.3721,-1.3256,-0.3768,0.7633,0.4933,
33.099976,-0.6237,-2.3721,-1.3256,0.5799,0.8109,0.2605,
33.144898,-0.6237,-2.3721,-1.3256,0.5799,0.8109,0.2605,
33.146418,0.0377,-1.5742,-0.5744,0.5799,0.8109,0.2605,
33.164796,0.0377,-1.5742,-0.5744,0.6159,1.6419,-0.1564,
33.211367,0.0377,-1.5742,-0.5744,0.6159,1.6419,-0.1564,
33.212956,0.3091,3.5470,7.7348,0.6159,1.6419,-0.1564,
33.230481,0.3091,3.5470,7.7348,-0.1710,0.6107,0.4809,
33.276915,0.3091,3.5470,7.7348,-0.1710,0.6107,0.4809,
33.278954,0.0773,-2.7071,3.5459,-0.1710,0.6107,0.4809,
33.296484,0.0773,-2.7071,3.5459,1.5944,-1.3083,0.2560,
33.341142,0.0773,-2.7071,3.5459,1.5944,-1.3083,0.2560,
33.342630,1.1172,4.4154,-3.5367,1.5944,-1.3083,0.2560,
33.360812,1.1172,4.4154,-3.5367,1.7309,-0.2979,-0.6623,
33.407072,1.1172,4.4154,-3.5367,1.7309,-0.2979,-0.6623,
33.408574,-1.2151,-2.8676,-2.2559,1.7309,-0.2979,-0.6623,
33.427298,-1.2151,-2.8676,-2.2559,0.4508,-0.7010,-1.0525,
33.471293,-1.2151,-2.8676,-2.2559,0.4508,-0.7010,-1.0525,
33.472322,-1.7517,0.0435,-2.8237,0.4508,-0.7010,-1.0525,
33.493584,-1.7517,0.0435,-2.8237,0.8586,0.2332,0.2633,
33.538642,-1.7517,0.0435,-2.8237,0.8586,0.2332,0.2633,
33.539435,0.7378,-0.8605,-1.5033,0.8586,0.2332,0.2633,
33.557392,0.7378,-0.8605,-1.5033,1.2582,-0.0334,-0.0710,
33.604094,0.7378,-0.8605,-1.5033,1.2582,-0.0334,-0.0710,
33.605827,1.7395,-0.0590,0.8722,1.2582,-0.0334,-0.0710,
33.623906,1.7395,-0.0590,0.8722,-0.2428,-1.4694,0.4377,
33.668933,1.7395,-0.0590,0.8722,-0.2428,-1.4694,0.4377,
33.670492,1.2461,-1.3776,0.4058,-0.2428,-1.4694,0.4377,
33.689992,1.2461,-1.3776,0.4058,0.8613,-0.2004,-0.1880,
33.734558,1.2461,-1.3776,0.4058,0.8613,-0.2004,-0.1880,
33.736448,0.6440,-0.9523,0.6269,0.8613,-0.2004,-0.1880,
33.754179,0.6440,-0.9523,0.6269,1.4832,1.1643,-0.5799,
33.799490,0.6440,-0.9523,0.6269,1.4832,1.1643,-0.5799,
33.801925,0.2710,0.2923,1.1128,1.4832,1.1643,-0.5799,
33.819250,0.2710,0.2923,1.1128,1.0208,0.3916,-0.5373,
33.864965,0.2710,0.2923,1.1128,1.0208,0.3916,-0.5373,
33.866514,1.5348,0.5326,1.6752,1.0208,0.3916,-0.5373,
33.885668,1.5348,0.5326,1.6752,-0.3876,-0.8141,0.1275,
33.931352,1.5348,0.5326,1.6752,-0.3876,-0.8141,0.1275,
33.933117,3.7151,2.1569,2.2300,-0.3876,-0.8141,0.1275,
33.950313,3.7151,2.1569,2.2300,-0.8291,-0.5967,0.8355,
33.996124,3.7151,2.1569,2.2300,-0.8291,-0.5967,0.8355,
33.998174,1.7662,1.9499,-0.4849,-0.8291,-0.5967,0.8355,
34.015620,1.7662,1.9499,-0.4849,-1.9453,1.1910,1.0273,
34.061618,1.7662,1.9499,-0.4849,-1.9453,1.1910,1.0273,
34.063321,-0.5597,2.6053,-1.0613,-1.9453,1.1910,1.0273,
34.080990,-0.5597,2.6053,-1.0613,-1.8242,-0.0667,0.5032,
34.128013,-0.5597,2.6053,-1.0613,-1.8242,-0.0667,0.5032,
34.129800,-2.0726,1.0881,-2.3939,-1.8242,-0.0667,0.5032,
34.146775,-2.0726,1.0881,-2.3939,-2.3489,0.3627,0.5753,
34.193047,-2.0726,1.0881,-2.3939,-2.3489,0.3627,0.5753,
34.195573,-1.8174,-1.9234,-2.0606,-2.3489,0.3627,0.5753,
34.212993,-1.8174,-1.9234,-2.0606,-1.3430,1.3315,0.3905,
34.258150,-1.8174,-1.9234,-2.0606,-1.3430,1.3315,0.3905,
34.260067,-1.3121,-1.0202,-1.6358,-1.3430,1.3315,0.3905,
34.277979,-1.3121,-1.0202,-1.6358,-0.4146,1.1251,0.6322,
34.323633,-1.3121,-1.0202,-1.6358,-0.4146,1.1251,0.6322,
34.325284,-1.4555,-1.5741,-1.2767,-0.4146,1.1251,0.6322,
34.343259,-1.4555,-1.5741,-1.2767,0.4682,0.1666,0.5628,
34.388888,-1.4555,-1.5741,-1.2767,0.4682,0.1666,0.5628,
34.389361,-0.7337,-2.5854,-0.8557,0.4682,0.1666,0.5628,
34.409694,-0.7337,-2.5854,-0.8557,1.3770,0.4320,-0.0611,
34.454758,-0.7337,-2.5854,-0.8557,1.3770,0.4320,-0.0611,
34.456534,1.3208,1.5788,2.0805,1.3770,0.4320,-0.0611,
34.475351,1.3208,1.5788,2.0805,0.3977,1.7914,-0.1878,
34.520207,1.3208,1.5788,2.0805,0.3977,1.7914,-0.1878,
34.521881,0.0365,0.9406,6.9703,0.3977,1.7914,-0.1878,
34.539752,0.0365,0.9406,6.9703,0.5901,-1.5056,0.1984,
34.585749,0.0365,0.9406,6.9703,0.5901,-1.5056,0.1984,
34.586971,0.3635,1.6838,-2.2484,0.5901,-1.5056,0.1984,
34.606508,0.3635,1.6838,-2.2484,2.5644,-0.7042,-1.2619,
34.651246,0.3635,1.6838,-2.2484,2.5644,-0.7042,-1.2619,
34.653032,-2.3062,-0.0394,-4.0897,2.5644,-0.7042,-1.2619,
34.671133,-2.3062,-0.0394,-4.0897,-0.4585,0.6327,-0.7726,
34.716685,-2.3062,-0.0394,-4.0897,-0.4585,0.6327,-0.7726,
34.718385,-1.0731,-1.2002,-0.8678,-0.4585,0.6327,-0.7726,
34.736649,-1.0731,-1.2002,-0.8678,1.0244,0.0875,0.0797,
34.781824,-1.0731,-1.2002,-0.8678,1.0244,0.0875,0.0797,
34.783537,0.6695,-0.7446,-2.1219,1.0244,0.0875,0.0797,
34.802355,0.6695,-0.7446,-2.1219,1.3190,0.1652,-0.0930,
34.847145,0.6695,-0.7446,-2.1219,1.3190,0.1652,-0.0930,
34.849246,-0.3777,-0.1503,0.0571,1.3190,0.1652,-0.0930,
34.867370,-0.3777,-0.1503,0.0571,0.2512,-1.4067,0.2291,
34.913280,-0.3777,-0.1503,0.0571,0.2512,-1.4067,0.2291,
34.914275,0.3153,-0.5385,0.4001,0.2512,-1.4067,0.2291,
34.933770,0.3153,-0.5385,0.4001,0.2376,-1.4620,-0.0854,
34.978326,0.3153,-0.5385,0.4001,0.2376,-1.4620,-0.0854,
34.979939,0.5243,-0.9219,1.0556,0.2376,-1.4620,-0.0854,
34.999238,0.5243,-0.9219,1.0556,0.5333,-0.4297,-0.4027,
35.044509,0.5243,-0.9219,1.0556,0.5333,-0.4297,-0.4027,
35.045950,0.8331,-0.3682,1.2126,0.5333,-0.4297,-0.4027,
35.064348,0.8331,-0.3682,1.2126,0.8361,-0.3897,-0.6826,
35.109524,0.8331,-0.3682,1.2126,0.8361,-0.3897,-0.6826,
35.110655,2.0555,0.0339,0.7657,0.8361,-0.3897,-0.6826,
35.130102,2.0555,0.0339,0.7657,-0.2347,-0.5046,-0.0869,
35.174558,2.0555,0.0339,0.7657,-0.2347,-0.5046,-0.0869,
35.176452,3.3658,1.7000,3.2895,-0.2347,-0.5046,-0.0869,
35.194691,3.3658,1.7000,3.2895,-0.9578,-1.6990,1.0229,
35.240374,3.3658,1.7000,3.2895,-0.9578,-1.6990,1.0229,
35.242561,3.7432,2.1652,-1.3899,-0.9578,-1.6990,1.0229,
35.261880,3.7432,2.1652,-1.3899,-2.0298,1.2430,0.8439,
35.306814,3.7432,2.1652,-1.3899,-2.0298,1.2430,0.8439,
35.308758,-0.8376,1.2082,0.3169,-2.0298,1.2430,0.8439,
35.326437,-0.8376,1.2082,0.3169,-0.9763,1.6388,1.0950,
35.372229,-0.8376,1.2082,0.3169,-0.9763,1.6388,1.0950,
35.373886,-0.6889,2.7333,-2.1596,-0.9763,1.6388,1.0950,
35.391301,-0.6889,2.7333,-2.1596,-1.2355,0.4577,0.7824,
35.436412,-0.6889,2.7333,-2.1596,-1.2355,0.4577,0.7824,
35.438321,-2.4872,-0.7879,-2.0061,-1.2355,0.4577,0.7824,
35.457047,-2.4872,-0.7879,-2.0061,-1.5059,0.2376,0.5122,
35.503118,-2.4872,-0.7879,-2.0061,-1.5059,0.2376,0.5122,
35.504979,-2.9295,-1.3882,-2.2561,-1.5059,0.2376,0.5122,
35.522852,-2.9295,-1.3882,-2.2561,-0.3374,1.5747,0.2923,
35.568524,-2.9295,-1.3882,-2.2561,-0.3374,1.5747,0.2923,
35.570185,-1.7553,-1.8096,-1.2013,-0.3374,1.5747,0.2923,
35.589078,-1.7553,-1.8096,-1.2013,0.2129,0.5899,0.0817,
35.633730,-1.7553,-1.8096,-1.2013,0.2129,0.5899,0.0817,
35.636014,-1.0119,-2.6149,-0.6539,0.2129,0.5899,0.0817,
35.653506,-1.0119,-2.6149,-0.6539,0.7928,1.0244,-0.2737,
35.698307,-1.0119,-2.6149,-0.6539,0.7928,1.0244,-0.2737,
35.699121,2.7143,2.5212,5.4844,0.7928,1.0244,-0.2737,
35.718623,2.7143,2.5212,5.4844,-0.0368,1.1622,0.0484,
35.764375,2.7143,2.5212,5.4844,-0.0368,1.1622,0.0484,
35.765411,0.1822,-1.6582,4.2050,-0.0368,1.1622,0.0484,
35.784462,0.1822,-1.6582,4.2050,0.9099,-1.2416,0.0976,
35.831374,0.1822,-1.6582,4.2050,0.9099,-1.2416,0.0976,
35.832086,1.5254,3.6565,-4.0087,0.9099,-1.2416,0.0976,
35.849044,1.5254,3.6565,-4.0087,2.3503,0.4446,-1.1336,
35.895576,1.5254,3.6565,-4.0087,2.3503,0.4446,-1.1336,
35.896598,-1.4264,-2.0789,-2.8670,2.3503,0.4446,-1.1336,
35.914979,-1.4264,-2.0789,-2.8670,-0.4572,0.4927,-0.7637,
35.960329,-1.4264,-2.0789,-2.8670,-0.4572,0.4927,-0.7637,
35.961351,-0.7222,0.0715,-1.1713,-0.4572,0.4927,-0.7637,
35.980296,-0.7222,0.0715,-1.1713,1.3172,0.2793,0.3454,
36.027376,-0.7222,0.0715,-1.1713,1.3172,0.2793,0.3454,
36.028467,0.7576,-1.4344,-1.9355,1.3172,0.2793,0.3454,
36.045794,0.7576,-1.4344,-1.9355,1.3074,0.5046,-0.2318,
36.092044,0.7576,-1.4344,-1.9355,1.3074,0.5046,-0.2318,
36.093111,-0.1714,-0.0287,0.4010,1.3074,0.5046,-0.2318,
36.110910,-0.1714,-0.0287,0.4010,0.7721,0.1868,-0.0712,
36.156781,-0.1714,-0.0287,0.4010,0.7721,0.1868,-0.0712,
36.157952,0.6224,-1.2158,-0.0375,0.7721,0.1868,-0.0712,
36.177011,0.6224,-1.2158,-0.0375,1.0424,0.4195,-0.2964,
36.222685,0.6224,-1.2158,-0.0375,1.0424,0.4195,-0.2964,
36.223867,0.3621,-0.0499,0.8945,1.0424,0.4195,-0.2964,
36.243091,0.3621,-0.0499,0.8945,1.0004,0.1933,-0.4216,
36.288671,0.3621,-0.0499,0.8945,1.0004,0.1933,-0.4216,
36.290162,0.2632,0.2373,2.6766,1.0004,0.1933,-0.4216,
36.307376,0.2632,0.2373,2.6766,0.1613,-0.7808,-0.1203,
36.353468,0.2632,0.2373,2.6766,0.1613,-0.7808,-0.1203,
36.355536,2.6556,0.8083,-0.1041,0.1613,-0.7808,-0.1203,
36.373815,2.6556,0.8083,-0.1041,-0.0156,0.1090,0.3627,
36.418814,2.6556,0.8083,-0.1041,-0.0156,0.1090,0.3627,
36.420544,5.1531,1.9075,2.5440,-0.0156,0.1090,0.3627,
36.438691,5.1531,1.9075,2.5440,-1.1906,-0.8645,0.5018,
36.483823,5.1531,1.9075,2.5440,-1.1906,-0.8645,0.5018,
36.484957,1.3628,1.6651,-0.8560,-1.1906,-0.8645,0.5018,
36.503782,1.3628,1.6651,-0.8560,-1.8402,1.4968,1.0573,
36.549608,1.3628,1.6651,-0.8560,-1.8402,1.4968,1.0573,
36.551435,-0.0722,1.5677,-1.3017,-1.8402,1.4968,1.0573,
36.569245,-0.0722,1.5677,-1.3017,-1.0159,0.8653,0.4832,
36.615761,-0.0722,1.5677,-1.3017,-1.0159,0.8653,0.4832,
36.617399,-1.6061,0.3898,-2.2618,-1.0159,0.8653,0.4832,
36.635052,-1.6061,0.3898,-2.2618,-1.5736,-0.1762,0.9227,
36.682531,-1.6061,0.3898,-2.2618,-1.5736,-0.1762,0.9227,
36.684731,-2.2546,-1.5688,-2.9150,-1.5736,-0.1762,0.9227,
36.701416,-2.2546,-1.5688,-2.9150,-0.5272,1.5864,0.9314,
36.747195,-2.2546,-1.5688,-2.9150,-0.5272,1.5864,0.9314,
36.749328,-1.1244,-0.5623,-1.2929,-0.5272,1.5864,0.9314,
36.767244,-1.1244,-0.5623,-1.2929,-0.0644,0.7026,1.0678,
36.814132,-1.1244,-0.5623,-1.2929,-0.0644,0.7026,1.0678,
36.816820,-1.3003,-2.1164,-1.0092,-0.0644,0.7026,1.0678,
36.832043,-1.3003,-2.1164,-1.0092,0.4833,1.3685,0.0754,
36.878102,-1.3003,-2.1164,-1.0092,0.4833,1.3685,0.0754,
36.880652,-1.2672,-1.0873,-0.5150,0.4833,1.3685,0.0754,
36.898035,-1.2672,-1.0873,-0.5150,0.7511,1.7619,-0.6678,
36.942854,-1.2672,-1.0873,-0.5150,0.7511,1.7619,-0.6678,
36.943997,-0.1225,2.4326,4.2221,0.7511,1.7619,-0.6678,
36.962044,-0.1225,2.4326,4.2221,0.1081,0.1330,-0.0820,
37.007805,-0.1225,2.4326,4.2221,0.1081,0.1330,-0.0820,
37.009462,2.0634,-1.3413,4.6874,0.1081,0.1330,-0.0820,
37.027408,2.0634,-1.3413,4.6874,0.9562,-1.5366,0.3433,
37.073608,2.0634,-1.3413,4.6874,0.9562,-1.5366,0.3433,
37.075839,2.3089,1.8697,-3.6931,0.9562,-1.5366,0.3433,
37.094659,2.3089,1.8697,-3.6931,2.3039,1.4662,-1.5893,
37.138783,2.3089,1.8697,-3.6931,2.3039,1.4662,-1.5893,
37.140014,-2.2650,0.4456,-2.7126,2.3039,1.4662,-1.5893,
37.158519,-2.2650,0.4456,-2.7126,0.2419,1.1587,-1.0044,
37.204374,-2.2650,0.4456,-2.7126,0.2419,1.1587,-1.0044,
37.205959,-2.2552,-0.9410,-2.0641,0.2419,1.1587,-1.0044,
37.224528,-2.2552,-0.9410,-2.0641,0.9294,-0.0551,0.4328,
37.270395,-2.2552,-0.9410,-2.0641,0.9294,-0.0551,0.4328,
37.272022,-0.6484,-0.8908,-2.0542,0.9294,-0.0551,0.4328,
37.289247,-0.6484,-0.8908,-2.0542,0.8005,-0.6523,0.1513,
37.335626,-0.6484,-0.8908,-2.0542,0.8005,-0.6523,0.1513,
37.337556,-0.0808,0.0703,0.8305,0.8005,-0.6523,0.1513,
37.355510,-0.0808,0.0703,0.8305,-0.0864,-1.1194,0.2101,
37.402304,-0.0808,0.0703,0.8305,-0.0864,-1.1194,0.2101,
37.404013,0.7223,-0.8093,0.6671,-0.0864,-1.1194,0.2101,
37.421044,0.7223,-0.8093,0.6671,0.3554,-1.2428,-0.1921,
37.466090,0.7223,-0.8093,0.6671,0.3554,-1.2428,-0.1921,
37.467432,0.9692,-0.5861,-0.0520,0.3554,-1.2428,-0.1921,
37.486114,0.9692,-0.5861,-0.0520,0.8726,0.4293,-0.5999,
37.532811,0.9692,-0.5861,-0.0520,0.8726,0.4293,-0.5999,
37.533916,0.9962,-0.0044,2.3985,0.8726,0.4293,-0.5999,
37.551901,0.9962,-0.0044,2.3985,0.5632,-0.3829,-0.4340,
37.597266,0.9962,-0.0044,2.3985,0.5632,-0.3829,-0.4340,
37.598404,2.4516,0.2261,-0.1062,0.5632,-0.3829,-0.4340,
37.617567,2.4516,0.2261,-0.1062,-0.0681,0.0875,-0.0191,
37.663524,2.4516,0.2261,-0.1062,-0.0681,0.0875,-0.0191,
37.665133,4.2617,0.9391,2.7494,-0.0681,0.0875,-0.0191,
37.682991,4.2617,0.9391,2.7494,-0.3366,-0.8271,0.3911,
37.729747,4.2617,0.9391,2.7494,-0.3366,-0.8271,0.3911,
37.731828,2.7819,0.3300,0.4836,-0.3366,-0.8271,0.3911,
37.748482,2.7819,0.3300,0.4836,-1.8340,1.2937,0.7746,
37.793625,2.7819,0.3300,0.4836,-1.8340,1.2937,0.7746,
37.795434,0.5310,0.1112,-0.5708,-1.8340,1.2937,0.7746,
37.813920,0.5310,0.1112,-0.5708,-0.5557,2.9540,1.3705,
37.859143,0.5310,0.1112,-0.5708,-0.5557,2.9540,1.3705,
37.861219,0.1874,3.9097,-2.5571,-0.5557,2.9540,1.3705,
37.879692,0.1874,3.9097,-2.5571,-1.1475,0.2931,0.7469,
37.925324,0.1874,3.9097,-2.5571,-1.1475,0.2931,0.7469,
37.926751,-2.5099,0.5354,-2.8054,-1.1475,0.2931,0.7469,
37.944039,-2.5099,0.5354,-2.8054,-1.5308,0.3403,0.8460,
37.991599,-2.5099,0.5354,-2.8054,-1.5308,0.3403,0.8460,
37.993188,-3.4900,-0.5739,-2.3197,-1.5308,0.3403,0.8460,
38.010790,-3.4900,-0.5739,-2.3197,0.0089,1.8311,0.3222,
38.055851,-3.4900,-0.5739,-2.3197,0.0089,1.8311,0.3222,
38.057451,-2.6841,-0.9546,-1.1258,0.0089,1.8311,0.3222,
38.076159,-2.6841,-0.9546,-1.1258,0.2182,0.3687,0.7648,
38.122411,-2.6841,-0.9546,-1.1258,0.2182,0.3687,0.7648,
38.124393,-0.6737,-2.2751,-0.4129,0.2182,0.3687,0.7648,
38.140777,-0.6737,-2.2751,-0.4129,0.3317,1.1518,-0.3319,
38.186743,-0.6737,-2.2751,-0.4129,0.3317,1.1518,-0.3319,
38.189180,-0.3654,0.8620,1.6873,0.3317,1.1518,-0.3319,
38.206751,-0.3654,0.8620,1.6873,0.1970,0.7504,-0.9134,
38.251867,-0.3654,0.8620,1.6873,0.1970,0.7504,-0.9134,
38.253193,0.8572,-0.1069,5.6130,0.1970,0.7504,-0.9134,
38.272113,0.8572,-0.1069,5.6130,1.1047,-1.1289,0.6300,
38.318384,0.8572,-0.1069,5.6130,1.1047,-1.1289,0.6300,
38.320099,3.4676,-0.7196,-0.2375,1.1047,-1.1289,0.6300,
38.336967,3.4676,-0.7196,-0.2375,1.1614,-0.3673,-0.5973,
38.382340,3.4676,-0.7196,-0.2375,1.1614,-0.3673,-0.5973,
38.383065,-0.2571,3.4700,-1.4108,1.1614,-0.3673,-0.5973,
38.402720,-0.2571,3.4700,-1.4108,0.2156,0.2827,-1.6394,
38.447912,-0.2571,3.4700,-1.4108,0.2156,0.2827,-1.6394,
38.448964,-2.2348,-2.5367,-2.5977,0.2156,0.2827,-1.6394,
38.468277,-2.2348,-2.5367,-2.5977,0.5698,0.7590,-0.1990,
38.513517,-2.2348,-2.5367,-2.5977,0.5698,0.7590,-0.1990,
38.514520,-1.2925,0.5876,-2.6095,0.5698,0.7590,-0.1990,
38.533516,-1.2925,0.5876,-2.6095,0.8693,-0.2442,0.1266,
38.579350,-1.2925,0.5876,-2.6095,0.8693,-0.2442,0.1266,
38.580131,-1.4007,-0.9880,-1.4103,0.8693,-0.2442,0.1266,
38.598625,-1.4007,-0.9880,-1.4103,0.9940,-0.8803,0.0574,
38.644724,-1.4007,-0.9880,-1.4103,0.9940,-0.8803,0.0574,
38.645797,0.2982,-0.0139,0.3432,0.9940,-0.8803,0.0574,
38.664872,0.2982,-0.0139,0.3432,0.2532,-1.0386,-0.0531,
38.710436,0.2982,-0.0139,0.3432,0.2532,-1.0386,-0.0531,
38.711943,1.1051,-0.5466,1.2938,0.2532,-1.0386,-0.0531,
38.730027,1.1051,-0.5466,1.2938,0.3636,-0.9053,-0.3722,
38.775648,1.1051,-0.5466,1.2938,0.3636,-0.9053,-0.3722,
38.777172,0.7974,-0.4806,0.2511,0.3636,-0.9053,-0.3722,
38.796002,0.7974,-0.4806,0.2511,0.8590,0.6440,-0.5678,
38.841486,0.7974,-0.4806,0.2511,0.8590,0.6440,-0.5678,
38.842464,1.4203,-0.2580,2.4550,0.8590,0.6440,-0.5678,
38.861248,1.4203,-0.2580,2.4550,0.3163,-0.5119,-0.2083,
38.907305,1.4203,-0.2580,2.4550,0.3163,-0.5119,-0.2083,
38.909130,2.1609,0.0478,0.2676,0.3163,-0.5119,-0.2083,
38.927275,2.1609,0.0478,0.2676,-0.2408,-0.2103,0.2531,
38.972608,2.1609,0.0478,0.2676,-0.2408,-0.2103,0.2531,
38.974464,2.8965,1.2723,2.8034,-0.2408,-0.2103,0.2531,
38.992497,2.8965,1.2723,2.8034,-1.1588,-1.2978,0.8537,
39.037952,2.8965,1.2723,2.8034,-1.1588,-1.2978,0.8537,
39.039805,1.5851,1.5146,-1.5482,-1.1588,-1.2978,0.8537,
39.058070,1.5851,1.5146,-1.5482,-1.8109,2.1015,1.1084,
39.103363,1.5851,1.5146,-1.5482,-1.8109,2.1015,1.1084,
39.105166,-0.6276,1.7544,-0.4533,-1.8109,2.1015,1.1084,
39.123280,-0.6276,1.7544,-0.4533,-1.0643,1.6545,1.0957,
39.169606,-0.6276,1.7544,-0.4533,-1.0643,1.6545,1.0957,
39.171772,-1.4086,3.0878,-2.5717,-1.0643,1.6545,1.0957,
39.189476,-1.4086,3.0878,-2.5717,-1.9905,-1.1495,1.0502,
39.234981,-1.4086,3.0878,-2.5717,-1.9905,-1.1495,1.0502,
39.236332,-2.7427,-1.1503,-2.5447,-1.9905,-1.1495,1.0502,
39.253975,-2.7427,-1.1503,-2.5447,-1.2547,1.2072,0.6565,
39.299880,-2.7427,-1.1503,-2.5447,-1.2547,1.2072,0.6565,
39.301134,-1.8871,-0.7218,-1.1448,-1.2547,1.2072,0.6565,
39.320392,-1.8871,-0.7218,-1.1448,-0.0449,1.4810,0.2547,
39.365367,-1.8871,-0.7218,-1.1448,-0.0449,1.4810,0.2547,
39.366560,-1.7605,-1.2918,-1.6782,-0.0449,1.4810,0.2547,
39.385088,-1.7605,-1.2918,-1.6782,0.2645,0.6290,-0.1820,
39.430574,-1.7605,-1.2918,-1.6782,0.2645,0.6290,-0.1820,
39.432500,-1.1022,-2.4187,-0.9095,0.2645,0.6290,-0.1820,
39.450154,-1.1022,-2.4187,-0.9095,1.1887,0.8300,-0.7169,
39.496584,-1.1022,-2.4187,-0.9095,1.1887,0.8300,-0.7169,
39.498272,1.8700,1.5689,4.2613,1.1887,0.8300,-0.7169,
39.516492,1.8700,1.5689,4.2613,0.5232,0.3992,0.3822,
39.562209,1.8700,1.5689,4.2613,0.5232,0.3992,0.3822,
39.564619,2.5086,0.8589,4.2298,0.5232,0.3992,0.3822,
39.582417,2.5086,0.8589,4.2298,1.3922,-0.1747,0.0394,
39.627256,2.5086,0.8589,4.2298,1.3922,-0.1747,0.0394,
39.628499,-0.5224,0.6778,-1.5785,1.3922,-0.1747,0.0394,
39.647373,-0.5224,0.6778,-1.5785,1.9134,-0.4632,-1.0931,
39.692436,-0.5224,0.6778,-1.5785,1.9134,-0.4632,-1.0931,
39.694132,-2.8856,-0.2102,-1.9624,1.9134,-0.4632,-1.0931,
39.711990,-2.8856,-0.2102,-1.9624,0.0501,1.1144,-0.9555,
39.758610,-2.8856,-0.2102,-1.9624,0.0501,1.1144,-0.9555,
39.760102,-2.1219,-1.4455,0.0904,0.0501,1.1144,-0.9555,
39.777985,-2.1219,-1.4455,0.0904,0.9337,-0.5044,-0.3196,
39.823627,-2.1219,-1.4455,0.0904,0.9337,-0.5044,-0.3196,
39.825351,0.5599,1.3686,-0.8030,0.9337,-0.5044,-0.3196,
39.844413,0.5599,1.3686,-0.8030,0.9650,-0.9504,0.2434,
39.889845,0.5599,1.3686,-0.8030,0.9650,-0.9504,0.2434,
39.891786,1.0702,-1.2769,-0.7214,0.9650,-0.9504,0.2434,
39.909421,1.0702,-1.2769,-0.7214,0.4297,-0.2483,-0.1342,
39.955520,1.0702,-1.2769,-0.7214,0.4297,-0.2483,-0.1342,
39.957149,0.9803,-0.6774,0.0121,0.4297,-0.2483,-0.1342,
39.973828,0.9803,-0.6774,0.0121,0.5368,-0.2566,-0.1868,
40.020162,0.9803,-0.6774,0.0121,0.5368,-0.2566,-0.1868,
40.021186,0.6220,-0.9283,0.3603,0.5368,-0.2566,-0.1868,
40.041026,0.6220,-0.9283,0.3603,0.5447,-0.0765,-0.3238,
40.085725,0.6220,-0.9283,0.3603,0.5447,-0.0765,-0.3238,
40.087518,0.8504,-0.3760,0.7288,0.5447,-0.0765,-0.3238,
40.105020,0.8504,-0.3760,0.7288,0.5935,0.0524,-0.4236,
40.150327,0.8504,-0.3760,0.7288,0.5935,0.0524,-0.4236,
40.151692,1.6310,0.1359,0.6809,0.5935,0.0524,-0.4236,
40.170782,1.6310,0.1359,0.6809,0.1243,-0.2279,-0.3021,
40.215887,1.6310,0.1359,0.6809,0.1243,-0.2279,-0.3021,
40.216928,2.6621,1.2534,1.6094,0.1243,-0.2279,-0.3021,
40.236077,2.6621,1.2534,1.6094,-0.5119,-0.4281,0.4177,
40.281269,2.6621,1.2534,1.6094,-0.5119,-0.4281,0.4177,
40.282290,3.2561,1.9456,-0.9498,-0.5119,-0.4281,0.4177,
40.301137,3.2561,1.9456,-0.9498,-2.4477,0.5823,0.8563,
40.346453,3.2561,1.9456,-0.9498,-2.4477,0.5823,0.8563,
40.347882,-0.5189,-0.1479,-0.6342,-2.4477,0.5823,0.8563,
40.367157,-0.5189,-0.1479,-0.6342,-1.8572,2.2674,1.5366,
40.412564,-0.5189,-0.1479,-0.6342,-1.8572,2.2674,1.5366,
40.413146,2.0202,2.4056,-3.5337,-1.8572,2.2674,1.5366,
40.434113,2.0202,2.4056,-3.5337,-0.3977,1.6755,0.9015,
40.478051,2.0202,2.4056,-3.5337,-0.3977,1.6755,0.9015,
40.478754,-0.8489,-0.4392,-2.9190,-0.3977,1.6755,0.9015,
40.498033,-0.8489,-0.4392,-2.9190,-1.0198,1.0398,0.6026,
40.543432,-0.8489,-0.4392,-2.9190,-1.0198,1.0398,0.6026,
40.544663,-2.3669,-0.7887,-2.4816,-1.0198,1.0398,0.6026,
40.563149,-2.3669,-0.7887,-2.4816,0.5696,1.8285,0.8233,
40.609317,-2.3669,-0.7887,-2.4816,0.5696,1.8285,0.8233,
40.611015,-2.0572,-1.1327,-1.9732,0.5696,1.8285,0.8233,
40.629258,-2.0572,-1.1327,-1.9732,0.8447,0.8207,0.4436,
40.675395,-2.0572,-1.1327,-1.9732,0.8447,0.8207,0.4436,
40.676914,-1.3299,-1.3227,-0.5650,0.8447,0.8207,0.4436,
40.694108,-1.3299,-1.3227,-0.5650,0.6022,1.8972,-0.1888,
40.740316,-1.3299,-1.3227,-0.5650,0.6022,1.8972,-0.1888,
40.741398,-0.2252,-0.2537,1.5643,0.6022,1.8972,-0.1888,
40.760856,-0.2252,-0.2537,1.5643,0.3670,1.2188,-0.4113,
40.805477,-0.2252,-0.2537,1.5643,0.3670,1.2188,-0.4113,
40.807120,2.3565,3.1593,5.3040,0.3670,1.2188,-0.4113,
40.825694,2.3565,3.1593,5.3040,0.3213,-0.7014,1.9784,
40.871423,2.3565,3.1593,5.3040,0.3213,-0.7014,1.9784,
40.872869,4.1646,0.1844,-2.0273,0.3213,-0.7014,1.9784,
40.891657,4.1646,0.1844,-2.0273,2.5940,1.7324,-0.7807,
40.937819,4.1646,0.1844,-2.0273,2.5940,1.7324,-0.7807,
40.939882,0.1261,-0.1705,-2.5464,2.5940,1.7324,-0.7807,
40.957075,0.1261,-0.1705,-2.5464,0.7882,0.8757,-1.8169,
41.002486,0.1261,-0.1705,-2.5464,0.7882,0.8757,-1.8169,
41.005022,-2.7110,-2.4072,-2.2094,0.7882,0.8757,-1.8169,
41.021831,-2.7110,-2.4072,-2.2094,0.8083,1.6933,-0.6694,
41.068211,-2.7110,-2.4072,-2.2094,0.8083,1.6933,-0.6694,
41.070712,-0.4396,0.4922,-1.4314,0.8083,1.6933,-0.6694,
41.087951,-0.4396,0.4922,-1.4314,1.8764,0.8212,0.1425,
41.134771,-0.4396,0.4922,-1.4314,1.8764,0.8212,0.1425,
41.135666,0.0851,-0.1200,0.1347,1.8764,0.8212,0.1425,
41.153387,0.0851,-0.1200,0.1347,-0.0531,0.0771,0.2190,
41.200442,0.0851,-0.1200,0.1347,-0.0531,0.0771,0.2190,
41.201484,0.5847,-0.7564,0.6803,-0.0531,0.0771,0.2190,
41.219305,0.5847,-0.7564,0.6803,0.7654,-0.4794,0.1138,
41.264882,0.5847,-0.7564,0.6803,0.7654,-0.4794,0.1138,
41.265447,0.3816,-0.8513,0.0527,0.7654,-0.4794,0.1138,
41.284050,0.3816,-0.8513,0.0527,0.8906,0.3711,-0.1848,
41.330503,0.3816,-0.8513,0.0527,0.8906,0.3711,-0.1848,
41.331659,0.5801,-0.3145,0.5898,0.8906,0.3711,-0.1848,
41.350343,0.5801,-0.3145,0.5898,0.8094,-0.0021,-0.4336,
41.394640,0.5801,-0.3145,0.5898,0.8094,-0.0021,-0.4336,
41.395422,1.3721,-0.1609,0.7234,0.8094,-0.0021,-0.4336,
41.415433,1.3721,-0.1609,0.7234,0.4410,-0.3548,-0.1561,
41.460835,1.3721,-0.1609,0.7234,0.4410,-0.3548,-0.1561,
41.461702,4.1166,1.6754,2.5674,0.4410,-0.3548,-0.1561,
41.480305,4.1166,1.6754,2.5674,-0.6484,-1.5533,0.8085,
41.526430,4.1166,1.6754,2.5674,-0.6484,-1.5533,0.8085,
41.527632,4.2971,1.1655,0.0899,-0.6484,-1.5533,0.8085,
41.546129,4.2971,1.1655,0.0899,-1.6028,0.1347,1.0983,
41.591249,4.2971,1.1655,0.0899,-1.6028,0.1347,1.0983,
41.591917,-0.3293,1.0915,-0.0376,-1.6028,0.1347,1.0983,
41.611179,-0.3293,1.0915,-0.0376,-0.7657,2.8063,1.1623,
41.657679,-0.3293,1.0915,-0.0376,-0.7657,2.8063,1.1623,
41.658388,-1.2789,4.2930,-2.9168,-0.7657,2.8063,1.1623,
41.676977,-1.2789,4.2930,-2.9168,-1.2507,0.0512,0.3457,
41.722683,-1.2789,4.2930,-2.9168,-1.2507,0.0512,0.3457,
41.723512,-3.7643,-0.0831,-3.1040,-1.2507,0.0512,0.3457,
41.742655,-3.7643,-0.0831,-3.1040,-2.5042,-0.1608,0.2847,
41.788653,-3.7643,-0.0831,-3.1040,-2.5042,-0.1608,0.2847,
41.789408,-3.0573,-2.4448,-2.2916,-2.5042,-0.1608,0.2847,
41.808426,-3.0573,-2.4448,-2.2916,-1.2223,1.4752,0.0176,
41.853563,-3.0573,-2.4448,-2.2916,-1.2223,1.4752,0.0176,
41.854398,-1.9155,-1.1018,-0.2795,-1.2223,1.4752,0.0176,
41.874776,-1.9155,-1.1018,-0.2795,0.3613,0.1984,-0.0405,
41.919202,-1.9155,-1.1018,-0.2795,0.3613,0.1984,-0.0405,
41.920383,-1.8481,-1.8072,-1.2369,0.3613,0.1984,-0.0405,
41.939923,-1.8481,-1.8072,-1.2369,0.9062,-0.3019,-0.1272,
41.985798,-1.8481,-1.8072,-1.2369,0.9062,-0.3019,-0.1272,
41.987198,-0.3222,1.0132,0.5915,0.9062,-0.3019,-0.1272,
42.005146,-0.3222,1.0132,0.5915,0.2789,0.5108,0.2526,
42.050261,-0.3222,1.0132,0.5915,0.2789,0.5108,0.2526,
42.051662,2.9245,2.8954,7.6349,0.2789,0.5108,0.2526,
42.069485,2.9245,2.8954,7.6349,-0.1969,-1.4360,0.1900,
42.115716,2.9245,2.8954,7.6349,-0.1969,-1.4360,0.1900,
42.116687,-0.5848,-2.4707,-0.3715,-0.1969,-1.4360,0.1900,
42.136783,-0.5848,-2.4707,-0.3715,2.6912,-0.4126,-0.6817,
42.182138,-0.5848,-2.4707,-0.3715,2.6912,-0.4126,-0.6817,
42.182663,-2.1256,3.1612,-4.6290,2.6912,-0.4126,-0.6817,
42.201140,-2.1256,3.1612,-4.6290,0.7002,-0.3977,-0.8850,
42.246403,-2.1256,3.1612,-4.6290,0.7002,-0.3977,-0.8850,
42.246978,-2.5868,-0.8747,-1.0211,0.7002,-0.3977,-0.8850,
42.266055,-2.5868,-0.8747,-1.0211,-0.1648,-0.7191,-0.5151,
42.311705,-2.5868,-0.8747,-1.0211,-0.1648,-0.7191,-0.5151,
42.312596,-0.8609,0.0130,-0.9051,-0.1648,-0.7191,-0.5151,
42.331740,-0.8609,0.0130,-0.9051,1.3715,-0.9464,-0.0822,
42.378141,-0.8609,0.0130,-0.9051,1.3715,-0.9464,-0.0822,
42.378654,0.4620,-0.6146,-1.2039,1.3715,-0.9464,-0.0822,
42.397727,0.4620,-0.6146,-1.2039,0.2234,-1.3572,0.0470,
42.442965,0.4620,-0.6146,-1.2039,0.2234,-1.3572,0.0470,
42.443481,0.7501,-0.4456,0.1808,0.2234,-1.3572,0.0470,
42.464219,0.7501,-0.4456,0.1808,0.1061,-2.1907,0.0357,
42.507991,0.7501,-0.4456,0.1808,0.1061,-2.1907,0.0357,
42.509079,0.5651,-0.4599,1.4558,0.1061,-2.1907,0.0357,
42.528545,0.5651,-0.4599,1.4558,0.1642,-1.2413,-0.1920,
42.573826,0.5651,-0.4599,1.4558,0.1642,-1.2413,-0.1920,
42.575680,0.5581,-0.5210,1.0287,0.1642,-1.2413,-0.1920,
42.594047,0.5581,-0.5210,1.0287,0.5843,0.1231,-0.5249,
42.640637,0.5581,-0.5210,1.0287,0.5843,0.1231,-0.5249,
42.642256,0.8560,0.1003,0.5230,0.5843,0.1231,-0.5249,
42.660933,0.8560,0.1003,0.5230,0.4371,0.2984,-0.3743,
42.704266,0.8560,0.1003,0.5230,0.4371,0.2984,-0.3743,
42.705924,2.1380,1.4209,1.1976,0.4371,0.2984,-0.3743,
42.724884,2.1380,1.4209,1.1976,-0.1982,-1.1215,0.3326,
42.770806,2.1380,1.4209,1.1976,-0.1982,-1.1215,0.3326,
42.772578,2.3349,2.6921,1.1247,-0.1982,-1.1215,0.3326,
42.790283,2.3349,2.6921,1.1247,-1.3806,-2.0507,0.9656,
42.837649,2.3349,2.6921,1.1247,-1.3806,-2.0507,0.9656,
42.839657,-1.0687,0.1926,1.0642,-1.3806,-2.0507,0.9656,
42.856872,-1.0687,0.1926,1.0642,-2.6971,-1.0939,1.1797,
42.902192,-1.0687,0.1926,1.0642,-2.6971,-1.0939,1.1797,
42.903854,-1.3196,2.7102,-0.6478,-2.6971,-1.0939,1.1797,
42.921086,-1.3196,2.7102,-0.6478,-1.3285,-0.0715,1.0548,
42.967025,-1.3196,2.7102,-0.6478,-1.3285,-0.0715,1.0548,
42.968839,-2.0773,-0.4599,-0.9250,-1.3285,-0.0715,1.0548,
42.987464,-2.0773,-0.4599,-0.9250,-1.4809,-0.7617,0.6829,
43.033040,-2.0773,-0.4599,-0.9250,-1.4809,-0.7617,0.6829,
43.034690,-2.1987,-1.9230,-1.8021,-1.4809,-0.7617,0.6829,
43.052857,-2.1987,-1.9230,-1.8021,-0.5457,0.9189,0.5070,
43.099415,-2.1987,-1.9230,-1.8021,-0.5457,0.9189,0.5070,
43.100135,-1.1144,-1.2159,-0.5046,-0.5457,0.9189,0.5070,
43.117990,-1.1144,-1.2159,-0.5046,-0.0701,0.4391,0.0875,
43.163477,-1.1144,-1.2159,-0.5046,-0.0701,0.4391,0.0875,
43.164151,-2.1156,-2.0575,-1.0763,-0.0701,0.4391,0.0875,
43.184880,-2.1156,-2.0575,-1.0763,0.4826,0.5754,-0.1955,
43.227927,-2.1156,-2.0575,-1.0763,0.4826,0.5754,-0.1955,
43.228583,0.2597,-0.2017,0.5229,0.4826,0.5754,-0.1955,
43.249497,0.2597,-0.2017,0.5229,0.4646,0.3975,-0.0990,
43.294471,0.2597,-0.2017,0.5229,0.4646,0.3975,-0.0990,
43.296146,3.8706,2.3368,5.7258,0.4646,0.3975,-0.0990,
43.313365,3.8706,2.3368,5.7258,-0.1326,-0.2002,0.6095,
43.360579,3.8706,2.3368,5.7258,-0.1326,-0.2002,0.6095,
43.361188,2.3163,0.8829,1.4454,-0.1326,-0.2002,0.6095,
43.379377,2.3163,0.8829,1.4454,1.7581,0.5840,-0.6869,
43.424856,2.3163,0.8829,1.4454,1.7581,0.5840,-0.6869,
43.425551,-1.9116,1.1443,-3.3073,1.7581,0.5840,-0.6869,
43.444842,-1.9116,1.1443,-3.3073,1.3566,1.0386,-1.3018,
43.489908,-1.9116,1.1443,-3.3073,1.3566,1.0386,-1.3018,
43.491402,-3.7976,-2.1708,-1.7789,1.3566,1.0386,-1.3018,
43.509842,-3.7976,-2.1708,-1.7789,0.0999,0.4554,-0.6669,
43.556359,-3.7976,-2.1708,-1.7789,0.0999,0.4554,-0.6669,
43.558254,-2.6911,0.8702,-1.3565,0.0999,0.4554,-0.6669,
43.576792,-2.6911,0.8702,-1.3565,1.0049,-0.5311,0.0221,
43.621920,-2.6911,0.8702,-1.3565,1.0049,-0.5311,0.0221,
43.625056,-0.5080,-0.5363,-0.6664,1.0049,-0.5311,0.0221,
43.641944,-0.5080,-0.5363,-0.6664,0.3131,-0.7850,0.0318,
43.688332,-0.5080,-0.5363,-0.6664,0.3131,-0.7850,0.0318,
43.690074,0.9030,-0.2902,0.2266,0.3131,-0.7850,0.0318,
43.707100,0.9030,-0.2902,0.2266,0.1449,-1.2779,0.0509,
43.753232,0.9030,-0.2902,0.2266,0.1449,-1.2779,0.0509,
43.754795,1.7475,-1.2358,0.2814,0.1449,-1.2779,0.0509,
43.773207,1.7475,-1.2358,0.2814,0.5450,-0.2874,-0.5256,
43.818198,1.7475,-1.2358,0.2814,0.5450,-0.2874,-0.5256,
43.820013,1.3440,-0.1988,1.0676,0.5450,-0.2874,-0.5256,
43.839234,1.3440,-0.1988,1.0676,0.8166,0.1159,-0.4577,
43.883857,1.3440,-0.1988,1.0676,0.8166,0.1159,-0.4577,
43.885494,1.3676,0.2860,0.8424,0.8166,0.1159,-0.4577,
43.903621,1.3676,0.2860,0.8424,0.0455,-0.0906,-0.2269,
43.950821,1.3676,0.2860,0.8424,0.0455,-0.0906,-0.2269,
43.952790,2.6130,1.2061,1.3579,0.0455,-0.0906,-0.2269,
43.968330,2.6130,1.2061,1.3579,-0.0396,-0.1345,0.3586,
44.015370,2.6130,1.2061,1.3579,-0.0396,-0.1345,0.3586,
44.017150,2.2919,1.6355,0.6129,-0.0396,-0.1345,0.3586,
44.035433,2.2919,1.6355,0.6129,-1.4592,-0.2621,0.8467,
44.079510,2.2919,1.6355,0.6129,-1.4592,-0.2621,0.8467,
44.081027,-0.3697,0.2544,0.2106,-1.4592,-0.2621,0.8467,
44.100173,-0.3697,0.2544,0.2106,-1.5927,1.7379,0.9609,
44.145209,-0.3697,0.2544,0.2106,-1.5927,1.7379,0.9609,
44.147783,-0.5937,2.5994,-1.6858,-1.5927,1.7379,0.9609,
44.165124,-0.5937,2.5994,-1.6858,-1.0606,0.3887,0.6692,
44.211331,-0.5937,2.5994,-1.6858,-1.0606,0.3887,0.6692,
44.213180,-1.9687,-0.4344,-2.0861,-1.0606,0.3887,0.6692,
44.231049,-1.9687,-0.4344,-2.0861,-1.6996,0.0215,0.5695,
44.276679,-1.9687,-0.4344,-2.0861,-1.6996,0.0215,0.5695,
44.278253,-2.2603,-1.2891,-1.5988,-1.6996,0.0215,0.5695,
44.296253,-2.2603,-1.2891,-1.5988,-0.4946,1.0676,0.3635,
44.343367,-2.2603,-1.2891,-1.5988,-0.4946,1.0676,0.3635,
44.344995,-1.4455,-1.0674,-1.4580,-0.4946,1.0676,0.3635,
44.363649,-1.4455,-1.0674,-1.4580,0.1987,0.7595,0.3734,
44.408602,-1.4455,-1.0674,-1.4580,0.1987,0.7595,0.3734,
44.409338,-0.6492,-2.2154,-0.9732,0.1987,0.7595,0.3734,
44.429086,-0.6492,-2.2154,-0.9732,0.5438,0.8276,0.0689,
44.473522,-0.6492,-2.2154,-0.9732,0.5438,0.8276,0.0689,
44.475270,1.5369,0.7270,1.7432,0.5438,0.8276,0.0689,
44.493528,1.5369,0.7270,1.7432,0.7634,2.7666,-0.0133,
44.537955,1.5369,0.7270,1.7432,0.7634,2.7666,-0.0133,
44.539591,0.4278,2.5668,5.9512,0.7634,2.7666,-0.0133,
44.557866,0.4278,2.5668,5.9512,0.3861,-0.3575,0.2370,
44.604174,0.4278,2.5668,5.9512,0.3861,-0.3575,0.2370,
44.605629,0.5652,0.0112,-1.5596,0.3861,-0.3575,0.2370,
44.623647,0.5652,0.0112,-1.5596,1.6558,0.0732,-0.4133,
44.670024,0.5652,0.0112,-1.5596,1.6558,0.0732,-0.4133,
44.671473,1.1849,0.3435,-3.5956,1.6558,0.0732,-0.4133,
44.688958,1.1849,0.3435,-3.5956,1.4806,2.0586,-1.4910,
44.735725,1.1849,0.3435,-3.5956,1.4806,2.0586,-1.4910,
44.737056,-1.0235,-1.7322,-2.0576,1.4806,2.0586,-1.4910,
44.755832,-1.0235,-1.7322,-2.0576,1.4149,2.1102,-0.1466,
44.802300,-1.0235,-1.7322,-2.0576,1.4149,2.1102,-0.1466,
44.803906,-1.0127,0.2143,-1.6514,1.4149,2.1102,-0.1466,
44.820493,-1.0127,0.2143,-1.6514,0.6715,-0.7489,0.4439,
44.865823,-1.0127,0.2143,-1.6514,0.6715,-0.7489,0.4439,
44.867862,-0.9813,-0.3936,-0.5588,0.6715,-0.7489,0.4439,
44.886201,-0.9813,-0.3936,-0.5588,0.0606,-1.0562,0.3367,
44.931115,-0.9813,-0.3936,-0.5588,0.0606,-1.0562,0.3367,
44.932531,0.6858,-1.0168,-0.2504,0.0606,-1.0562,0.3367,
44.951454,0.6858,-1.0168,-0.2504,0.5822,-0.2757,-0.2437,
44.997321,0.6858,-1.0168,-0.2504,0.5822,-0.2757,-0.2437,
44.999346,0.3564,-0.4645,0.4987,0.5822,-0.2757,-0.2437,
45.018596,0.3564,-0.4645,0.4987,0.7413,0.0918,-0.4801,
45.061131,0.3564,-0.4645,0.4987,0.7413,0.0918,-0.4801,
45.062475,1.0482,-0.0938,0.9019,0.7413,0.0918,-0.4801,
45.081858,1.0482,-0.0938,0.9019,0.4166,-0.1857,-0.3922,
45.127708,1.0482,-0.0938,0.9019,0.4166,-0.1857,-0.3922,
45.129112,2.1310,0.1519,1.1705,0.4166,-0.1857,-0.3922,
45.148042,2.1310,0.1519,1.1705,0.2121,-0.3583,-0.4296,
45.192664,2.1310,0.1519,1.1705,0.2121,-0.3583,-0.4296,
45.193266,2.8259,0.8452,1.6131,0.2121,-0.3583,-0.4296,
45.212235,2.8259,0.8452,1.6131,-0.0202,0.1472,0.0182,
45.258608,2.8259,0.8452,1.6131,-0.0202,0.1472,0.0182,
45.259851,2.9027,1.7436,-0.0558,-0.0202,0.1472,0.0182,
45.278799,2.9027,1.7436,-0.0558,-0.8465,1.3241,0.0722,
45.324262,2.9027,1.7436,-0.0558,-0.8465,1.3241,0.0722,
45.325440,0.5241,-0.4444,-0.4979,-0.8465,1.3241,0.0722,
45.344144,0.5241,-0.4444,-0.4979,-0.7103,2.0794,-0.0667,
45.389637,0.5241,-0.4444,-0.4979,-0.7103,2.0794,-0.0667,
45.391333,-1.6386,1.2378,-3.3660,-0.7103,2.0794,-0.0667,
45.409371,-1.6386,1.2378,-3.3660,-1.2692,-0.2178,0.4449,
45.455157,-1.6386,1.2378,-3.3660,-1.2692,-0.2178,0.4449,
45.456651,-1.5269,-0.5507,-2.9385,-1.2692,-0.2178,0.4449,
45.476598,-1.5269,-0.5507,-2.9385,-2.0496,0.0284,0.7869,
45.521589,-1.5269,-0.5507,-2.9385,-2.0496,0.0284,0.7869,
45.523505,-1.0996,-1.2376,-1.2715,-2.0496,0.0284,0.7869,
45.541276,-1.0996,-1.2376,-1.2715,-0.7671,0.7746,0.6738,
45.585175,-1.0996,-1.2376,-1.2715,-0.7671,0.7746,0.6738,
45.585700,0.0794,-0.4342,-0.5879,-0.7671,0.7746,0.6738,
45.606770,0.0794,-0.4342,-0.5879,0.4890,0.9261,1.1629,
45.652471,0.0794,-0.4342,-0.5879,0.4890,0.9261,1.1629,
45.653941,0.7898,-2.2282,-1.3313,0.4890,0.9261,1.1629,
45.671151,0.7898,-2.2282,-1.3313,0.2482,1.3859,0.5805,
45.717607,0.7898,-2.2282,-1.3313,0.2482,1.3859,0.5805,
45.719460,-0.1588,-1.6951,-0.6136,0.2482,1.3859,0.5805,
45.737976,-0.1588,-1.6951,-0.6136,0.5099,2.7920,-0.4275,
45.783488,-0.1588,-1.6951,-0.6136,0.5099,2.7920,-0.4275,
45.785301,-0.3102,3.9654,4.7577,0.5099,2.7920,-0.4275,
45.804701,-0.3102,3.9654,4.7577,-0.1840,0.8341,0.8331,
45.848908,-0.3102,3.9654,4.7577,-0.1840,0.8341,0.8331,
45.850741,2.4680,-2.2998,1.3220,-0.1840,0.8341,0.8331,
45.867826,2.4680,-2.2998,1.3220,1.6712,0.3303,0.7648,
45.914740,2.4680,-2.2998,1.3220,1.6712,0.3303,0.7648,
45.916854,2.8282,1.9651,-3.0844,1.6712,0.3303,0.7648,
45.934508,2.8282,1.9651,-3.0844,1.2497,1.7735,-0.8920,
45.979189,2.8282,1.9651,-3.0844,1.2497,1.7735,-0.8920,
45.980859,-1.3863,-2.0874,-1.9547,1.2497,1.7735,-0.8920,
45.999019,-1.3863,-2.0874,-1.9547,1.1620,0.9875,-0.9026,
46.044665,-1.3863,-2.0874,-1.9547,1.1620,0.9875,-0.9026,
46.046202,-2.7263,1.3027,-3.3992,1.1620,0.9875,-0.9026,
46.064819,-2.7263,1.3027,-3.3992,0.8515,0.9354,0.1365,
46.111755,-2.7263,1.3027,-3.3992,0.8515,0.9354,0.1365,
46.113697,-1.5328,-1.0444,-1.7578,0.8515,0.9354,0.1365,
46.131217,-1.5328,-1.0444,-1.7578,0.5289,0.3262,0.2178,
46.175976,-1.5328,-1.0444,-1.7578,0.5289,0.3262,0.2178,
46.177772,0.7538,-0.0781,0.6937,0.5289,0.3262,0.2178,
46.195582,0.7538,-0.0781,0.6937,0.1717,0.2147,0.2191,
46.241250,0.7538,-0.0781,0.6937,0.1717,0.2147,0.2191,
46.242278,0.8435,-1.1261,0.0210,0.1717,0.2147,0.2191,
46.259883,0.8435,-1.1261,0.0210,1.0308,0.1174,-0.3635,
46.307739,0.8435,-1.1261,0.0210,1.0308,0.1174,-0.3635,
46.309596,0.0293,-0.3066,-0.0669,1.0308,0.1174,-0.3635,
46.327372,0.0293,-0.3066,-0.0669,1.1200,0.6164,-0.5458,
46.371501,0.0293,-0.3066,-0.0669,1.1200,0.6164,-0.5458,
46.372298,1.0634,-0.1709,0.9259,1.1200,0.6164,-0.5458,
46.391711,1.0634,-0.1709,0.9259,0.5605,-0.2747,-0.3960,
46.438174,1.0634,-0.1709,0.9259,0.5605,-0.2747,-0.3960,
46.439825,2.6995,0.2224,0.1143,0.5605,-0.2747,-0.3960,
46.457635,2.6995,0.2224,0.1143,0.0834,-0.1242,-0.2921,
46.502410,2.6995,0.2224,0.1143,0.0834,-0.1242,-0.2921,
46.504176,2.0987,0.7184,2.6590,0.0834,-0.1242,-0.2921,
46.523711,2.0987,0.7184,2.6590,-0.1865,-0.2518,0.2944,
46.568400,2.0987,0.7184,2.6590,-0.1865,-0.2518,0.2944,
46.569931,3.7577,1.1836,-0.2393,-0.1865,-0.2518,0.2944,
46.588927,3.7577,1.1836,-0.2393,-1.1609,0.9610,0.5568,
46.634853,3.7577,1.1836,-0.2393,-1.1609,0.9610,0.5568,
46.636961,0.3479,-0.3344,-0.0846,-1.1609,0.9610,0.5568,
46.653852,0.3479,-0.3344,-0.0846,-1.5391,0.6668,0.6423,
46.699949,0.3479,-0.3344,-0.0846,-1.5391,0.6668,0.6423,
46.702288,-1.5732,2.6324,-3.1989,-1.5391,0.6668,0.6423,
46.719240,-1.5732,2.6324,-3.1989,-1.3158,0.4830,1.1784,
46.765349,-1.5732,2.6324,-3.1989,-1.3158,0.4830,1.1784,
46.767087,-1.4703,0.3926,-2.0606,-1.3158,0.4830,1.1784,
46.785783,-1.4703,0.3926,-2.0606,-1.4235,0.2263,0.5886,
46.830562,-1.4703,0.3926,-2.0606,-1.4235,0.2263,0.5886,
46.832625,-2.0735,-1.0395,-0.8489,-1.4235,0.2263,0.5886,
46.850736,-2.0735,-1.0395,-0.8489,-0.3013,1.0124,0.7532,
46.895924,-2.0735,-1.0395,-0.8489,-0.3013,1.0124,0.7532,
46.897533,-0.4076,-1.6652,-1.3959,-0.3013,1.0124,0.7532,
46.916351,-0.4076,-1.6652,-1.3959,0.3592,0.9426,0.2773,
46.961618,-0.4076,-1.6652,-1.3959,0.3592,0.9426,0.2773,
46.963123,-1.4136,-1.9954,-1.4242,0.3592,0.9426,0.2773,
46.981915,-1.4136,-1.9954,-1.4242,0.2921,0.7813,-0.3961,
47.027205,-1.4136,-1.9954,-1.4242,0.2921,0.7813,-0.3961,
47.029096,-0.7183,1.2214,1.3083,0.2921,0.7813,-0.3961,
47.046766,-0.7183,1.2214,1.3083,0.1306,0.7370,-0.4586,
47.091164,-0.7183,1.2214,1.3083,0.1306,0.7370,-0.4586,
47.092243,1.4884,3.1673,4.7112,0.1306,0.7370,-0.4586,
47.111936,1.4884,3.1673,4.7112,0.3537,-1.0249,1.2946,
47.157458,1.4884,3.1673,4.7112,0.3537,-1.0249,1.2946,
47.159820,2.7510,-2.8190,-2.2016,0.3537,-1.0249,1.2946,
47.179523,2.7510,-2.8190,-2.2016,1.8615,0.8132,-0.8468,
47.223451,2.7510,-2.8190,-2.2016,1.8615,0.8132,-0.8468,
