
time,ax,ay,az,wx,wy,wz,
0.025099,0.0000,0.0000,0.0000,-0.0753,-0.1652,0.0475,
0.025403,0.0000,0.0000,0.0000,-0.0753,-0.1652,0.0475,
0.038671,0.0000,0.0000,0.0000,-0.0632,-0.0727,0.0577,
0.085488,0.0000,0.0000,0.0000,-0.0632,-0.0727,0.0577,
0.102731,0.0000,0.0000,0.0000,-0.0470,-0.0115,0.0638,
0.151571,0.0000,0.0000,0.0000,-0.0470,-0.0115,0.0638,
0.167407,0.0000,0.0000,0.0000,0.0334,-0.0721,0.0544,
0.217671,0.0000,0.0000,0.0000,0.0334,-0.0721,0.0544,
0.234089,0.0000,0.0000,0.0000,0.0547,0.0742,0.0018,
0.281691,0.0000,0.0000,0.0000,0.0547,0.0742,0.0018,
0.297969,0.0000,0.0000,0.0000,-0.1356,0.1461,0.0002,
0.348079,0.0000,0.0000,0.0000,-0.1356,0.1461,0.0002,
0.363616,0.0000,0.0000,0.0000,-0.1121,0.0878,0.1410,
0.413351,0.0000,0.0000,0.0000,-0.1121,0.0878,0.1410,
0.428839,0.0000,0.0000,0.0000,0.2622,0.5493,-0.0005,
0.479273,0.0000,0.0000,0.0000,0.2622,0.5493,-0.0005,
0.494894,0.0000,0.0000,0.0000,0.3410,0.8803,-0.0232,
0.496470,1.3051,-0.6969,-0.7859,0.3410,0.8803,-0.0232,
0.562102,1.3051,-0.6969,-0.7859,0.8567,-0.6802,0.9079,
0.577701,1.3051,-0.6969,-0.7859,0.8567,-0.6802,0.9079,
0.578878,-0.7128,0.5257,-0.3412,0.8567,-0.6802,0.9079,
0.593809,-0.7128,0.5257,-0.3412,0.8567,-0.6802,0.9079,
0.626043,-0.7128,0.5257,-0.3412,1.2970,-1.2190,1.3211,
0.659063,-0.7128,0.5257,-0.3412,1.2970,-1.2190,1.3211,
0.660342,-0.8514,1.7467,0.0139,1.2970,-1.2190,1.3211,
0.691752,-0.8514,1.7467,0.0139,1.0687,4.8549,-0.9378,
0.724599,-0.8514,1.7467,0.0139,1.0687,4.8549,-0.9378,
0.726431,-2.7197,0.3982,2.0032,1.0687,4.8549,-0.9378,
0.757000,-2.7197,0.3982,2.0032,0.1122,2.4118,-0.4372,
0.790136,-2.7197,0.3982,2.0032,0.1122,2.4118,-0.4372,
0.791751,-0.7332,-0.0912,4.0540,0.1122,2.4118,-0.4372,
0.823084,-0.7332,-0.0912,4.0540,0.2388,-1.7446,-0.6313,
0.855708,-0.7332,-0.0912,4.0540,0.2388,-1.7446,-0.6313,
0.856451,-0.7210,0.7638,1.5403,0.2388,-1.7446,-0.6313,
0.888313,-0.7210,0.7638,1.5403,-0.0189,-3.1374,0.2970,
0.921361,-0.7210,0.7638,1.5403,-0.0189,-3.1374,0.2970,
0.923654,0.7228,0.1514,0.1846,-0.0189,-3.1374,0.2970,
0.953501,0.7228,0.1514,0.1846,0.3615,-2.2200,0.5800,
0.986398,0.7228,0.1514,0.1846,0.3615,-2.2200,0.5800,
0.988015,2.8756,-1.2103,-0.4759,0.3615,-2.2200,0.5800,
1.019726,2.8756,-1.2103,-0.4759,0.7414,-0.1590,-0.0139,
1.052193,2.8756,-1.2103,-0.4759,0.7414,-0.1590,-0.0139,
1.053704,1.4664,0.1566,-1.1924,0.7414,-0.1590,-0.0139,
1.084874,1.4664,0.1566,-1.1924,0.4136,1.6926,-0.2020,
1.117776,1.4664,0.1566,-1.1924,0.4136,1.6926,-0.2020,
1.119353,-0.3500,1.9664,-0.4972,0.4136,1.6926,-0.2020,
1.149570,-0.3500,1.9664,-0.4972,-0.5883,1.2565,0.3343,
1.182885,-0.3500,1.9664,-0.4972,-0.5883,1.2565,0.3343,
1.184077,-0.2717,1.8102,-0.7786,-0.5883,1.2565,0.3343,
1.215671,-0.2717,1.8102,-0.7786,-2.4128,0.8635,1.0675,
1.247858,-0.2717,1.8102,-0.7786,-2.4128,0.8635,1.0675,
1.248989,-1.5704,-0.2190,-1.0820,-2.4128,0.8635,1.0675,
1.281069,-1.5704,-0.2190,-1.0820,-2.8588,0.9378,0.5350,
1.313661,-1.5704,-0.2190,-1.0820,-2.8588,0.9378,0.5350,
1.314434,-3.1415,0.5276,1.5597,-2.8588,0.9378,0.5350,
1.346261,-3.1415,0.5276,1.5597,-0.3065,1.1924,0.0060,
1.379678,-3.1415,0.5276,1.5597,-0.3065,1.1924,0.0060,
1.381145,-1.8141,-1.8884,0.3859,-0.3065,1.1924,0.0060,
1.411490,-1.8141,-1.8884,0.3859,0.1701,-0.7853,0.2445,
1.445050,-1.8141,-1.8884,0.3859,0.1701,-0.7853,0.2445,
1.446140,0.0259,-3.3166,-0.2561,0.1701,-0.7853,0.2445,
1.477938,0.0259,-3.3166,-0.2561,0.7068,0.5840,-0.3676,
1.513546,0.0259,-3.3166,-0.2561,0.7068,0.5840,-0.3676,
1.514500,0.6364,-1.4075,1.2610,0.7068,0.5840,-0.3676,
1.543232,0.6364,-1.4075,1.2610,0.5092,1.8692,-0.3503,
1.575698,0.6364,-1.4075,1.2610,0.5092,1.8692,-0.3503,
1.576864,0.1659,-0.5894,5.5962,0.5092,1.8692,-0.3503,
1.608210,0.1659,-0.5894,5.5962,-0.3053,-1.4247,0.5512,
1.641594,0.1659,-0.5894,5.5962,-0.3053,-1.4247,0.5512,
1.642870,-0.2158,1.8055,1.0877,-0.3053,-1.4247,0.5512,
1.673741,-0.2158,1.8055,1.0877,0.4265,-2.4668,0.3755,
1.706729,-0.2158,1.8055,1.0877,0.4265,-2.4668,0.3755,
1.707884,-2.0652,1.8321,-3.0649,0.4265,-2.4668,0.3755,
1.739335,-2.0652,1.8321,-3.0649,0.8181,0.0293,-0.0257,
1.772295,-2.0652,1.8321,-3.0649,0.8181,0.0293,-0.0257,
1.773607,-2.3431,2.0633,-2.5637,0.8181,0.0293,-0.0257,
1.805062,-2.3431,2.0633,-2.5637,1.4627,-0.4039,-0.5530,
1.837693,-2.3431,2.0633,-2.5637,1.4627,-0.4039,-0.5530,
1.838945,-1.3599,0.5787,-2.3531,1.4627,-0.4039,-0.5530,
1.870370,-1.3599,0.5787,-2.3531,0.1883,1.2173,-0.6145,
1.903523,-1.3599,0.5787,-2.3531,0.1883,1.2173,-0.6145,
1.904617,-0.0402,-0.6197,1.3425,0.1883,1.2173,-0.6145,
1.935874,-0.0402,-0.6197,1.3425,0.3987,0.6229,-0.6266,
1.968698,-0.0402,-0.6197,1.3425,0.3987,0.6229,-0.6266,
1.969757,-0.8673,0.0311,0.9924,0.3987,0.6229,-0.6266,
2.002874,-0.8673,0.0311,0.9924,0.2837,-1.2567,0.0289,
2.034233,-0.8673,0.0311,0.9924,0.2837,-1.2567,0.0289,
2.035967,1.0976,-0.4201,0.3789,0.2837,-1.2567,0.0289,
2.066412,1.0976,-0.4201,0.3789,-0.4566,-1.1423,0.4194,
2.099867,1.0976,-0.4201,0.3789,-0.4566,-1.1423,0.4194,
2.101424,1.8195,-0.8377,2.1795,-0.4566,-1.1423,0.4194,
2.132317,1.8195,-0.8377,2.1795,0.4762,-0.7150,-0.1122,
2.164928,1.8195,-0.8377,2.1795,0.4762,-0.7150,-0.1122,
2.165727,1.4612,0.3961,0.3486,0.4762,-0.7150,-0.1122,
2.197507,1.4612,0.3961,0.3486,0.7285,0.2954,-0.4093,
2.230131,1.4612,0.3961,0.3486,0.7285,0.2954,-0.4093,
2.231117,1.6784,1.7385,0.1801,0.7285,0.2954,-0.4093,
2.263387,1.6784,1.7385,0.1801,-0.0987,1.0835,-0.0970,
2.296246,1.6784,1.7385,0.1801,-0.0987,1.0835,-0.0970,
2.297472,0.2018,2.5195,-0.6605,-0.0987,1.0835,-0.0970,
2.328304,0.2018,2.5195,-0.6605,-2.7976,1.1994,0.5838,
2.362913,0.2018,2.5195,-0.6605,-2.7976,1.1994,0.5838,
2.364749,-2.0118,0.1141,0.2742,-2.7976,1.1994,0.5838,
2.394467,-2.0118,0.1141,0.2742,-1.8598,-1.3865,1.3354,
2.427582,-2.0118,0.1141,0.2742,-1.8598,-1.3865,1.3354,
2.428681,-1.3943,1.4237,-0.3630,-1.8598,-1.3865,1.3354,
2.459993,-1.3943,1.4237,-0.3630,-1.1457,0.1411,0.7398,
2.492556,-1.3943,1.4237,-0.3630,-1.1457,0.1411,0.7398,
2.493747,-1.8616,-1.3155,-0.3171,-1.1457,0.1411,0.7398,
2.525701,-1.8616,-1.3155,-0.3171,-0.3357,0.5400,0.2088,
2.558065,-1.8616,-1.3155,-0.3171,-0.3357,0.5400,0.2088,
2.559421,-2.3308,-2.5234,-1.2193,-0.3357,0.5400,0.2088,
2.590226,-2.3308,-2.5234,-1.2193,0.3709,1.0064,-0.2705,
2.623449,-2.3308,-2.5234,-1.2193,0.3709,1.0064,-0.2705,
2.624654,-2.3886,-2.1748,-1.9612,0.3709,1.0064,-0.2705,
2.655467,-2.3886,-2.1748,-1.9612,0.8468,2.4354,-0.2679,
2.688687,-2.3886,-2.1748,-1.9612,0.8468,2.4354,-0.2679,
2.689851,1.2079,-0.2059,4.7500,0.8468,2.4354,-0.2679,
2.721733,1.2079,-0.2059,4.7500,0.3581,0.4588,0.3041,
2.753962,1.2079,-0.2059,4.7500,0.3581,0.4588,0.3041,
2.755565,-1.8799,-0.0262,2.4628,0.3581,0.4588,0.3041,
2.787633,-1.8799,-0.0262,2.4628,-0.5814,-2.0527,0.2075,
2.819828,-1.8799,-0.0262,2.4628,-0.5814,-2.0527,0.2075,
2.821127,-4.0425,-3.0924,-1.7782,-0.5814,-2.0527,0.2075,
2.852255,-4.0425,-3.0924,-1.7782,0.6055,0.4972,-0.0660,
2.885303,-4.0425,-3.0924,-1.7782,0.6055,0.4972,-0.0660,
2.886388,1.2411,7.5320,0.1245,0.6055,0.4972,-0.0660,
2.919183,1.2411,7.5320,0.1245,0.5005,-0.4702,0.1500,
2.951044,1.2411,7.5320,0.1245,0.5005,-0.4702,0.1500,
2.952974,0.8199,1.2909,-1.8317,0.5005,-0.4702,0.1500,
2.983218,0.8199,1.2909,-1.8317,1.1817,0.0881,-0.3047,
3.016353,0.8199,1.2909,-1.8317,1.1817,0.0881,-0.3047,
3.017064,1.0996,-0.7811,-1.4429,1.1817,0.0881,-0.3047,
3.048803,1.0996,-0.7811,-1.4429,0.6067,1.4696,-0.3007,
3.081969,1.0996,-0.7811,-1.4429,0.6067,1.4696,-0.3007,
3.083836,-1.6938,-0.9078,1.1814,0.6067,1.4696,-0.3007,
3.114327,-1.6938,-0.9078,1.1814,0.6048,-0.4850,-0.0275,
3.146926,-1.6938,-0.9078,1.1814,0.6048,-0.4850,-0.0275,
3.147873,-0.7511,0.4355,0.6547,0.6048,-0.4850,-0.0275,
3.179457,-0.7511,0.4355,0.6547,0.2563,-1.6857,0.0472,
3.214188,-0.7511,0.4355,0.6547,0.2563,-1.6857,0.0472,
3.215592,-0.5948,-0.1399,-0.3372,0.2563,-1.6857,0.0472,
3.244759,-0.5948,-0.1399,-0.3372,0.3940,-1.6448,-0.2359,
3.278966,-0.5948,-0.1399,-0.3372,0.3940,-1.6448,-0.2359,
3.279855,0.1855,-0.0277,-0.7495,0.3940,-1.6448,-0.2359,
3.311757,0.1855,-0.0277,-0.7495,0.1666,-0.1564,-0.4168,
3.343645,0.1855,-0.0277,-0.7495,0.1666,-0.1564,-0.4168,
3.345215,-0.2516,-0.3366,0.6819,0.1666,-0.1564,-0.4168,
3.376274,-0.2516,-0.3366,0.6819,0.4769,-0.9010,-0.4782,
3.409367,-0.2516,-0.3366,0.6819,0.4769,-0.9010,-0.4782,
3.411364,0.5818,-0.6596,0.4203,0.4769,-0.9010,-0.4782,
3.441518,0.5818,-0.6596,0.4203,0.5486,-0.8308,-0.4354,
3.474248,0.5818,-0.6596,0.4203,0.5486,-0.8308,-0.4354,
3.475999,0.2494,-0.3264,0.1630,0.5486,-0.8308,-0.4354,
3.506970,0.2494,-0.3264,0.1630,0.4895,-0.1083,-0.4685,
3.540322,0.2494,-0.3264,0.1630,0.4895,-0.1083,-0.4685,
3.542020,-0.1871,0.7009,0.0498,0.4895,-0.1083,-0.4685,
3.573074,-0.1871,0.7009,0.0498,0.3717,-0.1211,-0.4174,
3.606448,-0.1871,0.7009,0.0498,0.3717,-0.1211,-0.4174,
3.607943,1.9521,3.1802,-0.1625,0.3717,-0.1211,-0.4174,
3.637424,1.9521,3.1802,-0.1625,-0.1206,0.8690,-0.3025,
3.670754,1.9521,3.1802,-0.1625,-0.1206,0.8690,-0.3025,
3.671892,-0.4416,3.9853,1.0260,-0.1206,0.8690,-0.3025,
3.703275,-0.4416,3.9853,1.0260,-1.7144,0.7367,0.2193,
3.737339,-0.4416,3.9853,1.0260,-1.7144,0.7367,0.2193,
3.738252,-2.7775,0.2766,0.1145,-1.7144,0.7367,0.2193,
3.770345,-2.7775,0.2766,0.1145,-1.4238,-1.5165,0.7747,
3.802725,-2.7775,0.2766,0.1145,-1.4238,-1.5165,0.7747,
3.804233,-2.3350,-1.6936,-0.9542,-1.4238,-1.5165,0.7747,
3.834876,-2.3350,-1.6936,-0.9542,-1.0229,-1.5698,0.6988,
3.867918,-2.3350,-1.6936,-0.9542,-1.0229,-1.5698,0.6988,
3.869129,-1.6688,-2.6982,-0.2065,-1.0229,-1.5698,0.6988,
3.900348,-1.6688,-2.6982,-0.2065,-1.0424,-0.3395,0.3622,
3.932532,-1.6688,-2.6982,-0.2065,-1.0424,-0.3395,0.3622,
3.933402,1.7443,-3.4896,2.2433,-1.0424,-0.3395,0.3622,
3.966285,1.7443,-3.4896,2.2433,0.7440,-1.1932,-0.0699,
3.997900,1.7443,-3.4896,2.2433,0.7440,-1.1932,-0.0699,
3.999745,2.7374,-3.9614,-0.2863,0.7440,-1.1932,-0.0699,
4.031251,2.7374,-3.9614,-0.2863,0.6512,1.2570,0.2489,
4.064628,2.7374,-3.9614,-0.2863,0.6512,1.2570,0.2489,
4.066144,-0.3971,-0.8484,-0.0541,0.6512,1.2570,0.2489,
4.097054,-0.3971,-0.8484,-0.0541,1.0168,2.6843,0.0205,
4.129962,-0.3971,-0.8484,-0.0541,1.0168,2.6843,0.0205,
4.131787,-2.1467,7.4294,-1.5561,1.0168,2.6843,0.0205,
4.161927,-2.1467,7.4294,-1.5561,0.1067,-0.2077,0.4914,
4.195289,-2.1467,7.4294,-1.5561,0.1067,-0.2077,0.4914,
4.196851,-5.0019,0.9469,-1.6722,0.1067,-0.2077,0.4914,
4.227221,-5.0019,0.9469,-1.6722,-0.0493,-1.4268,0.0667,
4.261877,-5.0019,0.9469,-1.6722,-0.0493,-1.4268,0.0667,
4.263663,-3.1767,0.7942,-1.7829,-0.0493,-1.4268,0.0667,
4.294643,-3.1767,0.7942,-1.7829,-0.0619,-0.0501,-0.3389,
4.326079,-3.1767,0.7942,-1.7829,-0.0619,-0.0501,-0.3389,
4.327961,0.5446,0.0407,-0.5530,-0.0619,-0.0501,-0.3389,
4.359196,0.5446,0.0407,-0.5530,0.0289,0.1553,-0.6148,
4.391790,0.5446,0.0407,-0.5530,0.0289,0.1553,-0.6148,
4.394045,2.8325,-1.1817,1.2006,0.0289,0.1553,-0.6148,
4.423794,2.8325,-1.1817,1.2006,0.2245,-0.1697,-0.4424,
4.456699,2.8325,-1.1817,1.2006,0.2245,-0.1697,-0.4424,
4.457969,0.4419,-0.6410,0.4719,0.2245,-0.1697,-0.4424,
4.490119,0.4419,-0.6410,0.4719,0.7625,0.2917,-0.6061,
4.523056,0.4419,-0.6410,0.4719,0.7625,0.2917,-0.6061,
4.524455,0.8216,-0.0082,-0.0913,0.7625,0.2917,-0.6061,
4.555059,0.8216,-0.0082,-0.0913,0.0470,-0.3105,-0.4026,
4.587783,0.8216,-0.0082,-0.0913,0.0470,-0.3105,-0.4026,
4.589455,4.3178,0.3601,1.7762,0.0470,-0.3105,-0.4026,
4.620390,4.3178,0.3601,1.7762,0.9672,0.2462,-0.2903,
4.653013,4.3178,0.3601,1.7762,0.9672,0.2462,-0.2903,
4.654051,2.9012,3.7914,-0.9766,0.9672,0.2462,-0.2903,
4.686246,2.9012,3.7914,-0.9766,0.1081,4.0241,-0.2358,
4.719300,2.9012,3.7914,-0.9766,0.1081,4.0241,-0.2358,
4.720973,-3.3713,1.7028,-1.6717,0.1081,4.0241,-0.2358,
4.751430,-3.3713,1.7028,-1.6717,-1.6944,-0.7511,0.3998,
4.784461,-3.3713,1.7028,-1.6717,-1.6944,-0.7511,0.3998,
4.785626,-6.4318,-0.3452,-2.0445,-1.6944,-0.7511,0.3998,
4.817117,-6.4318,-0.3452,-2.0445,-2.3082,-2.0748,0.8175,
4.849957,-6.4318,-0.3452,-2.0445,-2.3082,-2.0748,0.8175,
4.851054,-4.1764,-4.9140,-0.6657,-2.3082,-2.0748,0.8175,
4.882032,-4.1764,-4.9140,-0.6657,-0.9140,1.0821,-0.1790,
4.915175,-4.1764,-4.9140,-0.6657,-0.9140,1.0821,-0.1790,
4.916250,0.4822,-2.6805,1.7216,-0.9140,1.0821,-0.1790,
4.948563,0.4822,-2.6805,1.7216,0.1309,-0.6579,0.4536,
4.980197,0.4822,-2.6805,1.7216,0.1309,-0.6579,0.4536,
4.980924,6.1697,-1.8732,2.1565,0.1309,-0.6579,0.4536,
5.013180,6.1697,-1.8732,2.1565,0.4192,0.6315,0.3995,
5.045936,6.1697,-1.8732,2.1565,0.4192,0.6315,0.3995,
5.047075,-0.5065,-2.6069,-1.1933,0.4192,0.6315,0.3995,
5.078436,-0.5065,-2.6069,-1.1933,1.3454,3.1965,-0.2703,
5.111427,-0.5065,-2.6069,-1.1933,1.3454,3.1965,-0.2703,
5.112470,-1.4986,4.8479,2.5181,1.3454,3.1965,-0.2703,
5.144380,-1.4986,4.8479,2.5181,0.1507,-0.0886,0.3034,
5.177663,-1.4986,4.8479,2.5181,0.1507,-0.0886,0.3034,
5.178978,-2.9869,2.5062,-2.0901,0.1507,-0.0886,0.3034,
5.211072,-2.9869,2.5062,-2.0901,0.2382,-1.8375,0.7489,
5.242446,-2.9869,2.5062,-2.0901,0.2382,-1.8375,0.7489,
5.244215,-2.3061,0.2846,-3.5183,0.2382,-1.8375,0.7489,
5.275137,-2.3061,0.2846,-3.5183,0.6988,1.0316,-0.0316,
5.307430,-2.3061,0.2846,-3.5183,0.6988,1.0316,-0.0316,
5.308338,0.6352,0.7428,-1.4167,0.6988,1.0316,-0.0316,
5.340780,0.6352,0.7428,-1.4167,-0.0168,2.1119,-0.3821,
5.373569,0.6352,0.7428,-1.4167,-0.0168,2.1119,-0.3821,
5.374846,-0.9331,-0.8291,2.7162,-0.0168,2.1119,-0.3821,
5.405932,-0.9331,-0.8291,2.7162,0.9343,-0.4490,-0.0979,
5.438805,-0.9331,-0.8291,2.7162,0.9343,-0.4490,-0.0979,
5.440326,0.6439,-0.3292,-0.7281,0.9343,-0.4490,-0.0979,
5.471372,0.6439,-0.3292,-0.7281,0.2101,0.2584,-0.1428,
5.504238,0.6439,-0.3292,-0.7281,0.2101,0.2584,-0.1428,
5.505312,-0.0455,-0.4269,0.6762,0.2101,0.2584,-0.1428,
5.537454,-0.0455,-0.4269,0.6762,0.3047,0.2863,-0.3118,
5.569543,-0.0455,-0.4269,0.6762,0.3047,0.2863,-0.3118,
5.571394,1.5954,-0.3028,3.2940,0.3047,0.2863,-0.3118,
5.602750,1.5954,-0.3028,3.2940,1.1228,-0.8193,-0.3783,
5.636028,1.5954,-0.3028,3.2940,1.1228,-0.8193,-0.3783,
5.637654,0.3460,-0.7605,-0.1979,1.1228,-0.8193,-0.3783,
5.668263,0.3460,-0.7605,-0.1979,1.3199,0.2611,-0.5443,
5.700714,0.3460,-0.7605,-0.1979,1.3199,0.2611,-0.5443,
5.701800,2.0433,3.0659,-0.9919,1.3199,0.2611,-0.5443,
5.733051,2.0433,3.0659,-0.9919,0.1620,1.0258,-0.2285,
5.766731,2.0433,3.0659,-0.9919,0.1620,1.0258,-0.2285,
5.768394,1.3343,4.2674,-0.8740,0.1620,1.0258,-0.2285,
5.798908,1.3343,4.2674,-0.8740,-1.6145,0.1497,-0.3590,
5.834849,1.3343,4.2674,-0.8740,-1.6145,0.1497,-0.3590,
5.835709,-3.7357,0.2112,-1.2002,-1.6145,0.1497,-0.3590,
5.864337,-3.7357,0.2112,-1.2002,-2.2724,-2.5458,0.3181,
5.897689,-3.7357,0.2112,-1.2002,-2.2724,-2.5458,0.3181,
5.899387,-4.0891,-1.6871,-1.5889,-2.2724,-2.5458,0.3181,
5.929477,-4.0891,-1.6871,-1.5889,-1.5359,-1.1040,0.3001,
5.962694,-4.0891,-1.6871,-1.5889,-1.5359,-1.1040,0.3001,
5.964198,-2.0860,-4.4736,-1.5997,-1.5359,-1.1040,0.3001,
5.995430,-2.0860,-4.4736,-1.5997,-0.4675,1.1593,-0.0038,
6.029411,-2.0860,-4.4736,-1.5997,-0.4675,1.1593,-0.0038,
6.031315,2.5368,-1.8756,2.3578,-0.4675,1.1593,-0.0038,
6.061997,2.5368,-1.8756,2.3578,-0.0528,-0.3815,0.2326,
6.093880,2.5368,-1.8756,2.3578,-0.0528,-0.3815,0.2326,
6.098327,1.1323,-3.4746,0.2343,-0.0528,-0.3815,0.2326,
6.126757,1.1323,-3.4746,0.2343,0.4310,0.7468,0.4824,
6.160703,1.1323,-3.4746,0.2343,0.4310,0.7468,0.4824,
6.162294,0.5649,0.0272,-0.7014,0.4310,0.7468,0.4824,
6.191849,0.5649,0.0272,-0.7014,-0.4835,0.8442,0.4198,
6.224973,0.5649,0.0272,-0.7014,-0.4835,0.8442,0.4198,
6.226825,-3.3108,3.9385,5.5398,-0.4835,0.8442,0.4198,
6.257215,-3.3108,3.9385,5.5398,0.4681,-0.7457,0.8018,
6.290473,-3.3108,3.9385,5.5398,0.4681,-0.7457,0.8018,
6.292280,-2.0533,2.1752,-2.6311,0.4681,-0.7457,0.8018,
6.323130,-2.0533,2.1752,-2.6311,0.8157,-0.5472,0.2940,
6.356600,-2.0533,2.1752,-2.6311,0.8157,-0.5472,0.2940,
6.358211,-1.5615,2.2770,-3.9117,0.8157,-0.5472,0.2940,
6.389851,-1.5615,2.2770,-3.9117,0.1161,0.9867,0.1836,
6.422310,-1.5615,2.2770,-3.9117,0.1161,0.9867,0.1836,
6.423593,-0.4701,0.9835,1.0242,0.1161,0.9867,0.1836,
6.454181,-0.4701,0.9835,1.0242,0.8955,1.0220,-0.4255,
6.487880,-0.4701,0.9835,1.0242,0.8955,1.0220,-0.4255,
6.489896,-0.8988,-0.6079,1.1825,0.8955,1.0220,-0.4255,
6.521032,-0.8988,-0.6079,1.1825,0.6103,-0.4737,-0.1697,
6.553726,-0.8988,-0.6079,1.1825,0.6103,-0.4737,-0.1697,
6.555549,0.1679,-0.5385,-0.1127,0.6103,-0.4737,-0.1697,
6.586202,0.1679,-0.5385,-0.1127,-0.1894,-0.3508,-0.1439,
6.617598,0.1679,-0.5385,-0.1127,-0.1894,-0.3508,-0.1439,
6.618822,0.2054,-0.3085,0.5765,-0.1894,-0.3508,-0.1439,
6.651510,0.2054,-0.3085,0.5765,0.1229,-0.9745,-0.1338,
6.684057,0.2054,-0.3085,0.5765,0.1229,-0.9745,-0.1338,
6.685665,-0.7573,0.2838,-0.6814,0.1229,-0.9745,-0.1338,
6.716397,-0.7573,0.2838,-0.6814,-0.1066,-0.7567,-0.3842,
6.748821,-0.7573,0.2838,-0.6814,-0.1066,-0.7567,-0.3842,
6.750340,-0.5067,0.7662,0.7398,-0.1066,-0.7567,-0.3842,
6.780936,-0.5067,0.7662,0.7398,0.0704,-1.5036,-0.3743,
6.814289,-0.5067,0.7662,0.7398,0.0704,-1.5036,-0.3743,
6.816245,0.7458,0.0173,-0.1320,0.0704,-1.5036,-0.3743,
6.848801,0.7458,0.0173,-0.1320,0.3375,-0.7456,-0.1762,
6.880535,0.7458,0.0173,-0.1320,0.3375,-0.7456,-0.1762,
6.882686,2.2822,0.6235,-0.3141,0.3375,-0.7456,-0.1762,
6.913414,2.2822,0.6235,-0.3141,0.0719,0.1277,-0.1176,
6.946140,2.2822,0.6235,-0.3141,0.0719,0.1277,-0.1176,
6.947931,0.5568,2.4956,-0.3779,0.0719,0.1277,-0.1176,
6.979264,0.5568,2.4956,-0.3779,-2.8611,-0.1758,0.5851,
7.010810,0.5568,2.4956,-0.3779,-2.8611,-0.1758,0.5851,
7.012475,-3.4892,-0.0287,1.9094,-2.8611,-0.1758,0.5851,
7.045299,-3.4892,-0.0287,1.9094,-1.9491,-1.4346,-0.1158,
7.076787,-3.4892,-0.0287,1.9094,-1.9491,-1.4346,-0.1158,
7.078346,-3.0946,-0.0050,-2.0935,-1.9491,-1.4346,-0.1158,
7.108498,-3.0946,-0.0050,-2.0935,-0.4641,-0.0405,-0.4638,
7.142079,-3.0946,-0.0050,-2.0935,-0.4641,-0.0405,-0.4638,
7.143909,-0.7397,-1.2771,-0.7986,-0.4641,-0.0405,-0.4638,
7.175634,-0.7397,-1.2771,-0.7986,-0.5689,-0.8283,-0.6147,
7.207188,-0.7397,-1.2771,-0.7986,-0.5689,-0.8283,-0.6147,
7.209112,-2.9948,-0.9939,1.5566,-0.5689,-0.8283,-0.6147,
7.239659,-2.9948,-0.9939,1.5566,-1.0261,-2.4629,-0.6293,
7.272573,-2.9948,-0.9939,1.5566,-1.0261,-2.4629,-0.6293,
7.274264,-1.8965,-0.9422,0.2593,-1.0261,-2.4629,-0.6293,
7.304893,-1.8965,-0.9422,0.2593,-0.7080,-1.7724,0.3742,
7.338302,-1.8965,-0.9422,0.2593,-0.7080,-1.7724,0.3742,
7.339996,2.0827,-4.2903,-0.4179,-0.7080,-1.7724,0.3742,
7.371283,2.0827,-4.2903,-0.4179,0.8700,-1.7245,-0.1561,
7.404613,2.0827,-4.2903,-0.4179,0.8700,-1.7245,-0.1561,
7.405770,3.6095,5.6021,4.9952,0.8700,-1.7245,-0.1561,
7.436755,3.6095,5.6021,4.9952,-0.3893,0.4154,-0.3853,
7.469060,3.6095,5.6021,4.9952,-0.3893,0.4154,-0.3853,
7.470758,-2.5510,2.9215,-1.0154,-0.3893,0.4154,-0.3853,
7.501136,-2.5510,2.9215,-1.0154,1.0591,-1.1293,-0.0993,
7.534219,-2.5510,2.9215,-1.0154,1.0591,-1.1293,-0.0993,
7.534972,0.3739,0.5173,-1.2539,1.0591,-1.1293,-0.0993,
7.567197,0.3739,0.5173,-1.2539,0.0318,-1.6113,-0.1144,
7.601473,0.3739,0.5173,-1.2539,0.0318,-1.6113,-0.1144,
7.602233,1.0871,-0.1504,-0.3231,0.0318,-1.6113,-0.1144,
7.633577,1.0871,-0.1504,-0.3231,0.4725,0.8520,-0.5762,
7.665866,1.0871,-0.1504,-0.3231,0.4725,0.8520,-0.5762,
7.666276,0.5407,-1.1463,0.7993,0.4725,0.8520,-0.5762,
7.699371,0.5407,-1.1463,0.7993,0.0017,-1.0186,-0.3621,
7.731772,0.5407,-1.1463,0.7993,0.0017,-1.0186,-0.3621,
7.732403,-0.5223,-0.1588,0.5916,0.0017,-1.0186,-0.3621,
7.763467,-0.5223,-0.1588,0.5916,-0.3377,-1.5365,-0.0464,
7.797054,-0.5223,-0.1588,0.5916,-0.3377,-1.5365,-0.0464,
7.797681,0.7893,-0.3122,0.9658,-0.3377,-1.5365,-0.0464,
7.829636,0.7893,-0.3122,0.9658,-0.1347,-1.6412,-0.0015,
7.863266,0.7893,-0.3122,0.9658,-0.1347,-1.6412,-0.0015,
7.863827,2.3711,-0.1234,2.5841,-0.1347,-1.6412,-0.0015,
7.895473,2.3711,-0.1234,2.5841,0.6026,-0.7129,-0.3995,
7.927956,2.3711,-0.1234,2.5841,0.6026,-0.7129,-0.3995,
7.928609,1.8882,1.8735,0.2459,0.6026,-0.7129,-0.3995,
7.960270,1.8882,1.8735,0.2459,0.5611,2.0166,-0.2963,
7.993779,1.8882,1.8735,0.2459,0.5611,2.0166,-0.2963,
7.994407,-1.3326,3.5768,0.8213,0.5611,2.0166,-0.2963,
8.025078,-1.3326,3.5768,0.8213,-2.1399,-0.0308,0.3268,
8.059014,-1.3326,3.5768,0.8213,-2.1399,-0.0308,0.3268,
8.059607,-2.9053,-0.9210,-0.4055,-2.1399,-0.0308,0.3268,
8.090735,-2.9053,-0.9210,-0.4055,-2.8909,-2.1878,1.1435,
8.124924,-2.9053,-0.9210,-0.4055,-2.8909,-2.1878,1.1435,
8.125916,-3.0518,-2.2115,-1.0392,-2.8909,-2.1878,1.1435,
8.156648,-3.0518,-2.2115,-1.0392,-0.2894,-1.0985,0.0843,
8.189564,-3.0518,-2.2115,-1.0392,-0.2894,-1.0985,0.0843,
8.190763,-2.8487,-3.9325,-1.3987,-0.2894,-1.0985,0.0843,
8.223386,-2.8487,-3.9325,-1.3987,0.3627,0.5586,-0.7005,
8.256756,-2.8487,-3.9325,-1.3987,0.3627,0.5586,-0.7005,
8.257476,-1.9307,-2.4722,0.0671,0.3627,0.5586,-0.7005,
8.287822,-1.9307,-2.4722,0.0671,-0.3648,0.1620,0.2231,
8.320427,-1.9307,-2.4722,0.0671,-0.3648,0.1620,0.2231,
8.321575,3.8876,4.4793,4.2409,-0.3648,0.1620,0.2231,
8.353907,3.8876,4.4793,4.2409,0.2889,-1.7846,0.2712,
8.386416,3.8876,4.4793,4.2409,0.2889,-1.7846,0.2712,
8.387652,0.1104,0.1408,-1.9730,0.2889,-1.7846,0.2712,
8.418786,0.1104,0.1408,-1.9730,1.0411,0.6171,0.2100,
8.452001,0.1104,0.1408,-1.9730,1.0411,0.6171,0.2100,
8.453586,0.6031,2.5675,-1.2648,1.0411,0.6171,0.2100,
8.484656,0.6031,2.5675,-1.2648,0.0385,0.3981,-0.7630,
8.516853,0.6031,2.5675,-1.2648,0.0385,0.3981,-0.7630,
8.518509,-1.8573,1.5718,0.6013,0.0385,0.3981,-0.7630,
8.549123,-1.8573,1.5718,0.6013,0.5617,-0.4088,-0.5657,
8.583034,-1.8573,1.5718,0.6013,0.5617,-0.4088,-0.5657,
8.584556,0.5161,-0.2158,0.1199,0.5617,-0.4088,-0.5657,
8.614897,0.5161,-0.2158,0.1199,0.4314,-0.7256,-0.4728,
8.648250,0.5161,-0.2158,0.1199,0.4314,-0.7256,-0.4728,
8.650294,1.3549,-1.5826,0.9396,0.4314,-0.7256,-0.4728,
8.681798,1.3549,-1.5826,0.9396,0.1434,-0.0553,-0.2465,
8.713791,1.3549,-1.5826,0.9396,0.1434,-0.0553,-0.2465,
8.715760,1.5601,-1.3778,2.7261,0.1434,-0.0553,-0.2465,
8.746066,1.5601,-1.3778,2.7261,0.0716,-0.3939,0.0887,
8.778506,1.5601,-1.3778,2.7261,0.0716,-0.3939,0.0887,
8.780541,0.3417,-1.5837,0.5462,0.0716,-0.3939,0.0887,
8.811731,0.3417,-1.5837,0.5462,-0.1790,-0.1773,-0.0348,
8.844801,0.3417,-1.5837,0.5462,-0.1790,-0.1773,-0.0348,
8.846399,1.6386,1.3727,0.9740,-0.1790,-0.1773,-0.0348,
8.877351,1.6386,1.3727,0.9740,0.4415,-0.2770,-0.1987,
8.911151,1.6386,1.3727,0.9740,0.4415,-0.2770,-0.1987,
8.912755,0.8487,4.4362,0.2510,0.4415,-0.2770,-0.1987,
8.943396,0.8487,4.4362,0.2510,-2.0904,1.0053,0.2538,
8.976108,0.8487,4.4362,0.2510,-2.0904,1.0053,0.2538,
8.977125,-1.0035,2.2812,2.4055,-2.0904,1.0053,0.2538,
9.008312,-1.0035,2.2812,2.4055,-2.4800,0.0782,0.3436,
9.040359,-1.0035,2.2812,2.4055,-2.4800,0.0782,0.3436,
9.041118,-0.8684,-0.7406,-1.1861,-2.4800,0.0782,0.3436,
9.072877,-0.8684,-0.7406,-1.1861,-0.0742,0.8867,0.0302,
9.106406,-0.8684,-0.7406,-1.1861,-0.0742,0.8867,0.0302,
9.107164,-0.5180,-1.9464,-1.4243,-0.0742,0.8867,0.0302,
9.138873,-0.5180,-1.9464,-1.4243,-0.1772,1.4215,-0.3778,
9.171219,-0.5180,-1.9464,-1.4243,-0.1772,1.4215,-0.3778,
9.171850,-1.7413,-3.8060,-1.5461,-0.1772,1.4215,-0.3778,
9.204544,-1.7413,-3.8060,-1.5461,0.4672,1.7257,0.4320,
9.236518,-1.7413,-3.8060,-1.5461,0.4672,1.7257,0.4320,
9.237693,0.1752,-2.0534,-1.1712,0.4672,1.7257,0.4320,
9.269406,0.1752,-2.0534,-1.1712,-0.4611,2.5591,1.3037,
9.303369,0.1752,-2.0534,-1.1712,-0.4611,2.5591,1.3037,
9.304488,-1.5986,-3.1312,0.9764,-0.4611,2.5591,1.3037,
9.335982,-1.5986,-3.1312,0.9764,1.5098,1.3460,1.5566,
9.369812,-1.5986,-3.1312,0.9764,1.5098,1.3460,1.5566,
9.371308,-1.5094,4.6345,9.1995,1.5098,1.3460,1.5566,
9.400326,-1.5094,4.6345,9.1995,0.4443,0.1422,1.6551,
9.433685,-1.5094,4.6345,9.1995,0.4443,0.1422,1.6551,
9.435338,-1.1308,1.6275,-5.4855,0.4443,0.1422,1.6551,
9.466296,-1.1308,1.6275,-5.4855,0.5079,0.6474,-0.2459,
9.499293,-1.1308,1.6275,-5.4855,0.5079,0.6474,-0.2459,
9.500673,0.1697,2.9305,-2.2722,0.5079,0.6474,-0.2459,
9.530752,0.1697,2.9305,-2.2722,-0.9829,-0.8880,-0.2440,
9.564664,0.1697,2.9305,-2.2722,-0.9829,-0.8880,-0.2440,
9.566098,0.6600,-0.0413,2.9497,-0.9829,-0.8880,-0.2440,
9.597490,0.6600,-0.0413,2.9497,1.2743,-2.7246,-0.1886,
9.631633,0.6600,-0.0413,2.9497,1.2743,-2.7246,-0.1886,
9.633240,1.9002,-0.8421,-1.2729,1.2743,-2.7246,-0.1886,
9.663511,1.9002,-0.8421,-1.2729,0.6353,-0.7483,-0.6445,
9.695434,1.9002,-0.8421,-1.2729,0.6353,-0.7483,-0.6445,
9.697033,-0.3074,-1.0326,-0.4802,0.6353,-0.7483,-0.6445,
9.728623,-0.3074,-1.0326,-0.4802,0.1881,-0.6400,-0.4760,
9.761177,-0.3074,-1.0326,-0.4802,0.1881,-0.6400,-0.4760,
9.762983,-0.2939,-0.5345,0.9183,0.1881,-0.6400,-0.4760,
9.794420,-0.2939,-0.5345,0.9183,-0.1675,-1.1874,-0.2436,
9.827126,-0.2939,-0.5345,0.9183,-0.1675,-1.1874,-0.2436,
9.828556,0.9536,-0.9477,1.7585,-0.1675,-1.1874,-0.2436,
9.859353,0.9536,-0.9477,1.7585,-0.2573,-1.5322,-0.2886,
9.891756,0.9536,-0.9477,1.7585,-0.2573,-1.5322,-0.2886,
9.893098,3.9079,-0.5726,3.8135,-0.2573,-1.5322,-0.2886,
9.925793,3.9079,-0.5726,3.8135,1.4003,-0.5698,-0.3228,
9.957422,3.9079,-0.5726,3.8135,1.4003,-0.5698,-0.3228,
9.960102,5.2966,3.5659,0.1146,1.4003,-0.5698,-0.3228,
9.990942,5.2966,3.5659,0.1146,-0.4070,2.8593,-0.0512,
10.023596,5.2966,3.5659,0.1146,-0.4070,2.8593,-0.0512,
10.025239,-1.1608,3.5502,0.4247,-0.4070,2.8593,-0.0512,
10.055731,-1.1608,3.5502,0.4247,-2.8295,0.6318,0.2576,
10.088782,-1.1608,3.5502,0.4247,-2.8295,0.6318,0.2576,
10.090749,-4.0940,-1.7239,-1.8332,-2.8295,0.6318,0.2576,
10.122233,-4.0940,-1.7239,-1.8332,-0.7969,-2.3605,0.2871,
10.154488,-4.0940,-1.7239,-1.8332,-0.7969,-2.3605,0.2871,
10.156761,-4.8796,-3.9808,-4.7417,-0.7969,-2.3605,0.2871,
10.187847,-4.8796,-3.9808,-4.7417,0.5851,-0.2529,-0.8486,
10.219115,-4.8796,-3.9808,-4.7417,0.5851,-0.2529,-0.8486,
10.220565,-3.3156,-4.4573,-4.0821,0.5851,-0.2529,-0.8486,
10.251439,-3.3156,-4.4573,-4.0821,-0.6092,5.7104,-0.3216,
10.284633,-3.3156,-4.4573,-4.0821,-0.6092,5.7104,-0.3216,
10.286488,1.8873,0.9671,9.3120,-0.6092,5.7104,-0.3216,
10.317040,1.8873,0.9671,9.3120,0.5493,2.1954,0.1420,
10.351503,1.8873,0.9671,9.3120,0.5493,2.1954,0.1420,
10.353275,-1.7414,-0.6440,1.1991,0.5493,2.1954,0.1420,
10.382085,-1.7414,-0.6440,1.1991,0.8117,-2.4118,1.1414,
10.415938,-1.7414,-0.6440,1.1991,0.8117,-2.4118,1.1414,
10.417455,0.3861,7.1013,-1.6852,0.8117,-2.4118,1.1414,
10.449372,0.3861,7.1013,-1.6852,-0.0965,0.6390,-0.7086,
10.480986,0.3861,7.1013,-1.6852,-0.0965,0.6390,-0.7086,
10.481938,-3.2659,-0.5738,-0.2860,-0.0965,0.6390,-0.7086,
10.516336,-3.2659,-0.5738,-0.2860,0.1378,-1.7152,0.3793,
10.546458,-3.2659,-0.5738,-0.2860,0.1378,-1.7152,0.3793,
10.548193,2.0783,0.4688,0.0894,0.1378,-1.7152,0.3793,
10.579425,2.0783,0.4688,0.0894,0.5536,-1.5360,0.3978,
10.612149,2.0783,0.4688,0.0894,0.5536,-1.5360,0.3978,
10.613677,1.8181,-0.8002,-0.9653,0.5536,-1.5360,0.3978,
10.644807,1.8181,-0.8002,-0.9653,0.9899,-0.1190,-0.1194,
10.677698,1.8181,-0.8002,-0.9653,0.9899,-0.1190,-0.1194,
10.680131,1.2180,-0.8720,0.3770,0.9899,-0.1190,-0.1194,
10.709541,1.2180,-0.8720,0.3770,0.8902,0.8528,-0.3839,
10.742670,1.2180,-0.8720,0.3770,0.8902,0.8528,-0.3839,
10.743857,-0.9007,0.0081,2.3538,0.8902,0.8528,-0.3839,
10.775014,-0.9007,0.0081,2.3538,0.3196,-1.1125,-0.1038,
10.808039,-0.9007,0.0081,2.3538,0.3196,-1.1125,-0.1038,
10.809097,-0.2467,0.4486,2.2197,0.3196,-1.1125,-0.1038,
10.839929,-0.2467,0.4486,2.2197,-0.1910,-2.7345,0.0870,
10.873015,-0.2467,0.4486,2.2197,-0.1910,-2.7345,0.0870,
10.873987,0.2421,-0.9255,1.2677,-0.1910,-2.7345,0.0870,
10.906257,0.2421,-0.9255,1.2677,-0.0202,-1.3155,-0.1130,
10.938685,0.2421,-0.9255,1.2677,-0.0202,-1.3155,-0.1130,
10.939791,2.6545,2.3625,0.8239,-0.0202,-1.3155,-0.1130,
10.971419,2.6545,2.3625,0.8239,-0.3445,0.5359,0.1949,
11.004315,2.6545,2.3625,0.8239,-0.3445,0.5359,0.1949,
11.005312,2.4564,3.9905,3.0125,-0.3445,0.5359,0.1949,
11.036868,2.4564,3.9905,3.0125,-3.5111,0.3435,0.0724,
11.070068,2.4564,3.9905,3.0125,-3.5111,0.3435,0.0724,
11.071303,-2.3294,-1.6794,-0.6296,-3.5111,0.3435,0.0724,
11.103015,-2.3294,-1.6794,-0.6296,0.3609,-2.0264,-0.1849,
11.136695,-2.3294,-1.6794,-0.6296,0.3609,-2.0264,-0.1849,
11.138188,-3.8575,-6.3872,-4.5466,0.3609,-2.0264,-0.1849,
11.170245,-3.8575,-6.3872,-4.5466,1.6267,-0.7220,-1.1629,
11.201549,-3.8575,-6.3872,-4.5466,1.6267,-0.7220,-1.1629,
11.202960,-3.9365,-5.3976,-6.1510,1.6267,-0.7220,-1.1629,
11.234396,-3.9365,-5.3976,-6.1510,-2.6525,6.8929,0.1660,
11.267118,-3.9365,-5.3976,-6.1510,-2.6525,6.8929,0.1660,
11.268515,0.9273,5.6836,17.9219,-2.6525,6.8929,0.1660,
11.300732,0.9273,5.6836,17.9219,1.0679,-1.1892,2.1611,
11.333380,0.9273,5.6836,17.9219,1.0679,-1.1892,2.1611,
11.335228,-0.4502,3.6155,-6.6482,1.0679,-1.1892,2.1611,
11.364670,-0.4502,3.6155,-6.6482,0.0191,-2.2998,0.1607,
11.398729,-0.4502,3.6155,-6.6482,0.0191,-2.2998,0.1607,
11.400932,-3.3003,0.4088,-4.7069,0.0191,-2.2998,0.1607,
11.430975,-3.3003,0.4088,-4.7069,-0.3146,0.5182,-0.3233,
11.463748,-3.3003,0.4088,-4.7069,-0.3146,0.5182,-0.3233,
11.464623,0.6713,0.5813,2.0442,-0.3146,0.5182,-0.3233,
11.496755,0.6713,0.5813,2.0442,-0.3419,-1.3602,0.1544,
11.529732,0.6713,0.5813,2.0442,-0.3419,-1.3602,0.1544,
11.531566,1.6428,-1.5387,1.4418,-0.3419,-1.3602,0.1544,
11.561155,1.6428,-1.5387,1.4418,0.8468,-0.2983,-0.2584,
11.595195,1.6428,-1.5387,1.4418,0.8468,-0.2983,-0.2584,
11.597045,1.1948,-1.3710,-0.1245,0.8468,-0.2983,-0.2584,
11.627900,1.1948,-1.3710,-0.1245,-0.0185,-0.1958,-0.3348,
11.659993,1.1948,-1.3710,-0.1245,-0.0185,-0.1958,-0.3348,
11.661003,-0.2671,-0.5511,1.2911,-0.0185,-0.1958,-0.3348,
11.693173,-0.2671,-0.5511,1.2911,-0.2411,-1.1113,-0.3390,
11.726218,-0.2671,-0.5511,1.2911,-0.2411,-1.1113,-0.3390,
11.727905,0.5881,0.1637,1.2135,-0.2411,-1.1113,-0.3390,
11.759255,0.5881,0.1637,1.2135,0.0635,-1.5198,-0.4061,
11.791404,0.5881,0.1637,1.2135,0.0635,-1.5198,-0.4061,
11.793616,2.5184,-0.5304,1.3573,0.0635,-1.5198,-0.4061,
11.823169,2.5184,-0.5304,1.3573,0.4827,-1.1467,-0.3338,
11.856297,2.5184,-0.5304,1.3573,0.4827,-1.1467,-0.3338,
11.858214,4.1516,2.0692,1.8586,0.4827,-1.1467,-0.3338,
11.889411,4.1516,2.0692,1.8586,-0.0602,0.7799,-0.1542,
11.921652,4.1516,2.0692,1.8586,-0.0602,0.7799,-0.1542,
11.923647,0.8747,2.8358,1.3850,-0.0602,0.7799,-0.1542,
11.955053,0.8747,2.8358,1.3850,-2.6008,1.4342,0.5405,
11.987070,0.8747,2.8358,1.3850,-2.6008,1.4342,0.5405,
11.988690,-0.4424,-1.3841,-1.1114,-2.6008,1.4342,0.5405,
12.022120,-0.4424,-1.3841,-1.1114,-0.7611,0.4797,0.6145,
12.054935,-0.4424,-1.3841,-1.1114,-0.7611,0.4797,0.6145,
12.056858,-1.5824,-2.4291,-1.0391,-0.7611,0.4797,0.6145,
12.085019,-1.5824,-2.4291,-1.0391,1.2449,-2.4279,-0.5961,
12.120686,-1.5824,-2.4291,-1.0391,1.2449,-2.4279,-0.5961,
12.121888,-4.2045,-4.0362,-4.8603,1.2449,-2.4279,-0.5961,
12.150254,-4.2045,-4.0362,-4.8603,-1.5855,3.8451,-0.0008,
12.182916,-4.2045,-4.0362,-4.8603,-1.5855,3.8451,-0.0008,
12.184130,-0.9486,-1.4711,15.1190,-1.5855,3.8451,-0.0008,
12.216031,-0.9486,-1.4711,15.1190,0.3302,0.3418,0.5424,
12.248785,-0.9486,-1.4711,15.1190,0.3302,0.3418,0.5424,
12.250469,-2.2010,-0.0365,-0.3623,0.3302,0.3418,0.5424,
12.281374,-2.2010,-0.0365,-0.3623,2.7518,-0.9363,1.2653,
12.314173,-2.2010,-0.0365,-0.3623,2.7518,-0.9363,1.2653,
12.315292,0.7058,2.4498,-7.8290,2.7518,-0.9363,1.2653,
12.347149,0.7058,2.4498,-7.8290,0.1006,1.0681,0.0136,
12.379377,0.7058,2.4498,-7.8290,0.1006,1.0681,0.0136,
12.380433,-1.4558,3.3125,-0.7411,0.1006,1.0681,0.0136,
12.412567,-1.4558,3.3125,-0.7411,-1.5641,-0.8671,-0.2118,
12.445380,-1.4558,3.3125,-0.7411,-1.5641,-0.8671,-0.2118,
12.447464,-1.4635,-0.1416,3.2083,-1.5641,-0.8671,-0.2118,
12.477752,-1.4635,-0.1416,3.2083,1.8465,-0.6119,0.2905,
12.510221,-1.4635,-0.1416,3.2083,1.8465,-0.6119,0.2905,
12.510923,2.5278,-1.0511,-2.1741,1.8465,-0.6119,0.2905,
12.542863,2.5278,-1.0511,-2.1741,0.3448,0.6154,-0.2662,
12.575964,2.5278,-1.0511,-2.1741,0.3448,0.6154,-0.2662,
12.577391,1.5477,-1.1613,0.0257,0.3448,0.6154,-0.2662,
12.608813,1.5477,-1.1613,0.0257,0.0434,-0.3161,-0.0826,
12.641877,1.5477,-1.1613,0.0257,0.0434,-0.3161,-0.0826,
12.643109,0.3916,-0.3585,0.9630,0.0434,-0.3161,-0.0826,
12.673775,0.3916,-0.3585,0.9630,0.4699,0.1952,-0.1985,
12.707111,0.3916,-0.3585,0.9630,0.4699,0.1952,-0.1985,
12.709294,1.0824,-0.4507,1.1793,0.4699,0.1952,-0.1985,
12.740641,1.0824,-0.4507,1.1793,0.7285,0.5909,-0.3195,
12.772504,1.0824,-0.4507,1.1793,0.7285,0.5909,-0.3195,
12.774282,0.1828,-0.3806,0.9620,0.7285,0.5909,-0.3195,
12.807270,0.1828,-0.3806,0.9620,0.8906,0.0313,-0.4242,
12.838038,0.1828,-0.3806,0.9620,0.8906,0.0313,-0.4242,
12.839217,-0.4675,-0.1741,0.1417,0.8906,0.0313,-0.4242,
12.870480,-0.4675,-0.1741,0.1417,0.7856,-0.6115,-0.4783,
12.902737,-0.4675,-0.1741,0.1417,0.7856,-0.6115,-0.4783,
12.904204,-1.2673,0.4286,-1.0026,0.7856,-0.6115,-0.4783,
12.936650,-1.2673,0.4286,-1.0026,0.0116,-1.0351,-0.1103,
12.968568,-1.2673,0.4286,-1.0026,0.0116,-1.0351,-0.1103,
12.969720,-0.5778,0.3578,0.1556,0.0116,-1.0351,-0.1103,
13.001460,-0.5778,0.3578,0.1556,-0.9042,-1.4841,0.2605,
13.035003,-0.5778,0.3578,0.1556,-0.9042,-1.4841,0.2605,
13.036599,5.8859,3.9601,3.3761,-0.9042,-1.4841,0.2605,
13.067261,5.8859,3.9601,3.3761,-2.0890,-2.5336,1.0447,
13.100345,5.8859,3.9601,3.3761,-2.0890,-2.5336,1.0447,
13.101836,2.6436,1.7376,1.0031,-2.0890,-2.5336,1.0447,
13.133136,2.6436,1.7376,1.0031,-1.8413,1.7272,0.9416,
13.165742,2.6436,1.7376,1.0031,-1.8413,1.7272,0.9416,
13.167620,-2.4553,-0.6358,0.3945,-1.8413,1.7272,0.9416,
13.199202,-2.4553,-0.6358,0.3945,0.0939,-0.3063,-1.7344,
13.231496,-2.4553,-0.6358,0.3945,0.0939,-0.3063,-1.7344,
13.233571,-4.5295,-6.7283,-2.2560,0.0939,-0.3063,-1.7344,
13.265128,-4.5295,-6.7283,-2.2560,-0.2541,1.7718,-1.5867,
13.298199,-4.5295,-6.7283,-2.2560,-0.2541,1.7718,-1.5867,
13.300950,-2.2499,-6.1412,1.6883,-0.2541,1.7718,-1.5867,
13.331147,-2.2499,-6.1412,1.6883,-1.5463,-0.9143,2.0615,
13.362070,-2.2499,-6.1412,1.6883,-1.5463,-0.9143,2.0615,
13.363399,-0.0537,3.3062,1.0309,-1.5463,-0.9143,2.0615,
13.394471,-0.0537,3.3062,1.0309,1.9035,1.3906,2.3897,
13.429420,-0.0537,3.3062,1.0309,1.9035,1.3906,2.3897,
13.431846,3.7476,3.1789,-4.7694,1.9035,1.3906,2.3897,
13.461196,3.7476,3.1789,-4.7694,-0.0505,2.1855,-0.5745,
13.493410,3.7476,3.1789,-4.7694,-0.0505,2.1855,-0.5745,
13.494927,-3.4214,-0.1334,1.7090,-0.0505,2.1855,-0.5745,
13.525835,-3.4214,-0.1334,1.7090,-0.2149,-1.6976,0.4948,
13.558868,-3.4214,-0.1334,1.7090,-0.2149,-1.6976,0.4948,
13.560385,1.7042,-1.0178,0.3371,-0.2149,-1.6976,0.4948,
13.592516,1.7042,-1.0178,0.3371,0.3021,-0.4705,0.1393,
13.625496,1.7042,-1.0178,0.3371,0.3021,-0.4705,0.1393,
13.627900,1.8466,-0.8959,0.5884,0.3021,-0.4705,0.1393,
13.657351,1.8466,-0.8959,0.5884,0.9523,0.7801,-0.0125,
13.691101,1.8466,-0.8959,0.5884,0.9523,0.7801,-0.0125,
13.692822,-0.9022,0.0976,-0.1912,0.9523,0.7801,-0.0125,
13.724303,-0.9022,0.0976,-0.1912,0.9789,0.9062,-0.1797,
13.754945,-0.9022,0.0976,-0.1912,0.9789,0.9062,-0.1797,
13.756496,-0.8031,0.3706,-0.2469,0.9789,0.9062,-0.1797,
13.787169,-0.8031,0.3706,-0.2469,0.1756,-0.5767,-0.1724,
13.821393,-0.8031,0.3706,-0.2469,0.1756,-0.5767,-0.1724,
13.822822,0.0007,-0.1482,0.2676,0.1756,-0.5767,-0.1724,
13.853392,0.0007,-0.1482,0.2676,-0.0101,-1.0021,-0.1998,
13.886325,0.0007,-0.1482,0.2676,-0.0101,-1.0021,-0.1998,
13.888567,0.7469,-0.2112,0.5522,-0.0101,-1.0021,-0.1998,
13.919366,0.7469,-0.2112,0.5522,0.3268,-0.1790,-0.2728,
13.951897,0.7469,-0.2112,0.5522,0.3268,-0.1790,-0.2728,
13.952851,0.2291,-0.4306,0.1252,0.3268,-0.1790,-0.2728,
13.984878,0.2291,-0.4306,0.1252,0.5102,0.3282,-0.4896,
14.018217,0.2291,-0.4306,0.1252,0.5102,0.3282,-0.4896,
14.019767,0.7433,-0.6695,0.3601,0.5102,0.3282,-0.4896,
14.050145,0.7433,-0.6695,0.3601,0.3413,-0.3100,-0.6675,
14.082519,0.7433,-0.6695,0.3601,0.3413,-0.3100,-0.6675,
14.084752,2.4680,0.2631,1.4492,0.3413,-0.3100,-0.6675,
14.114899,2.4680,0.2631,1.4492,0.8005,-0.7665,-0.4603,
14.148621,2.4680,0.2631,1.4492,0.8005,-0.7665,-0.4603,
14.150505,2.0077,1.7964,2.2331,0.8005,-0.7665,-0.4603,
14.180454,2.0077,1.7964,2.2331,0.8427,0.1738,-0.4473,
14.213479,2.0077,1.7964,2.2331,0.8427,0.1738,-0.4473,
14.215127,4.2797,3.2897,1.8356,0.8427,0.1738,-0.4473,
14.245776,4.2797,3.2897,1.8356,-1.0672,0.7824,-0.2763,
14.279523,4.2797,3.2897,1.8356,-1.0672,0.7824,-0.2763,
14.280966,0.2418,-0.8855,-0.4964,-1.0672,0.7824,-0.2763,
14.312616,0.2418,-0.8855,-0.4964,-0.5835,0.6173,-0.3254,
14.344581,0.2418,-0.8855,-0.4964,-0.5835,0.6173,-0.3254,
14.346812,-3.2803,0.5092,-2.5758,-0.5835,0.6173,-0.3254,
14.377180,-3.2803,0.5092,-2.5758,-1.8046,-1.3570,-1.8309,
14.410091,-3.2803,0.5092,-2.5758,-1.8046,-1.3570,-1.8309,
14.412182,-5.1147,-6.2907,-2.4399,-1.8046,-1.3570,-1.8309,
14.443884,-5.1147,-6.2907,-2.4399,-2.9554,-0.0953,-1.1318,
14.476884,-5.1147,-6.2907,-2.4399,-2.9554,-0.0953,-1.1318,
14.478793,1.8714,-6.0364,9.9771,-2.9554,-0.0953,-1.1318,
14.508183,1.8714,-6.0364,9.9771,1.6987,-2.8401,2.2521,
14.542340,1.8714,-6.0364,9.9771,1.6987,-2.8401,2.2521,
14.544303,-0.8869,-0.5569,-3.2410,1.6987,-2.8401,2.2521,
14.574134,-0.8869,-0.5569,-3.2410,0.2844,0.8503,1.8321,
14.608417,-0.8869,-0.5569,-3.2410,0.2844,0.8503,1.8321,
14.610273,0.4447,6.5341,-3.2759,0.2844,0.8503,1.8321,
14.639409,0.4447,6.5341,-3.2759,-0.1770,0.6909,-0.5521,
14.673386,0.4447,6.5341,-3.2759,-0.1770,0.6909,-0.5521,
14.675672,-2.3085,-0.0194,-1.0291,-0.1770,0.6909,-0.5521,
14.704557,-2.3085,-0.0194,-1.0291,1.1884,-0.1448,-0.2457,
14.738504,-2.3085,-0.0194,-1.0291,1.1884,-0.1448,-0.2457,
14.740310,-0.4950,0.8309,-1.3368,1.1884,-0.1448,-0.2457,
14.770334,-0.4950,0.8309,-1.3368,-0.5751,-0.6643,0.2669,
14.804476,-0.4950,0.8309,-1.3368,-0.5751,-0.6643,0.2669,
14.805964,1.5048,-1.3697,2.3612,-0.5751,-0.6643,0.2669,
14.835218,1.5048,-1.3697,2.3612,0.3079,-0.8427,-0.1903,
14.870033,1.5048,-1.3697,2.3612,0.3079,-0.8427,-0.1903,
14.871799,2.2650,-1.0735,0.4722,0.3079,-0.8427,-0.1903,
14.901785,2.2650,-1.0735,0.4722,0.6203,1.3195,-0.3079,
14.933972,2.2650,-1.0735,0.4722,0.6203,1.3195,-0.3079,
14.935706,0.5610,-0.3123,0.5208,0.6203,1.3195,-0.3079,
14.967316,0.5610,-0.3123,0.5208,0.5020,0.5742,-0.3826,
14.999100,0.5610,-0.3123,0.5208,0.5020,0.5742,-0.3826,
15.000843,-0.3722,-0.5012,-0.4603,0.5020,0.5742,-0.3826,
15.031987,-0.3722,-0.5012,-0.4603,0.0096,-0.2054,-0.2112,
15.065726,-0.3722,-0.5012,-0.4603,0.0096,-0.2054,-0.2112,
15.067241,1.5146,-0.2482,0.2505,0.0096,-0.2054,-0.2112,
15.098371,1.5146,-0.2482,0.2505,-0.0939,-0.7981,-0.2447,
15.130186,1.5146,-0.2482,0.2505,-0.0939,-0.7981,-0.2447,
15.132004,3.0926,0.5248,0.8140,-0.0939,-0.7981,-0.2447,
15.162348,3.0926,0.5248,0.8140,0.5680,0.9493,-0.3874,
15.196020,3.0926,0.5248,0.8140,0.5680,0.9493,-0.3874,
15.197462,1.4306,1.3185,1.0616,0.5680,0.9493,-0.3874,
15.229166,1.4306,1.3185,1.0616,0.7559,1.6654,-0.3099,
15.261362,1.4306,1.3185,1.0616,0.7559,1.6654,-0.3099,
15.263012,0.2744,0.7722,0.9581,0.7559,1.6654,-0.3099,
15.293392,0.2744,0.7722,0.9581,-1.0049,0.2743,0.0909,
15.327250,0.2744,0.7722,0.9581,-1.0049,0.2743,0.0909,
15.328698,-1.5788,-0.5376,0.5204,-1.0049,0.2743,0.0909,
15.359983,-1.5788,-0.5376,0.5204,-0.5641,0.5628,0.6115,
15.393532,-1.5788,-0.5376,0.5204,-0.5641,0.5628,0.6115,
15.395544,-0.3230,0.1143,-0.2149,-0.5641,0.5628,0.6115,
15.425701,-0.3230,0.1143,-0.2149,0.3355,0.4801,0.3331,
15.459428,-0.3230,0.1143,-0.2149,0.3355,0.4801,0.3331,
15.461510,-1.8554,-1.6038,-1.0417,0.3355,0.4801,0.3331,
15.491438,-1.8554,-1.6038,-1.0417,-0.1805,0.3499,-0.1260,
15.522884,-1.8554,-1.6038,-1.0417,-0.1805,0.3499,-0.1260,
15.524307,-1.7706,-1.8350,-0.6813,-0.1805,0.3499,-0.1260,
15.555917,-1.7706,-1.8350,-0.6813,-0.4320,0.6460,0.2889,
15.588845,-1.7706,-1.8350,-0.6813,-0.4320,0.6460,0.2889,
15.591019,1.5292,-0.8086,2.1090,-0.4320,0.6460,0.2889,
15.621434,1.5292,-0.8086,2.1090,-0.4792,0.6035,1.0327,
15.654400,1.5292,-0.8086,2.1090,-0.4792,0.6035,1.0327,
15.655644,1.1573,-3.8946,0.4566,-0.4792,0.6035,1.0327,
15.687032,1.1573,-3.8946,0.4566,0.9424,1.3796,0.5272,
15.719952,1.1573,-3.8946,0.4566,0.9424,1.3796,0.5272,
15.721523,-0.1939,6.5310,-0.6380,0.9424,1.3796,0.5272,
15.752155,-0.1939,6.5310,-0.6380,0.7240,0.7051,-0.6862,
15.785340,-0.1939,6.5310,-0.6380,0.7240,0.7051,-0.6862,
15.786898,-4.3817,2.2191,-3.3414,0.7240,0.7051,-0.6862,
15.816703,-4.3817,2.2191,-3.3414,0.1344,-0.3512,0.1300,
15.850757,-4.3817,2.2191,-3.3414,0.1344,-0.3512,0.1300,
15.852320,-1.5508,0.3995,-1.2265,0.1344,-0.3512,0.1300,
15.883524,-1.5508,0.3995,-1.2265,-0.5502,-0.4662,0.5886,
15.915275,-1.5508,0.3995,-1.2265,-0.5502,-0.4662,0.5886,
15.917061,1.5816,-0.4869,1.8939,-0.5502,-0.4662,0.5886,
15.949271,1.5816,-0.4869,1.8939,0.5437,-0.5218,-0.2141,
15.982052,1.5816,-0.4869,1.8939,0.5437,-0.5218,-0.2141,
15.984466,1.5219,-0.8760,0.2879,0.5437,-0.5218,-0.2141,
16.013559,1.5219,-0.8760,0.2879,0.4971,0.5275,-0.1164,
16.046849,1.5219,-0.8760,0.2879,0.4971,0.5275,-0.1164,
16.048286,0.1963,-0.5248,0.5787,0.4971,0.5275,-0.1164,
16.079953,0.1963,-0.5248,0.5787,0.2518,-0.1775,-0.0593,
16.112376,0.1963,-0.5248,0.5787,0.2518,-0.1775,-0.0593,
16.114500,0.2036,-0.2268,0.1521,0.2518,-0.1775,-0.0593,
16.144599,0.2036,-0.2268,0.1521,-0.0475,-0.3606,-0.0690,
16.177428,0.2036,-0.2268,0.1521,-0.0475,-0.3606,-0.0690,
16.179037,0.9444,-0.1352,0.6243,-0.0475,-0.3606,-0.0690,
16.211446,0.9444,-0.1352,0.6243,0.1700,-0.1403,-0.1348,
16.245639,0.9444,-0.1352,0.6243,0.1700,-0.1403,-0.1348,
16.247241,0.6985,-0.4558,0.4581,0.1700,-0.1403,-0.1348,
16.275899,0.6985,-0.4558,0.4581,0.2471,0.0351,-0.2129,
16.310019,0.6985,-0.4558,0.4581,0.2471,0.0351,-0.2129,
16.311701,0.9551,0.2024,0.2696,0.2471,0.0351,-0.2129,
16.342514,0.9551,0.2024,0.2696,0.3774,0.1454,-0.2535,
16.375363,0.9551,0.2024,0.2696,0.3774,0.1454,-0.2535,
16.376892,1.0461,0.3023,1.5046,0.3774,0.1454,-0.2535,
16.406183,1.0461,0.3023,1.5046,0.5961,0.0170,-0.2103,
16.439605,1.0461,0.3023,1.5046,0.5961,0.0170,-0.2103,
16.441130,1.4687,0.3944,0.9903,0.5961,0.0170,-0.2103,
16.472789,1.4687,0.3944,0.9903,0.8653,0.7628,0.0670,
16.506047,1.4687,0.3944,0.9903,0.8653,0.7628,0.0670,
16.508759,0.5966,2.4962,1.0810,0.8653,0.7628,0.0670,
16.539399,0.5966,2.4962,1.0810,-0.8772,0.4937,0.0347,
16.570721,0.5966,2.4962,1.0810,-0.8772,0.4937,0.0347,
16.572189,-0.3585,-0.0562,0.1646,-0.8772,0.4937,0.0347,
16.602916,-0.3585,-0.0562,0.1646,-2.1765,-0.4699,0.2097,
16.636018,-0.3585,-0.0562,0.1646,-2.1765,-0.4699,0.2097,
16.637696,-1.9341,-0.2990,-0.7692,-2.1765,-0.4699,0.2097,
16.668037,-1.9341,-0.2990,-0.7692,-0.4476,-0.2398,0.3590,
16.702766,-1.9341,-0.2990,-0.7692,-0.4476,-0.2398,0.3590,
16.704384,-1.6071,-2.6631,-1.6785,-0.4476,-0.2398,0.3590,
16.733332,-1.6071,-2.6631,-1.6785,0.3983,0.5618,-0.0663,
16.766917,-1.6071,-2.6631,-1.6785,0.3983,0.5618,-0.0663,
16.767901,-1.3128,-3.5031,-0.7014,0.3983,0.5618,-0.0663,
16.798907,-1.3128,-3.5031,-0.7014,0.3877,0.7607,0.3088,
16.832529,-1.3128,-3.5031,-0.7014,0.3877,0.7607,0.3088,
16.834046,2.6968,1.3090,3.9446,0.3877,0.7607,0.3088,
16.864731,2.6968,1.3090,3.9446,-0.4404,0.4869,0.5997,
16.897596,2.6968,1.3090,3.9446,-0.4404,0.4869,0.5997,
16.899516,-1.0918,-2.7156,0.4776,-0.4404,0.4869,0.5997,
16.930995,-1.0918,-2.7156,0.4776,1.4942,1.0279,0.5095,
16.963634,-1.0918,-2.7156,0.4776,1.4942,1.0279,0.5095,
16.965515,1.1089,4.9524,-2.7663,1.4942,1.0279,0.5095,
16.997953,1.1089,4.9524,-2.7663,-0.2434,0.5938,-0.4786,
17.028839,1.1089,4.9524,-2.7663,-0.2434,0.5938,-0.4786,
17.030414,-3.2064,0.1564,-1.3299,-0.2434,0.5938,-0.4786,
17.061581,-3.2064,0.1564,-1.3299,0.9584,0.0988,-0.3192,
17.095204,-3.2064,0.1564,-1.3299,0.9584,0.0988,-0.3192,
17.097600,-1.6755,0.0371,-1.7101,0.9584,0.0988,-0.3192,
17.127612,-1.6755,0.0371,-1.7101,-0.1790,0.1263,0.3514,
17.160237,-1.6755,0.0371,-1.7101,-0.1790,0.1263,0.3514,
17.161900,0.8180,-0.2066,0.8395,-0.1790,0.1263,0.3514,
17.192773,0.8180,-0.2066,0.8395,0.2283,-0.7172,-0.1518,
17.226858,0.8180,-0.2066,0.8395,0.2283,-0.7172,-0.1518,
17.228391,1.2712,-0.3919,0.2372,0.2283,-0.7172,-0.1518,
17.258713,1.2712,-0.3919,0.2372,0.4452,0.3566,-0.1136,
17.292883,1.2712,-0.3919,0.2372,0.4452,0.3566,-0.1136,
17.294873,0.4164,-0.4045,0.3906,0.4452,0.3566,-0.1136,
17.325554,0.4164,-0.4045,0.3906,0.6171,0.6684,-0.1294,
17.357276,0.4164,-0.4045,0.3906,0.6171,0.6684,-0.1294,
17.359006,-0.2502,-0.1115,-0.1928,0.6171,0.6684,-0.1294,
17.388955,-0.2502,-0.1115,-0.1928,0.2831,0.1400,-0.1245,
17.423176,-0.2502,-0.1115,-0.1928,0.2831,0.1400,-0.1245,
17.424911,-0.3387,-0.2064,0.1472,0.2831,0.1400,-0.1245,
17.455488,-0.3387,-0.2064,0.1472,0.1187,-0.6309,-0.1213,
17.488233,-0.3387,-0.2064,0.1472,0.1187,-0.6309,-0.1213,
17.489900,-0.2534,-0.2792,0.9007,0.1187,-0.6309,-0.1213,
17.520686,-0.2534,-0.2792,0.9007,-0.3060,-1.1057,-0.0918,
17.554765,-0.2534,-0.2792,0.9007,-0.3060,-1.1057,-0.0918,
17.556539,-0.1647,-0.4273,0.7911,-0.3060,-1.1057,-0.0918,
17.587027,-0.1647,-0.4273,0.7911,-0.2897,-0.4742,-0.2518,
17.619322,-0.1647,-0.4273,0.7911,-0.2897,-0.4742,-0.2518,
17.620957,1.6521,0.0493,-0.2319,-0.2897,-0.4742,-0.2518,
17.651554,1.6521,0.0493,-0.2319,0.4354,0.3438,-0.3256,
17.684250,1.6521,0.0493,-0.2319,0.4354,0.3438,-0.3256,
17.686241,1.0638,-0.3005,1.5796,0.4354,0.3438,-0.3256,
17.717148,1.0638,-0.3005,1.5796,0.8060,-0.1808,-0.4247,
17.749642,1.0638,-0.3005,1.5796,0.8060,-0.1808,-0.4247,
17.751432,2.1855,-0.9487,1.4377,0.8060,-0.1808,-0.4247,
17.785902,2.1855,-0.9487,1.4377,1.1393,0.7303,-0.5789,
17.815064,2.1855,-0.9487,1.4377,1.1393,0.7303,-0.5789,
17.816798,1.8928,1.0483,2.0061,1.1393,0.7303,-0.5789,
17.848295,1.8928,1.0483,2.0061,1.2051,1.1782,-0.4015,
17.879889,1.8928,1.0483,2.0061,1.2051,1.1782,-0.4015,
17.881506,-0.1154,2.8922,0.6079,1.2051,1.1782,-0.4015,
17.912626,-0.1154,2.8922,0.6079,-0.7854,0.9375,-0.4479,
17.946466,-0.1154,2.8922,0.6079,-0.7854,0.9375,-0.4479,
17.949743,-1.8713,1.1787,-0.5054,-0.7854,0.9375,-0.4479,
17.979075,-1.8713,1.1787,-0.5054,-1.9328,0.0304,-0.1807,
18.010817,-1.8713,1.1787,-0.5054,-1.9328,0.0304,-0.1807,
18.012269,-1.2677,0.8259,0.1127,-1.9328,0.0304,-0.1807,
18.045218,-1.2677,0.8259,0.1127,-1.5843,-1.1944,0.2876,
18.077681,-1.2677,0.8259,0.1127,-1.5843,-1.1944,0.2876,
18.080407,-1.2139,-1.0028,-0.9310,-1.5843,-1.1944,0.2876,
18.109474,-1.2139,-1.0028,-0.9310,-1.5243,-0.3590,0.2350,
18.143426,-1.2139,-1.0028,-0.9310,-1.5243,-0.3590,0.2350,
18.145214,-0.8460,-1.7240,-0.6854,-1.5243,-0.3590,0.2350,
18.175984,-0.8460,-1.7240,-0.6854,-1.2969,0.3450,0.2373,
18.207645,-0.8460,-1.7240,-0.6854,-1.2969,0.3450,0.2373,
18.209333,0.1224,-1.7493,0.3789,-1.2969,0.3450,0.2373,
18.241339,0.1224,-1.7493,0.3789,-0.2535,0.4465,0.9806,
18.273681,0.1224,-1.7493,0.3789,-0.2535,0.4465,0.9806,
18.275018,1.6464,-3.2037,1.0640,-0.2535,0.4465,0.9806,
18.306209,1.6464,-3.2037,1.0640,0.5409,1.3761,1.1153,
18.338934,1.6464,-3.2037,1.0640,0.5409,1.3761,1.1153,
18.340514,0.2938,-5.4695,-1.5791,0.5409,1.3761,1.1153,
18.370711,0.2938,-5.4695,-1.5791,1.1866,1.4302,-0.2043,
18.403573,0.2938,-5.4695,-1.5791,1.1866,1.4302,-0.2043,
18.405036,1.7027,10.4186,0.6631,1.1866,1.4302,-0.2043,
18.436048,1.7027,10.4186,0.6631,0.7292,-0.1326,-0.1161,
18.470430,1.7027,10.4186,0.6631,0.7292,-0.1326,-0.1161,
18.472367,-0.9730,2.4183,-3.6396,0.7292,-0.1326,-0.1161,
18.502135,-0.9730,2.4183,-3.6396,1.0460,1.6852,-0.6067,
18.535089,-0.9730,2.4183,-3.6396,1.0460,1.6852,-0.6067,
18.536608,-2.5362,-0.4391,-1.7271,1.0460,1.6852,-0.6067,
18.567323,-2.5362,-0.4391,-1.7271,0.4662,0.7095,0.3769,
18.600385,-2.5362,-0.4391,-1.7271,0.4662,0.7095,0.3769,
18.601958,-1.0200,0.7324,0.8990,0.4662,0.7095,0.3769,
18.633521,-1.0200,0.7324,0.8990,0.2949,0.2598,0.3262,
18.665885,-1.0200,0.7324,0.8990,0.2949,0.2598,0.3262,
18.667459,0.5370,-0.7671,0.9967,0.2949,0.2598,0.3262,
18.698285,0.5370,-0.7671,0.9967,0.6660,0.5988,0.0382,
18.731950,0.5370,-0.7671,0.9967,0.6660,0.5988,0.0382,
18.733669,0.1167,-0.2361,1.1343,0.6660,0.5988,0.0382,
18.763368,0.1167,-0.2361,1.1343,0.7570,0.1655,-0.0744,
18.796689,0.1167,-0.2361,1.1343,0.7570,0.1655,-0.0744,
18.798139,0.1102,-0.2695,0.6975,0.7570,0.1655,-0.0744,
18.830356,0.1102,-0.2695,0.6975,0.5489,-0.2457,-0.1877,
18.862392,0.1102,-0.2695,0.6975,0.5489,-0.2457,-0.1877,
18.864115,1.4544,0.3399,1.9988,0.5489,-0.2457,-0.1877,
18.896112,1.4544,0.3399,1.9988,0.4907,-0.4560,0.0116,
18.928070,1.4544,0.3399,1.9988,0.4907,-0.4560,0.0116,
18.930071,3.0200,1.4836,2.2261,0.4907,-0.4560,0.0116,
18.960055,3.0200,1.4836,2.2261,1.0435,0.9273,-0.2698,
18.995084,3.0200,1.4836,2.2261,1.0435,0.9273,-0.2698,
18.996581,0.4953,2.7937,1.1762,1.0435,0.9273,-0.2698,
19.025692,0.4953,2.7937,1.1762,-0.1906,1.4659,-0.4777,
19.059277,0.4953,2.7937,1.1762,-0.1906,1.4659,-0.4777,
19.061051,-1.0459,-0.7397,-0.6279,-0.1906,1.4659,-0.4777,
19.091937,-1.0459,-0.7397,-0.6279,-1.5353,-1.0742,-0.3754,
19.124829,-1.0459,-0.7397,-0.6279,-1.5353,-1.0742,-0.3754,
19.126404,-2.3900,-1.9388,-2.3103,-1.5353,-1.0742,-0.3754,
19.157609,-2.3900,-1.9388,-2.3103,-0.5252,-1.8839,0.1411,
19.191663,-2.3900,-1.9388,-2.3103,-0.5252,-1.8839,0.1411,
19.193365,-1.7334,-4.2561,-3.1342,-0.5252,-1.8839,0.1411,
19.223371,-1.7334,-4.2561,-3.1342,0.2689,2.0360,0.1223,
19.257519,-1.7334,-4.2561,-3.1342,0.2689,2.0360,0.1223,
19.258293,2.6003,-1.2586,7.0976,0.2689,2.0360,0.1223,
19.288076,2.6003,-1.2586,7.0976,-1.1388,-1.4345,1.0117,
19.322008,2.6003,-1.2586,7.0976,-1.1388,-1.4345,1.0117,
19.322813,0.9777,-2.0765,0.2473,-1.1388,-1.4345,1.0117,
19.354963,0.9777,-2.0765,0.2473,0.7404,2.0088,0.6370,
19.387297,0.9777,-2.0765,0.2473,0.7404,2.0088,0.6370,
19.388146,1.5289,4.3115,-2.9334,0.7404,2.0088,0.6370,
19.418417,1.5289,4.3115,-2.9334,2.2402,2.7938,0.0828,
19.453170,1.5289,4.3115,-2.9334,2.2402,2.7938,0.0828,
19.454797,-1.4065,-0.6407,-2.5940,2.2402,2.7938,0.0828,
19.484824,-1.4065,-0.6407,-2.5940,0.8958,-0.1732,-0.2016,
19.517587,-1.4065,-0.6407,-2.5940,0.8958,-0.1732,-0.2016,
19.518506,-3.7593,-0.1394,-1.7352,0.8958,-0.1732,-0.2016,
19.549620,-3.7593,-0.1394,-1.7352,0.5582,0.1394,0.2158,
19.582494,-3.7593,-0.1394,-1.7352,0.5582,0.1394,0.2158,
19.583589,-1.0068,1.0571,0.1748,0.5582,0.1394,0.2158,
19.616727,-1.0068,1.0571,0.1748,-0.5173,-0.0487,0.0040,
19.648409,-1.0068,1.0571,0.1748,-0.5173,-0.0487,0.0040,
19.650150,0.6062,0.3343,1.6885,-0.5173,-0.0487,0.0040,
19.680105,0.6062,0.3343,1.6885,0.2010,-1.1390,-0.3335,
19.714106,0.6062,0.3343,1.6885,0.2010,-1.1390,-0.3335,
19.715915,1.2841,-0.9037,0.6342,0.2010,-1.1390,-0.3335,
19.746211,1.2841,-0.9037,0.6342,0.4536,-0.8001,-0.3870,
19.780071,1.2841,-0.9037,0.6342,0.4536,-0.8001,-0.3870,
19.783270,5.2424,4.9956,2.6481,0.4536,-0.8001,-0.3870,
19.812888,5.2424,4.9956,2.6481,-3.3792,-0.8115,0.9730,
19.844698,5.2424,4.9956,2.6481,-3.3792,-0.8115,0.9730,
19.846278,0.4068,2.4889,-2.4700,-3.3792,-0.8115,0.9730,
19.877429,0.4068,2.4889,-2.4700,-2.8889,2.2090,2.7432,
19.910973,0.4068,2.4889,-2.4700,-2.8889,2.2090,2.7432,
19.912428,-0.8064,4.0806,0.9065,-2.8889,2.2090,2.7432,
19.943033,-0.8064,4.0806,0.9065,0.3273,-0.0987,0.2404,
19.975435,-0.8064,4.0806,0.9065,0.3273,-0.0987,0.2404,
19.976665,-3.3365,-7.2935,-3.4896,0.3273,-0.0987,0.2404,
20.008992,-3.3365,-7.2935,-3.4896,0.8167,3.1325,-0.5869,
20.041679,-3.3365,-7.2935,-3.4896,0.8167,3.1325,-0.5869,
20.043433,-2.2477,-10.0788,8.5259,0.8167,3.1325,-0.5869,
20.075336,-2.2477,-10.0788,8.5259,0.2518,-3.0829,-0.6113,
20.107912,-2.2477,-10.0788,8.5259,0.2518,-3.0829,-0.6113,
20.109596,-2.5928,-7.5635,-2.3536,0.2518,-3.0829,-0.6113,
20.141047,-2.5928,-7.5635,-2.3536,3.8529,3.2632,-0.3622,
20.173557,-2.5928,-7.5635,-2.3536,3.8529,3.2632,-0.3622,
20.175679,4.2582,22.8434,-6.4945,3.8529,3.2632,-0.3622,
20.205990,4.2582,22.8434,-6.4945,-0.6990,0.5293,-0.2428,
20.239127,4.2582,22.8434,-6.4945,-0.6990,0.5293,-0.2428,
20.241296,-0.7522,1.9706,-2.9249,-0.6990,0.5293,-0.2428,
20.270286,-0.7522,1.9706,-2.9249,0.6813,0.8528,-0.1923,
20.304285,-0.7522,1.9706,-2.9249,0.6813,0.8528,-0.1923,
20.305967,-2.3876,-5.7937,0.1472,0.6813,0.8528,-0.1923,
20.336358,-2.3876,-5.7937,0.1472,-0.4247,-1.2802,-0.2996,
20.369606,-2.3876,-5.7937,0.1472,-0.4247,-1.2802,-0.2996,
20.371436,-0.3697,1.9114,0.5768,-0.4247,-1.2802,-0.2996,
20.402414,-0.3697,1.9114,0.5768,1.1869,0.0950,0.4007,
20.433914,-0.3697,1.9114,0.5768,1.1869,0.0950,0.4007,
20.435653,1.2938,-2.0839,-0.6471,1.1869,0.0950,0.4007,
20.466142,1.2938,-2.0839,-0.6471,0.4846,0.2358,-0.4708,
20.499383,1.2938,-2.0839,-0.6471,0.4846,0.2358,-0.4708,
20.500926,-0.3930,0.0905,-0.2602,0.4846,0.2358,-0.4708,
20.532169,-0.3930,0.0905,-0.2602,0.2682,-0.5195,-0.1297,
20.564865,-0.3930,0.0905,-0.2602,0.2682,-0.5195,-0.1297,
20.566396,-0.3967,-0.1731,0.7540,0.2682,-0.5195,-0.1297,
20.598794,-0.3967,-0.1731,0.7540,-0.3259,-2.0039,-0.1866,
20.632605,-0.3967,-0.1731,0.7540,-0.3259,-2.0039,-0.1866,
20.634387,-0.2699,-1.3647,2.6257,-0.3259,-2.0039,-0.1866,
20.663734,-0.2699,-1.3647,2.6257,0.4100,-2.7040,-0.1646,
20.697118,-0.2699,-1.3647,2.6257,0.4100,-2.7040,-0.1646,
20.699395,2.6649,-0.2175,3.2528,0.4100,-2.7040,-0.1646,
20.729057,2.6649,-0.2175,3.2528,-0.0994,-0.1170,0.0235,
20.762416,2.6649,-0.2175,3.2528,-0.0994,-0.1170,0.0235,
20.764253,2.6472,5.4984,3.4176,-0.0994,-0.1170,0.0235,
20.794039,2.6472,5.4984,3.4176,-2.2329,0.5316,0.6225,
20.827599,2.6472,5.4984,3.4176,-2.2329,0.5316,0.6225,
20.829401,-1.1285,0.2343,-1.3121,-2.2329,0.5316,0.6225,
20.859760,-1.1285,0.2343,-1.3121,-1.1025,2.0162,0.9655,
20.893246,-1.1285,0.2343,-1.3121,-1.1025,2.0162,0.9655,
20.895100,-1.4284,1.6037,-3.2806,-1.1025,2.0162,0.9655,
20.925326,-1.4284,1.6037,-3.2806,-0.6359,-0.6220,-0.1535,
20.962744,-1.4284,1.6037,-3.2806,-0.6359,-0.6220,-0.1535,
20.964211,-3.3975,-3.6434,-3.6566,-0.6359,-0.6220,-0.1535,
20.990697,-3.3975,-3.6434,-3.6566,0.2721,0.3581,-0.2978,
21.024127,-3.3975,-3.6434,-3.6566,0.2721,0.3581,-0.2978,
21.025908,-1.9831,-4.5271,-2.0359,0.2721,0.3581,-0.2978,
21.055885,-1.9831,-4.5271,-2.0359,-1.6677,1.0157,1.3057,
21.088785,-1.9831,-4.5271,-2.0359,-1.6677,1.0157,1.3057,
21.090708,0.9272,-1.5336,2.2717,-1.6677,1.0157,1.3057,
21.122982,0.9272,-1.5336,2.2717,0.2182,1.8179,-0.1836,
21.154696,0.9272,-1.5336,2.2717,0.2182,1.8179,-0.1836,
21.156468,-1.3245,4.2285,4.6336,0.2182,1.8179,-0.1836,
21.188229,-1.3245,4.2285,4.6336,2.7058,-1.5608,0.5567,
21.220634,-1.3245,4.2285,4.6336,2.7058,-1.5608,0.5567,
21.221310,1.2922,1.7766,-6.7869,2.7058,-1.5608,0.5567,
21.253041,1.2922,1.7766,-6.7869,0.4238,1.0870,-0.4244,
21.285453,1.2922,1.7766,-6.7869,0.4238,1.0870,-0.4244,
21.286804,-1.7127,-0.0520,-1.0859,0.4238,1.0870,-0.4244,
21.318832,-1.7127,-0.0520,-1.0859,0.7982,-0.2543,0.3312,
21.352579,-1.7127,-0.0520,-1.0859,0.7982,-0.2543,0.3312,
21.355054,-0.9138,1.3240,0.7292,0.7982,-0.2543,0.3312,
21.383440,-0.9138,1.3240,0.7292,0.6907,-0.4097,-0.2078,
21.418745,-0.9138,1.3240,0.7292,0.6907,-0.4097,-0.2078,
21.420724,-0.3681,-0.4666,-1.2760,0.6907,-0.4097,-0.2078,
21.448593,-0.3681,-0.4666,-1.2760,0.5901,0.0487,-0.3757,
21.482054,-0.3681,-0.4666,-1.2760,0.5901,0.0487,-0.3757,
21.483219,-0.3217,-0.3294,-0.9182,0.5901,0.0487,-0.3757,
21.515782,-0.3217,-0.3294,-0.9182,0.3045,-0.7205,-0.3114,
21.547918,-0.3217,-0.3294,-0.9182,0.3045,-0.7205,-0.3114,
21.549540,-0.9134,-0.5467,-0.7986,0.3045,-0.7205,-0.3114,
21.581168,-0.9134,-0.5467,-0.7986,0.0075,-0.9516,-0.2398,
21.613059,-0.9134,-0.5467,-0.7986,0.0075,-0.9516,-0.2398,
21.615338,0.3591,-0.7778,0.2200,0.0075,-0.9516,-0.2398,
21.645975,0.3591,-0.7778,0.2200,-0.2651,-1.4777,-0.3120,
21.677771,0.3591,-0.7778,0.2200,-0.2651,-1.4777,-0.3120,
21.679827,3.0359,0.2095,3.8316,-0.2651,-1.4777,-0.3120,
21.712131,3.0359,0.2095,3.8316,0.5171,-1.8862,-0.6104,
21.743870,3.0359,0.2095,3.8316,0.5171,-1.8862,-0.6104,
21.745813,2.3579,0.1490,2.2596,0.5171,-1.8862,-0.6104,
21.776189,2.3579,0.1490,2.2596,0.5628,2.0299,-0.3131,
21.809331,2.3579,0.1490,2.2596,0.5628,2.0299,-0.3131,
21.811293,2.7714,2.5982,3.7343,0.5628,2.0299,-0.3131,
21.842182,2.7714,2.5982,3.7343,-1.9044,0.8247,-0.0852,
21.875376,2.7714,2.5982,3.7343,-1.9044,0.8247,-0.0852,
21.877004,1.7487,0.4624,-1.8864,-1.9044,0.8247,-0.0852,
21.912694,1.7487,0.4624,-1.8864,-2.0716,2.9267,1.1880,
21.942121,1.7487,0.4624,-1.8864,-2.0716,2.9267,1.1880,
21.943777,2.4135,2.6197,-1.3669,-2.0716,2.9267,1.1880,
21.972402,2.4135,2.6197,-1.3669,-1.2456,0.5522,1.0423,
22.007359,2.4135,2.6197,-1.3669,-1.2456,0.5522,1.0423,
22.008681,-1.2380,2.0846,-2.7565,-1.2456,0.5522,1.0423,
22.037066,-1.2380,2.0846,-2.7565,-0.5085,0.0252,0.6125,
22.070472,-1.2380,2.0846,-2.7565,-0.5085,0.0252,0.6125,
22.071575,-2.6083,-1.3828,-2.8299,-0.5085,0.0252,0.6125,
22.103381,-2.6083,-1.3828,-2.8299,0.4412,1.5910,-0.4562,
22.135991,-2.6083,-1.3828,-2.8299,0.4412,1.5910,-0.4562,
22.137354,-3.0948,-2.7173,-1.8714,0.4412,1.5910,-0.4562,
22.168895,-3.0948,-2.7173,-1.8714,-0.4760,1.7514,-1.2210,
22.201532,-3.0948,-2.7173,-1.8714,-0.4760,1.7514,-1.2210,
22.203228,-5.8774,-2.3892,5.0535,-0.4760,1.7514,-1.2210,
22.234748,-5.8774,-2.3892,5.0535,0.0764,-4.9587,-0.7671,
22.267765,-5.8774,-2.3892,5.0535,0.0764,-4.9587,-0.7671,
22.269335,-2.5510,-1.3247,-4.8085,0.0764,-4.9587,-0.7671,
22.300645,-2.5510,-1.3247,-4.8085,1.2036,-0.4352,0.6199,
22.332781,-2.5510,-1.3247,-4.8085,1.2036,-0.4352,0.6199,
22.335055,2.1876,0.3995,-4.4748,1.2036,-0.4352,0.6199,
22.366330,2.1876,0.3995,-4.4748,0.9661,-0.8572,-0.3632,
22.399931,2.1876,0.3995,-4.4748,0.9661,-0.8572,-0.3632,
22.401168,-0.0415,5.4506,-0.3970,0.9661,-0.8572,-0.3632,
22.431123,-0.0415,5.4506,-0.3970,-1.2889,-2.8303,0.2488,
22.464153,-0.0415,5.4506,-0.3970,-1.2889,-2.8303,0.2488,
22.465471,-0.2654,0.4566,0.9101,-1.2889,-2.8303,0.2488,
22.495164,-0.2654,0.4566,0.9101,0.5337,0.5229,-0.7621,
22.529917,-0.2654,0.4566,0.9101,0.5337,0.5229,-0.7621,
22.531931,-0.2332,-1.4800,-0.5004,0.5337,0.5229,-0.7621,
22.562623,-0.2332,-1.4800,-0.5004,0.3694,0.1747,-0.5583,
22.595079,-0.2332,-1.4800,-0.5004,0.3694,0.1747,-0.5583,
22.597629,3.8298,-0.3476,1.8527,0.3694,0.1747,-0.5583,
22.627921,3.8298,-0.3476,1.8527,0.1556,-0.9690,-0.1836,
22.660668,3.8298,-0.3476,1.8527,0.1556,-0.9690,-0.1836,
22.662249,4.9320,-0.6890,1.0673,0.1556,-0.9690,-0.1836,
22.693210,4.9320,-0.6890,1.0673,0.9751,3.0763,-0.3954,
22.728141,4.9320,-0.6890,1.0673,0.9751,3.0763,-0.3954,
22.730429,2.8742,1.0957,0.8150,0.9751,3.0763,-0.3954,
22.758908,2.8742,1.0957,0.8150,0.8903,3.6395,-0.2689,
22.791474,2.8742,1.0957,0.8150,0.8903,3.6395,-0.2689,
22.792970,0.6293,0.7718,-1.8753,0.8903,3.6395,-0.2689,
22.823774,0.6293,0.7718,-1.8753,-1.4502,1.1961,0.1573,
22.857442,0.6293,0.7718,-1.8753,-1.4502,1.1961,0.1573,
22.859022,-1.6490,1.7888,-3.2809,-1.4502,1.1961,0.1573,
22.891523,-1.6490,1.7888,-3.2809,-2.0794,0.2350,0.3598,
22.922829,-1.6490,1.7888,-3.2809,-2.0794,0.2350,0.3598,
22.924356,-3.0573,0.8740,-2.1195,-2.0794,0.2350,0.3598,
22.955115,-3.0573,0.8740,-2.1195,-1.5246,0.0870,0.0528,
22.987627,-3.0573,0.8740,-2.1195,-1.5246,0.0870,0.0528,
22.988617,-2.5542,-2.1266,0.6828,-1.5246,0.0870,0.0528,
23.021723,-2.5542,-2.1266,0.6828,0.4719,0.7982,0.7839,
23.054921,-2.5542,-2.1266,0.6828,0.4719,0.7982,0.7839,
23.057539,-1.5307,-4.3326,-0.1073,0.4719,0.7982,0.7839,
23.087566,-1.5307,-4.3326,-0.1073,1.5571,0.4812,1.7688,
23.118236,-1.5307,-4.3326,-0.1073,1.5571,0.4812,1.7688,
23.118972,3.0313,-2.5645,2.9324,1.5571,0.4812,1.7688,
23.151438,3.0313,-2.5645,2.9324,0.7460,0.0684,1.5872,
23.184198,3.0313,-2.5645,2.9324,0.7460,0.0684,1.5872,
23.184952,0.9268,-3.0737,-2.3502,0.7460,0.0684,1.5872,
23.216598,0.9268,-3.0737,-2.3502,2.2564,2.2281,-0.5644,
23.249806,0.9268,-3.0737,-2.3502,2.2564,2.2281,-0.5644,
23.251478,-2.3680,6.6161,-4.7204,2.2564,2.2281,-0.5644,
23.282421,-2.3680,6.6161,-4.7204,0.4775,1.3349,-0.3910,
23.315579,-2.3680,6.6161,-4.7204,0.4775,1.3349,-0.3910,
23.317181,-5.0018,2.7445,-5.6416,0.4775,1.3349,-0.3910,
23.347174,-5.0018,2.7445,-5.6416,-1.0542,0.5498,-0.3439,
23.379993,-5.0018,2.7445,-5.6416,-1.0542,0.5498,-0.3439,
23.381716,0.3996,0.3110,6.6882,-1.0542,0.5498,-0.3439,
23.413983,0.3996,0.3110,6.6882,0.6686,-2.7472,-0.1785,
23.445753,0.3996,0.3110,6.6882,0.6686,-2.7472,-0.1785,
23.446722,-0.5416,-0.9588,0.0849,0.6686,-2.7472,-0.1785,
23.480006,-0.5416,-0.9588,0.0849,0.9091,0.1242,0.4227,
23.510913,-0.5416,-0.9588,0.0849,0.9091,0.1242,0.4227,
23.511671,2.5244,-2.0768,0.6729,0.9091,0.1242,0.4227,
23.543359,2.5244,-2.0768,0.6729,0.3233,0.0550,-0.5971,
23.577581,2.5244,-2.0768,0.6729,0.3233,0.0550,-0.5971,
23.578241,2.0713,-1.0954,0.6849,0.3233,0.0550,-0.5971,
23.609210,2.0713,-1.0954,0.6849,0.5976,-0.1342,-0.4362,
23.643191,2.0713,-1.0954,0.6849,0.5976,-0.1342,-0.4362,
23.644616,1.3975,0.7116,-0.2693,0.5976,-0.1342,-0.4362,
23.674783,1.3975,0.7116,-0.2693,0.5971,0.3647,-0.5486,
23.708670,1.3975,0.7116,-0.2693,0.5971,0.3647,-0.5486,
23.709615,2.0505,0.7904,0.0733,0.5971,0.3647,-0.5486,
23.741874,2.0505,0.7904,0.0733,0.8259,-0.0113,-0.3363,
23.774473,2.0505,0.7904,0.0733,0.8259,-0.0113,-0.3363,
23.775727,1.9367,1.7500,0.4146,0.8259,-0.0113,-0.3363,
23.805675,1.9367,1.7500,0.4146,-0.5574,0.6889,0.1388,
23.839655,1.9367,1.7500,0.4146,-0.5574,0.6889,0.1388,
23.841297,-0.6805,1.4171,-0.1206,-0.5574,0.6889,0.1388,
23.873206,-0.6805,1.4171,-0.1206,-2.4416,0.1168,0.0921,
23.905260,-0.6805,1.4171,-0.1206,-2.4416,0.1168,0.0921,
23.906268,-2.7637,1.1428,-0.7534,-2.4416,0.1168,0.0921,
23.936525,-2.7637,1.1428,-0.7534,-1.5104,-1.4833,0.8215,
23.970870,-2.7637,1.1428,-0.7534,-1.5104,-1.4833,0.8215,
23.972479,-2.2121,-0.9082,-2.0109,-1.5104,-1.4833,0.8215,
24.002919,-2.2121,-0.9082,-2.0109,-0.7694,0.1565,0.7004,
24.034990,-2.2121,-0.9082,-2.0109,-0.7694,0.1565,0.7004,
24.036520,-0.0159,-4.6246,1.2377,-0.7694,0.1565,0.7004,
24.069712,-0.0159,-4.6246,1.2377,1.2312,1.2268,0.8925,
24.102016,-0.0159,-4.6246,1.2377,1.2312,1.2268,0.8925,
24.103935,4.0018,-2.5912,3.1059,1.2312,1.2268,0.8925,
24.134032,4.0018,-2.5912,3.1059,0.5719,-0.2616,0.5005,
24.167556,4.0018,-2.5912,3.1059,0.5719,-0.2616,0.5005,
24.169343,-1.5466,-1.7436,-0.9069,0.5719,-0.2616,0.5005,
24.199160,-1.5466,-1.7436,-0.9069,2.3679,2.2315,-0.0689,
24.233188,-1.5466,-1.7436,-0.9069,2.3679,2.2315,-0.0689,
24.235183,-2.4752,1.9799,-2.3901,2.3679,2.2315,-0.0689,
24.265056,-2.4752,1.9799,-2.3901,2.5142,1.0371,-0.3257,
24.297895,-2.4752,1.9799,-2.3901,2.5142,1.0371,-0.3257,
24.300125,-4.0887,4.0067,-6.5041,2.5142,1.0371,-0.3257,
24.330392,-4.0887,4.0067,-6.5041,-1.1913,1.6735,-0.4259,
24.363238,-4.0887,4.0067,-6.5041,-1.1913,1.6735,-0.4259,
24.364357,-1.7555,0.6606,2.3701,-1.1913,1.6735,-0.4259,
24.396213,-1.7555,0.6606,2.3701,0.2300,-2.5030,0.1799,
24.428760,-1.7555,0.6606,2.3701,0.2300,-2.5030,0.1799,
24.429899,0.3870,-0.4058,-2.4483,0.2300,-2.5030,0.1799,
24.462155,0.3870,-0.4058,-2.4483,0.7366,0.0971,-0.3459,
24.493645,0.3870,-0.4058,-2.4483,0.7366,0.0971,-0.3459,
24.494745,1.6484,-0.7940,1.5118,0.7366,0.0971,-0.3459,
24.526238,1.6484,-0.7940,1.5118,0.3009,-0.5858,-0.1787,
24.559893,1.6484,-0.7940,1.5118,0.3009,-0.5858,-0.1787,
24.561362,0.2588,-0.0476,-0.4493,0.3009,-0.5858,-0.1787,
24.592657,0.2588,-0.0476,-0.4493,0.1477,0.1342,0.0286,
24.625167,0.2588,-0.0476,-0.4493,0.1477,0.1342,0.0286,
24.626674,0.6736,-0.1806,0.8348,0.1477,0.1342,0.0286,
24.657422,0.6736,-0.1806,0.8348,0.1229,-0.0684,-0.1057,
24.691134,0.6736,-0.1806,0.8348,0.1229,-0.0684,-0.1057,
24.692590,0.6189,0.2833,0.2083,0.1229,-0.0684,-0.1057,
24.723298,0.6189,0.2833,0.2083,0.6665,-0.1588,-0.1762,
24.755528,0.6189,0.2833,0.2083,0.6665,-0.1588,-0.1762,
24.757404,0.3200,1.1170,0.5236,0.6665,-0.1588,-0.1762,
24.788042,0.3200,1.1170,0.5236,0.3641,-0.3732,-0.2993,
24.821259,0.3200,1.1170,0.5236,0.3641,-0.3732,-0.2993,
24.822672,0.7357,1.8072,1.3971,0.3641,-0.3732,-0.2993,
24.854308,0.7357,1.8072,1.3971,-0.3465,-0.2518,-0.4533,
24.886380,0.7357,1.8072,1.3971,-0.3465,-0.2518,-0.4533,
24.888047,-0.4267,0.6218,0.8092,-0.3465,-0.2518,-0.4533,
24.919288,-0.4267,0.6218,0.8092,-1.5760,0.0692,-0.3639,
24.952708,-0.4267,0.6218,0.8092,-1.5760,0.0692,-0.3639,
24.954334,-1.3423,0.0955,-0.5135,-1.5760,0.0692,-0.3639,
24.984711,-1.3423,0.0955,-0.5135,-2.0655,-1.8604,0.0000,
25.017872,-1.3423,0.0955,-0.5135,-2.0655,-1.8604,0.0000,
25.020395,-1.9803,0.5833,-2.0021,-2.0655,-1.8604,0.0000,
25.050349,-1.9803,0.5833,-2.0021,-1.9677,-1.3683,0.1597,
25.084972,-1.9803,0.5833,-2.0021,-1.9677,-1.3683,0.1597,
25.086854,-0.1275,-1.9490,0.6317,-1.9677,-1.3683,0.1597,
25.116611,-0.1275,-1.9490,0.6317,-1.3120,-1.2155,0.4041,
25.149035,-0.1275,-1.9490,0.6317,-1.3120,-1.2155,0.4041,
25.150208,0.7651,-2.9018,0.3291,-1.3120,-1.2155,0.4041,
25.181228,0.7651,-2.9018,0.3291,0.3436,1.3972,0.1466,
25.213487,0.7651,-2.9018,0.3291,0.3436,1.3972,0.1466,
25.214963,0.2858,-1.9316,0.1122,0.3436,1.3972,0.1466,
25.246135,0.2858,-1.9316,0.1122,-0.2303,1.3282,0.3774,
25.280039,0.2858,-1.9316,0.1122,-0.2303,1.3282,0.3774,
25.281832,1.1544,-0.6806,2.3137,-0.2303,1.3282,0.3774,
25.312623,1.1544,-0.6806,2.3137,0.1159,1.9667,-0.0971,
25.344838,1.1544,-0.6806,2.3137,0.1159,1.9667,-0.0971,
25.347233,-1.6424,-1.6449,0.9424,0.1159,1.9667,-0.0971,
25.379419,-1.6424,-1.6449,0.9424,0.2242,0.7711,-0.4623,
25.411253,-1.6424,-1.6449,0.9424,0.2242,0.7711,-0.4623,
25.412926,-3.0752,-2.3769,-1.5600,0.2242,0.7711,-0.4623,
25.442742,-3.0752,-2.3769,-1.5600,0.8977,0.1437,-0.4917,
25.476713,-3.0752,-2.3769,-1.5600,0.8977,0.1437,-0.4917,
25.478306,-2.1025,9.3145,-0.8258,0.8977,0.1437,-0.4917,
25.508565,-2.1025,9.3145,-0.8258,0.4241,-0.9991,0.6691,
25.543145,-2.1025,9.3145,-0.8258,0.4241,-0.9991,0.6691,
25.544834,-1.0371,1.3854,-5.2384,0.4241,-0.9991,0.6691,
25.574156,-1.0371,1.3854,-5.2384,0.4731,0.9653,0.5400,
25.607342,-1.0371,1.3854,-5.2384,0.4731,0.9653,0.5400,
25.609424,1.6325,1.2504,-0.2545,0.4731,0.9653,0.5400,
25.640957,1.6325,1.2504,-0.2545,0.2796,-0.9465,0.9305,
25.673779,1.6325,1.2504,-0.2545,0.2796,-0.9465,0.9305,
25.675584,2.9613,-1.7111,-0.4759,0.2796,-0.9465,0.9305,
25.705190,2.9613,-1.7111,-0.4759,0.9789,0.7981,-0.2786,
25.738329,2.9613,-1.7111,-0.4759,0.9789,0.7981,-0.2786,
25.740074,0.9537,-1.4332,0.8847,0.9789,0.7981,-0.2786,
25.771211,0.9537,-1.4332,0.8847,1.1565,0.4664,-0.2969,
25.805788,0.9537,-1.4332,0.8847,1.1565,0.4664,-0.2969,
25.807661,-0.2703,0.0960,-0.4842,1.1565,0.4664,-0.2969,
25.836321,-0.2703,0.0960,-0.4842,0.4230,-0.4319,-0.3760,
25.869404,-0.2703,0.0960,-0.4842,0.4230,-0.4319,-0.3760,
25.871007,0.1618,0.5205,1.2205,0.4230,-0.4319,-0.3760,
25.901680,0.1618,0.5205,1.2205,0.4456,-1.5875,-0.4937,
25.936801,0.1618,0.5205,1.2205,0.4456,-1.5875,-0.4937,
25.939128,2.4819,1.0153,2.0316,0.4456,-1.5875,-0.4937,
25.967475,2.4819,1.0153,2.0316,0.7349,-0.0944,-0.7604,
26.000432,2.4819,1.0153,2.0316,0.7349,-0.0944,-0.7604,
26.001962,2.9121,1.7205,0.2457,0.7349,-0.0944,-0.7604,
26.034295,2.9121,1.7205,0.2457,-0.0140,1.5010,-0.1242,
26.065686,2.9121,1.7205,0.2457,-0.0140,1.5010,-0.1242,
26.067366,-0.3558,-0.1244,-0.3832,-0.0140,1.5010,-0.1242,
26.098101,-0.3558,-0.1244,-0.3832,-1.8937,0.6603,-0.6723,
26.130472,-0.3558,-0.1244,-0.3832,-1.8937,0.6603,-0.6723,
26.131678,-2.5695,-0.3751,-2.3132,-1.8937,0.6603,-0.6723,
26.163787,-2.5695,-0.3751,-2.3132,-0.9777,-0.3015,0.4047,
26.196936,-2.5695,-0.3751,-2.3132,-0.9777,-0.3015,0.4047,
26.198459,-2.5947,-0.9855,-2.9807,-0.9777,-0.3015,0.4047,
26.229417,-2.5947,-0.9855,-2.9807,-0.7764,-0.3738,0.7868,
26.263263,-2.5947,-0.9855,-2.9807,-0.7764,-0.3738,0.7868,
26.265079,-1.1620,-3.4053,-1.3416,-0.7764,-0.3738,0.7868,
26.295233,-1.1620,-3.4053,-1.3416,-0.0638,0.7847,0.1074,
26.327429,-1.1620,-3.4053,-1.3416,-0.0638,0.7847,0.1074,
26.328960,0.2174,-1.8580,2.2853,-0.0638,0.7847,0.1074,
26.360082,0.2174,-1.8580,2.2853,0.5580,1.7906,0.4273,
26.392401,0.2174,-1.8580,2.2853,0.5580,1.7906,0.4273,
26.394307,-0.0446,-0.5763,5.0629,0.5580,1.7906,0.4273,
26.425034,-0.0446,-0.5763,5.0629,-0.4960,-0.3760,0.3874,
26.458511,-0.0446,-0.5763,5.0629,-0.4960,-0.3760,0.3874,
26.460486,-2.4160,-1.3648,-1.2416,-0.4960,-0.3760,0.3874,
26.490921,-2.4160,-1.3648,-1.2416,0.9247,-0.0687,1.3074,
26.523606,-2.4160,-1.3648,-1.2416,0.9247,-0.0687,1.3074,
26.524606,2.5563,6.0379,-1.2260,0.9247,-0.0687,1.3074,
26.556131,2.5563,6.0379,-1.2260,-0.3236,-0.2466,0.1373,
26.588967,2.5563,6.0379,-1.2260,-0.3236,-0.2466,0.1373,
26.590515,-0.9492,0.5562,-3.6006,-0.3236,-0.2466,0.1373,
26.621425,-0.9492,0.5562,-3.6006,1.1122,0.6377,0.3558,
26.654025,-0.9492,0.5562,-3.6006,1.1122,0.6377,0.3558,
26.655608,-0.2595,2.3295,-3.3100,1.1122,0.6377,0.3558,
26.687207,-0.2595,2.3295,-3.3100,0.2289,0.4643,0.3030,
26.721748,-0.2595,2.3295,-3.3100,0.2289,0.4643,0.3030,
26.723525,0.4706,-0.4219,0.5126,0.2289,0.4643,0.3030,
26.752723,0.4706,-0.4219,0.5126,1.0974,0.2666,0.2433,
26.786994,0.4706,-0.4219,0.5126,1.0974,0.2666,0.2433,
26.788705,-0.0557,-0.5146,-0.3427,1.0974,0.2666,0.2433,
26.819264,-0.0557,-0.5146,-0.3427,1.3418,1.3873,-0.0493,
26.850789,-0.0557,-0.5146,-0.3427,1.3418,1.3873,-0.0493,
26.852588,0.0636,-0.0571,-0.7267,1.3418,1.3873,-0.0493,
26.883293,0.0636,-0.0571,-0.7267,0.5377,0.7969,0.0428,
26.918176,0.0636,-0.0571,-0.7267,0.5377,0.7969,0.0428,
26.920054,-0.1527,-0.5253,-0.3168,0.5377,0.7969,0.0428,
26.949230,-0.1527,-0.5253,-0.3168,0.1961,0.2304,0.0341,
26.983150,-0.1527,-0.5253,-0.3168,0.1961,0.2304,0.0341,
26.985167,-0.7904,0.0984,-0.8028,0.1961,0.2304,0.0341,
27.014897,-0.7904,0.0984,-0.8028,0.0933,-0.2334,-0.1277,
27.048030,-0.7904,0.0984,-0.8028,0.0933,-0.2334,-0.1277,
27.049282,-0.0951,0.1741,0.0407,0.0933,-0.2334,-0.1277,
27.079930,-0.0951,0.1741,0.0407,-0.2271,-1.0224,-0.2457,
27.115116,-0.0951,0.1741,0.0407,-0.2271,-1.0224,-0.2457,
27.116543,0.5364,-0.1993,-0.0437,-0.2271,-1.0224,-0.2457,
27.145919,0.5364,-0.1993,-0.0437,0.0162,-0.9300,-0.3105,
27.178928,0.5364,-0.1993,-0.0437,0.0162,-0.9300,-0.3105,
27.180272,0.7552,-0.6293,0.1506,0.0162,-0.9300,-0.3105,
27.211512,0.7552,-0.6293,0.1506,0.3135,-0.7016,-0.4688,
27.244011,0.7552,-0.6293,0.1506,0.3135,-0.7016,-0.4688,
27.245165,1.3039,0.7270,1.2995,0.3135,-0.7016,-0.4688,
27.278004,1.3039,0.7270,1.2995,0.5487,-0.2353,-0.5583,
27.310287,1.3039,0.7270,1.2995,0.5487,-0.2353,-0.5583,
27.311925,2.9350,0.7211,2.4413,0.5487,-0.2353,-0.5583,
27.341244,2.9350,0.7211,2.4413,0.3600,0.1822,-0.1935,
27.374087,2.9350,0.7211,2.4413,0.3600,0.1822,-0.1935,
27.374855,3.8727,1.8070,2.2324,0.3600,0.1822,-0.1935,
27.406881,3.8727,1.8070,2.2324,-0.4039,1.6163,0.1399,
27.440469,3.8727,1.8070,2.2324,-0.4039,1.6163,0.1399,
27.441326,0.2499,0.5506,-0.3516,-0.4039,1.6163,0.1399,
27.472983,0.2499,0.5506,-0.3516,-1.3540,1.6890,-0.0110,
27.505781,0.2499,0.5506,-0.3516,-1.3540,1.6890,-0.0110,
27.506796,-2.6581,1.6295,-3.6821,-1.3540,1.6890,-0.0110,
27.538137,-2.6581,1.6295,-3.6821,-1.1141,0.4406,0.0950,
27.571362,-2.6581,1.6295,-3.6821,-1.1141,0.4406,0.0950,
27.572692,-3.4416,-0.9208,-4.1787,-1.1141,0.4406,0.0950,
27.603591,-3.4416,-0.9208,-4.1787,-1.5186,-0.0759,-0.4120,
27.636414,-3.4416,-0.9208,-4.1787,-1.5186,-0.0759,-0.4120,
27.637587,-2.5907,-4.8260,-3.3301,-1.5186,-0.0759,-0.4120,
27.669862,-2.5907,-4.8260,-3.3301,-0.9493,1.5079,0.1489,
27.702077,-2.5907,-4.8260,-3.3301,-0.9493,1.5079,0.1489,
27.703370,3.5122,-2.0460,10.3961,-0.9493,1.5079,0.1489,
27.735111,3.5122,-2.0460,10.3961,0.2477,-0.9794,1.7396,
27.767766,3.5122,-2.0460,10.3961,0.2477,-0.9794,1.7396,
27.769249,-0.8219,-4.8606,-0.8567,0.2477,-0.9794,1.7396,
27.800896,-0.8219,-4.8606,-0.8567,2.9086,-0.2802,0.5457,
27.833662,-0.8219,-4.8606,-0.8567,2.9086,-0.2802,0.5457,
27.835271,-1.2138,9.1624,-9.7521,2.9086,-0.2802,0.5457,
27.866459,-1.2138,9.1624,-9.7521,-0.6819,1.7614,0.5748,
27.899529,-1.2138,9.1624,-9.7521,-0.6819,1.7614,0.5748,
27.901233,-1.3173,1.1351,-1.9949,-0.6819,1.7614,0.5748,
27.931376,-1.3173,1.1351,-1.9949,-0.4913,-1.0930,0.2891,
27.964302,-1.3173,1.1351,-1.9949,-0.4913,-1.0930,0.2891,
27.965950,0.9804,1.0796,-0.5648,-0.4913,-1.0930,0.2891,
27.996832,0.9804,1.0796,-0.5648,1.0939,-0.1613,0.1718,
28.030222,0.9804,1.0796,-0.5648,1.0939,-0.1613,0.1718,
28.031888,0.3579,-1.3097,-1.0135,1.0939,-0.1613,0.1718,
28.063023,0.3579,-1.3097,-1.0135,1.0348,0.6958,-0.1303,
28.094135,0.3579,-1.3097,-1.0135,1.0348,0.6958,-0.1303,
28.095460,0.1954,-0.2164,-0.9648,1.0348,0.6958,-0.1303,
28.127277,0.1954,-0.2164,-0.9648,0.5669,0.2633,-0.2793,
28.160696,0.1954,-0.2164,-0.9648,0.5669,0.2633,-0.2793,
28.161935,0.1005,-0.4878,0.0447,0.5669,0.2633,-0.2793,
28.192583,0.1005,-0.4878,0.0447,0.3635,-0.1927,-0.3157,
28.227108,0.1005,-0.4878,0.0447,0.3635,-0.1927,-0.3157,
28.228750,0.4366,0.2632,0.8942,0.3635,-0.1927,-0.3157,
28.258187,0.4366,0.2632,0.8942,0.3827,0.3056,-0.3694,
28.293177,0.4366,0.2632,0.8942,0.3827,0.3056,-0.3694,
28.295245,0.4987,-0.2759,0.1401,0.3827,0.3056,-0.3694,
28.324422,0.4987,-0.2759,0.1401,0.3899,-0.5153,-0.3132,
28.357678,0.4987,-0.2759,0.1401,0.3899,-0.5153,-0.3132,
28.359585,0.4868,0.2849,-0.7298,0.3899,-0.5153,-0.3132,
28.389312,0.4868,0.2849,-0.7298,0.1939,-0.3277,-0.4609,
28.423487,0.4868,0.2849,-0.7298,0.1939,-0.3277,-0.4609,
28.425365,2.0897,0.2277,1.0247,0.1939,-0.3277,-0.4609,
28.456481,2.0897,0.2277,1.0247,0.5651,-0.0696,-0.4484,
28.489481,2.0897,0.2277,1.0247,0.5651,-0.0696,-0.4484,
28.491268,1.2655,0.5440,1.3408,0.5651,-0.0696,-0.4484,
28.521048,1.2655,0.5440,1.3408,0.2488,1.1099,-0.2599,
28.553690,1.2655,0.5440,1.3408,0.2488,1.1099,-0.2599,
28.555493,0.5339,0.9255,1.2945,0.2488,1.1099,-0.2599,
28.587020,0.5339,0.9255,1.2945,-1.6770,0.0386,-0.1197,
28.619957,0.5339,0.9255,1.2945,-1.6770,0.0386,-0.1197,
28.621663,-1.1092,0.3010,-1.5936,-1.6770,0.0386,-0.1197,
28.652122,-1.1092,0.3010,-1.5936,-2.2533,-0.8847,-0.4630,
28.684500,-1.1092,0.3010,-1.5936,-2.2533,-0.8847,-0.4630,
28.686876,-2.6088,1.5318,-2.8482,-2.2533,-0.8847,-0.4630,
28.717023,-2.6088,1.5318,-2.8482,-2.0546,-0.2911,-0.5583,
28.750915,-2.6088,1.5318,-2.8482,-2.0546,-0.2911,-0.5583,
28.752612,-1.4262,-1.4061,-0.6173,-2.0546,-0.2911,-0.5583,
28.782434,-1.4262,-1.4061,-0.6173,-0.8413,-0.2796,-0.1167,
28.815773,-1.4262,-1.4061,-0.6173,-0.8413,-0.2796,-0.1167,
28.817891,0.0054,-3.5938,0.6070,-0.8413,-0.2796,-0.1167,
28.848142,0.0054,-3.5938,0.6070,1.0762,0.7274,0.3024,
28.880264,0.0054,-3.5938,0.6070,1.0762,0.7274,0.3024,
28.881790,0.6173,-2.2216,1.3861,1.0762,0.7274,0.3024,
28.913103,0.6173,-2.2216,1.3861,-0.0205,0.2140,1.3662,
28.945603,0.6173,-2.2216,1.3861,-0.0205,0.2140,1.3662,
28.947251,1.3281,-3.3712,3.9854,-0.0205,0.2140,1.3662,
28.979409,1.3281,-3.3712,3.9854,1.4410,-0.1662,0.4255,
29.011221,1.3281,-3.3712,3.9854,1.4410,-0.1662,0.4255,
29.012741,-0.6522,6.3225,-4.0004,1.4410,-0.1662,0.4255,
29.044522,-0.6522,6.3225,-4.0004,0.2918,1.0933,0.4827,
29.076804,-0.6522,6.3225,-4.0004,0.2918,1.0933,0.4827,
29.079024,-1.8674,2.1750,-3.5484,0.2918,1.0933,0.4827,
29.110640,-1.8674,2.1750,-3.5484,0.4866,-1.0872,-0.0738,
29.142389,-1.8674,2.1750,-3.5484,0.4866,-1.0872,-0.0738,
29.144332,-1.6192,0.3412,-4.2179,0.4866,-1.0872,-0.0738,
29.176466,-1.6192,0.3412,-4.2179,0.7249,0.9959,0.0655,
29.208577,-1.6192,0.3412,-4.2179,0.7249,0.9959,0.0655,
29.210084,0.1802,0.2217,-0.8937,0.7249,0.9959,0.0655,
29.240906,0.1802,0.2217,-0.8937,0.1144,0.3590,0.2014,
29.274464,0.1802,0.2217,-0.8937,0.1144,0.3590,0.2014,
29.275833,1.2624,-1.7233,0.5670,0.1144,0.3590,0.2014,
29.306110,1.2624,-1.7233,0.5670,0.7025,0.0509,-0.3201,
29.339916,1.2624,-1.7233,0.5670,0.7025,0.0509,-0.3201,
29.341331,1.5182,-0.2859,1.6729,0.7025,0.0509,-0.3201,
29.371828,1.5182,-0.2859,1.6729,0.6582,0.3977,-0.3129,
29.404363,1.5182,-0.2859,1.6729,0.6582,0.3977,-0.3129,
29.405901,0.4815,-0.4128,1.6649,0.6582,0.3977,-0.3129,
29.437658,0.4815,-0.4128,1.6649,0.5304,0.3566,-0.4783,
29.471096,0.4815,-0.4128,1.6649,0.5304,0.3566,-0.4783,
29.472644,0.2465,-0.1983,0.5194,0.5304,0.3566,-0.4783,
29.502302,0.2465,-0.1983,0.5194,0.1471,-0.1121,-0.4215,
29.535875,0.2465,-0.1983,0.5194,0.1471,-0.1121,-0.4215,
29.537456,2.4056,0.2051,-0.1144,0.1471,-0.1121,-0.4215,
29.569112,2.4056,0.2051,-0.1144,0.4067,0.6608,-0.2297,
29.602425,2.4056,0.2051,-0.1144,0.4067,0.6608,-0.2297,
29.605621,3.3670,0.3111,-0.2638,0.4067,0.6608,-0.2297,
29.634182,3.3670,0.3111,-0.2638,1.1997,1.4368,-0.0374,
29.666983,3.3670,0.3111,-0.2638,1.1997,1.4368,-0.0374,
29.668528,0.7753,1.4133,1.9450,1.1997,1.4368,-0.0374,
29.698240,0.7753,1.4133,1.9450,-0.0568,0.1555,-0.4979,
29.732350,0.7753,1.4133,1.9450,-0.0568,0.1555,-0.4979,
29.734339,-1.3346,1.4412,-0.3920,-0.0568,0.1555,-0.4979,
29.764829,-1.3346,1.4412,-0.3920,-2.1344,-0.1513,0.1394,
29.797369,-1.3346,1.4412,-0.3920,-2.1344,-0.1513,0.1394,
29.799031,-1.9917,0.3777,-1.5802,-2.1344,-0.1513,0.1394,
29.829525,-1.9917,0.3777,-1.5802,-1.7043,-0.8577,-0.3416,
29.862616,-1.9917,0.3777,-1.5802,-1.7043,-0.8577,-0.3416,
29.864069,-2.8673,0.4989,-3.2713,-1.7043,-0.8577,-0.3416,
29.895994,-2.8673,0.4989,-3.2713,-1.5744,-0.9720,0.4149,
29.929076,-2.8673,0.4989,-3.2713,-1.5744,-0.9720,0.4149,
29.930510,-1.4203,-2.0142,-2.8421,-1.5744,-0.9720,0.4149,
29.960834,-1.4203,-2.0142,-2.8421,-0.9514,-0.3054,0.0916,
29.994260,-1.4203,-2.0142,-2.8421,-0.9514,-0.3054,0.0916,
29.996076,-0.2808,-1.8583,-0.8229,-0.9514,-0.3054,0.0916,
30.026758,-0.2808,-1.8583,-0.8229,-0.0073,-0.3476,0.1319,
30.059353,-0.2808,-1.8583,-0.8229,-0.0073,-0.3476,0.1319,
30.061116,0.9360,-2.1818,2.0450,-0.0073,-0.3476,0.1319,
30.092157,0.9360,-2.1818,2.0450,1.1735,0.4612,0.2456,
30.124749,0.9360,-2.1818,2.0450,1.1735,0.4612,0.2456,
30.126704,2.6113,0.1175,3.8051,1.1735,0.4612,0.2456,
30.157212,2.6113,0.1175,3.8051,0.1416,0.2749,0.0360,
30.190529,2.6113,0.1175,3.8051,0.1416,0.2749,0.0360,
30.192345,-1.5936,-2.1803,0.9798,0.1416,0.2749,0.0360,
30.224221,-1.5936,-2.1803,0.9798,1.1425,-0.5205,-0.0049,
30.256342,-1.5936,-2.1803,0.9798,1.1425,-0.5205,-0.0049,
30.258054,-1.8166,-0.2815,-2.1340,1.1425,-0.5205,-0.0049,
30.291019,-1.8166,-0.2815,-2.1340,2.4538,1.0032,0.5055,
30.322175,-1.8166,-0.2815,-2.1340,2.4538,1.0032,0.5055,
30.323913,0.1759,6.7075,-4.5392,2.4538,1.0032,0.5055,
30.356879,0.1759,6.7075,-4.5392,0.9004,3.7448,-1.4044,
30.390475,0.1759,6.7075,-4.5392,0.9004,3.7448,-1.4044,
30.391339,-1.1401,-2.2377,0.4340,0.9004,3.7448,-1.4044,
30.418850,-1.1401,-2.2377,0.4340,0.7062,-0.0162,0.0922,
30.452712,-1.1401,-2.2377,0.4340,0.7062,-0.0162,0.0922,
30.454411,0.4434,-1.3242,-1.1990,0.7062,-0.0162,0.0922,
30.485215,0.4434,-1.3242,-1.1990,-0.1637,-1.1677,0.6697,
30.518482,0.4434,-1.3242,-1.1990,-0.1637,-1.1677,0.6697,
30.519623,1.1559,0.4282,-0.5898,-0.1637,-1.1677,0.6697,
30.550149,1.1559,0.4282,-0.5898,-0.0362,0.0405,-0.0111,
30.583073,1.1559,0.4282,-0.5898,-0.0362,0.0405,-0.0111,
30.585083,0.4900,-0.1180,2.0826,-0.0362,0.0405,-0.0111,
30.616730,0.4900,-0.1180,2.0826,0.7358,-0.6226,-0.0629,
30.649536,0.4900,-0.1180,2.0826,0.7358,-0.6226,-0.0629,
30.652268,0.8340,-0.5902,0.0436,0.7358,-0.6226,-0.0629,
30.681948,0.8340,-0.5902,0.0436,0.3286,0.0744,-0.2114,
30.714471,0.8340,-0.5902,0.0436,0.3286,0.0744,-0.2114,
30.715712,0.6513,-0.0589,1.0057,0.3286,0.0744,-0.2114,
30.745954,0.6513,-0.0589,1.0057,0.2692,-0.4045,-0.1784,
30.780615,0.6513,-0.0589,1.0057,0.2692,-0.4045,-0.1784,
30.782195,1.1981,-0.3350,0.7912,0.2692,-0.4045,-0.1784,
30.811818,1.1981,-0.3350,0.7912,0.2178,-0.3552,-0.1035,
30.844938,1.1981,-0.3350,0.7912,0.2178,-0.3552,-0.1035,
30.846380,2.6219,2.6902,-0.0587,0.2178,-0.3552,-0.1035,
30.877502,2.6219,2.6902,-0.0587,-0.7558,0.8338,0.4007,
30.911894,2.6219,2.6902,-0.0587,-0.7558,0.8338,0.4007,
30.913403,0.7692,2.9921,2.2133,-0.7558,0.8338,0.4007,
30.942918,0.7692,2.9921,2.2133,-3.2538,-1.2039,-0.0220,
30.977086,0.7692,2.9921,2.2133,-3.2538,-1.2039,-0.0220,
30.979187,-2.5945,0.2252,-1.6665,-3.2538,-1.2039,-0.0220,
31.008060,-2.5945,0.2252,-1.6665,-1.1440,-0.5983,-0.1888,
31.042393,-2.5945,0.2252,-1.6665,-1.1440,-0.5983,-0.1888,
31.043849,-3.8646,0.2198,-4.9381,-1.1440,-0.5983,-0.1888,
31.074940,-3.8646,0.2198,-4.9381,-0.9024,0.8262,0.1393,
31.107345,-3.8646,0.2198,-4.9381,-0.9024,0.8262,0.1393,
31.108967,-1.9969,-4.4723,-2.4413,-0.9024,0.8262,0.1393,
31.140657,-1.9969,-4.4723,-2.4413,-1.1055,0.2822,0.2531,
31.173944,-1.9969,-4.4723,-2.4413,-1.1055,0.2822,0.2531,
31.175970,1.5661,-3.4882,4.4787,-1.1055,0.2822,0.2531,
31.205630,1.5661,-3.4882,4.4787,0.7515,0.0904,0.9531,
31.239405,1.5661,-3.4882,4.4787,0.7515,0.0904,0.9531,
31.241428,3.1406,-2.0036,3.0514,0.7515,0.0904,0.9531,
31.272132,3.1406,-2.0036,3.0514,0.5585,0.9132,0.7323,
31.305431,3.1406,-2.0036,3.0514,0.5585,0.9132,0.7323,
31.307017,-1.2905,-2.9040,-1.5424,0.5585,0.9132,0.7323,
31.336606,-1.2905,-2.9040,-1.5424,1.4752,1.6119,0.7077,
31.369254,-1.2905,-2.9040,-1.5424,1.4752,1.6119,0.7077,
31.370956,0.0726,9.6624,-2.7214,1.4752,1.6119,0.7077,
31.402096,0.0726,9.6624,-2.7214,0.1704,-0.4916,-0.1518,
31.437204,0.0726,9.6624,-2.7214,0.1704,-0.4916,-0.1518,
31.440701,-2.0315,-0.9393,-4.2553,0.1704,-0.4916,-0.1518,
31.468581,-2.0315,-0.9393,-4.2553,0.6987,-0.3184,0.2086,
31.500444,-2.0315,-0.9393,-4.2553,0.6987,-0.3184,0.2086,
31.502178,-0.4064,-0.7455,-3.8650,0.6987,-0.3184,0.2086,
31.533041,-0.4064,-0.7455,-3.8650,0.0128,1.5036,0.0475,
31.565848,-0.4064,-0.7455,-3.8650,0.0128,1.5036,0.0475,
31.567845,-0.1096,0.3259,2.2842,0.0128,1.5036,0.0475,
31.598341,-0.1096,0.3259,2.2842,0.4768,-1.4125,-0.2376,
31.631831,-0.1096,0.3259,2.2842,0.4768,-1.4125,-0.2376,
31.632817,0.7860,-0.8276,-0.8059,0.4768,-1.4125,-0.2376,
31.663013,0.7860,-0.8276,-0.8059,0.6063,0.3024,-0.0046,
31.695957,0.7860,-0.8276,-0.8059,0.6063,0.3024,-0.0046,
31.696858,1.2079,-0.5678,0.0909,0.6063,0.3024,-0.0046,
31.728715,1.2079,-0.5678,0.0909,0.5295,0.0043,-0.1245,
31.762033,1.2079,-0.5678,0.0909,0.5295,0.0043,-0.1245,
31.765580,-0.1108,0.1077,0.0499,0.5295,0.0043,-0.1245,
31.794008,-0.1108,0.1077,0.0499,0.2107,-0.1865,-0.1475,
31.827142,-0.1108,0.1077,0.0499,0.2107,-0.1865,-0.1475,
31.828514,0.1266,-0.3782,0.6197,0.2107,-0.1865,-0.1475,
31.859889,0.1266,-0.3782,0.6197,0.0796,-0.7685,-0.2349,
31.893005,0.1266,-0.3782,0.6197,0.0796,-0.7685,-0.2349,
31.893970,0.6710,-0.7643,0.8449,0.0796,-0.7685,-0.2349,
31.926175,0.6710,-0.7643,0.8449,0.2857,-0.9610,-0.3053,
31.957879,0.6710,-0.7643,0.8449,0.2857,-0.9610,-0.3053,
31.959798,1.2137,-0.5299,1.7226,0.2857,-0.9610,-0.3053,
31.990443,1.2137,-0.5299,1.7226,0.3677,-0.4694,-0.4368,
32.024503,1.2137,-0.5299,1.7226,0.3677,-0.4694,-0.4368,
32.025857,1.6863,0.3717,1.0498,0.3677,-0.4694,-0.4368,
32.057172,1.6863,0.3717,1.0498,0.2308,1.0230,-0.3781,
32.089960,1.6863,0.3717,1.0498,0.2308,1.0230,-0.3781,
32.091769,1.6362,0.5131,-0.8256,0.2308,1.0230,-0.3781,
32.123334,1.6362,0.5131,-0.8256,0.7666,1.6322,0.1689,
32.155078,1.6362,0.5131,-0.8256,0.7666,1.6322,0.1689,
32.156778,0.8277,1.7302,0.6122,0.7666,1.6322,0.1689,
32.188871,0.8277,1.7302,0.6122,0.2770,-0.3894,-0.0816,
32.222114,0.8277,1.7302,0.6122,0.2770,-0.3894,-0.0816,
32.223931,-1.0756,2.2422,-0.0574,0.2770,-0.3894,-0.0816,
32.253744,-1.0756,2.2422,-0.0574,-1.4649,0.2268,-0.0446,
32.287827,-1.0756,2.2422,-0.0574,-1.4649,0.2268,-0.0446,
32.290160,-1.3118,-0.3407,0.3520,-1.4649,0.2268,-0.0446,
32.319295,-1.3118,-0.3407,0.3520,-2.2042,-1.0000,0.0899,
32.352584,-1.3118,-0.3407,0.3520,-2.2042,-1.0000,0.0899,
32.355001,-2.3064,0.1367,-2.6365,-2.2042,-1.0000,0.0899,
32.385941,-2.3064,0.1367,-2.6365,-1.1668,-0.0612,-0.0843,
32.418432,-2.3064,0.1367,-2.6365,-1.1668,-0.0612,-0.0843,
32.419293,-2.1829,-0.4289,-3.2776,-1.1668,-0.0612,-0.0843,
32.452821,-2.1829,-0.4289,-3.2776,-1.3770,0.2130,0.0585,
32.482028,-2.1829,-0.4289,-3.2776,-1.3770,0.2130,0.0585,
32.482640,-1.0766,-2.1017,-1.4856,-1.3770,0.2130,0.0585,
32.515148,-1.0766,-2.1017,-1.4856,-1.2613,-0.5012,-0.0843,
32.549811,-1.0766,-2.1017,-1.4856,-1.2613,-0.5012,-0.0843,
32.552136,0.6317,-3.2080,3.3221,-1.2613,-0.5012,-0.0843,
32.581931,0.6317,-3.2080,3.3221,0.3954,-0.4525,0.1863,
32.613976,0.6317,-3.2080,3.3221,0.3954,-0.4525,0.1863,
32.615618,0.7630,-3.3287,2.8769,0.3954,-0.4525,0.1863,
32.645750,0.7630,-3.3287,2.8769,1.7080,0.0376,0.3877,
32.678290,0.7630,-3.3287,2.8769,1.7080,0.0376,0.3877,
32.679861,-0.6434,4.8927,-2.8456,1.7080,0.0376,0.3877,
32.712520,-0.6434,4.8927,-2.8456,0.1669,1.3974,0.0328,
32.744320,-0.6434,4.8927,-2.8456,0.1669,1.3974,0.0328,
32.745500,-0.8144,3.9957,-3.9414,0.1669,1.3974,0.0328,
32.776661,-0.8144,3.9957,-3.9414,0.4691,0.3619,0.2581,
32.810087,-0.8144,3.9957,-3.9414,0.4691,0.3619,0.2581,
32.811761,0.6184,-0.0974,-2.9085,0.4691,0.3619,0.2581,
32.841946,0.6184,-0.0974,-2.9085,0.1115,-0.1797,0.3267,
32.875092,0.6184,-0.0974,-2.9085,0.1115,-0.1797,0.3267,
32.876798,0.1952,0.5956,0.5486,0.1115,-0.1797,0.3267,
32.907712,0.1952,0.5956,0.5486,0.1381,-0.4281,-0.2315,
32.940712,0.1952,0.5956,0.5486,0.1381,-0.4281,-0.2315,
32.942281,0.8152,-1.8228,0.6246,0.1381,-0.4281,-0.2315,
32.973072,0.8152,-1.8228,0.6246,0.2749,-0.0878,-0.0678,
33.007360,0.8152,-1.8228,0.6246,0.2749,-0.0878,-0.0678,
33.009365,0.3253,-0.4658,0.5974,0.2749,-0.0878,-0.0678,
33.039145,0.3253,-0.4658,0.5974,0.3196,0.0643,-0.2805,
33.072103,0.3253,-0.4658,0.5974,0.3196,0.0643,-0.2805,
33.073757,0.1858,-0.9722,-0.7887,0.3196,0.0643,-0.2805,
33.105049,0.1858,-0.9722,-0.7887,0.3228,0.2075,-0.1939,
33.138258,0.1858,-0.9722,-0.7887,0.3228,0.2075,-0.1939,
33.139990,0.6369,0.0969,-0.3274,0.3228,0.2075,-0.1939,
33.169975,0.6369,0.0969,-0.3274,0.1185,-0.3737,-0.1837,
33.202267,0.6369,0.0969,-0.3274,0.1185,-0.3737,-0.1837,
33.204309,0.8705,0.1219,-0.0283,0.1185,-0.3737,-0.1837,
33.236261,0.8705,0.1219,-0.0283,0.3189,-0.0281,-0.0950,
33.268257,0.8705,0.1219,-0.0283,0.3189,-0.0281,-0.0950,
33.270451,0.2852,0.3349,0.6937,0.3189,-0.0281,-0.0950,
33.300668,0.2852,0.3349,0.6937,0.3461,-0.0255,-0.0557,
33.334075,0.2852,0.3349,0.6937,0.3461,-0.0255,-0.0557,
33.335869,0.8248,1.1795,1.1518,0.3461,-0.0255,-0.0557,
33.366696,0.8248,1.1795,1.1518,-0.2556,-0.0308,0.2114,
33.399469,0.8248,1.1795,1.1518,-0.2556,-0.0308,0.2114,
33.401173,-0.3637,2.2644,0.1081,-0.2556,-0.0308,0.2114,
33.432124,-0.3637,2.2644,0.1081,-2.0713,-1.2749,0.0134,
33.465452,-0.3637,2.2644,0.1081,-2.0713,-1.2749,0.0134,
33.467515,-2.8811,0.1472,-0.2280,-2.0713,-1.2749,0.0134,
33.498242,-2.8811,0.1472,-0.2280,-1.9076,-2.1997,0.3329,
33.531880,-2.8811,0.1472,-0.2280,-1.9076,-2.1997,0.3329,
33.533320,-1.1961,-0.8312,-2.7306,-1.9076,-2.1997,0.3329,
33.563931,-1.1961,-0.8312,-2.7306,-0.5059,0.3117,0.1023,
33.595390,-1.1961,-0.8312,-2.7306,-0.5059,0.3117,0.1023,
33.596441,0.0081,-2.4334,-0.6413,-0.5059,0.3117,0.1023,
33.627575,0.0081,-2.4334,-0.6413,-0.2385,-0.5299,-0.0901,
33.662863,0.0081,-2.4334,-0.6413,-0.2385,-0.5299,-0.0901,
33.664624,0.5588,-2.3639,1.0525,-0.2385,-0.5299,-0.0901,
33.692678,0.5588,-2.3639,1.0525,0.6313,0.0666,-0.0115,
33.725890,0.5588,-2.3639,1.0525,0.6313,0.0666,-0.0115,
33.727420,0.2310,-0.1085,3.0679,0.6313,0.0666,-0.0115,
33.759374,0.2310,-0.1085,3.0679,0.1362,0.3595,0.0318,
33.793083,0.2310,-0.1085,3.0679,0.1362,0.3595,0.0318,
33.794946,-0.7707,-2.7915,1.2976,0.1362,0.3595,0.0318,
33.824195,-0.7707,-2.7915,1.2976,0.4922,-0.1275,-0.2758,
33.857745,-0.7707,-2.7915,1.2976,0.4922,-0.1275,-0.2758,
33.859789,0.0615,6.4937,-0.5375,0.4922,-0.1275,-0.2758,
33.889202,0.0615,6.4937,-0.5375,-0.3144,-0.6165,0.4913,
33.922498,0.0615,6.4937,-0.5375,-0.3144,-0.6165,0.4913,
33.924073,-0.5593,-0.3173,-3.6922,-0.3144,-0.6165,0.4913,
33.955049,-0.5593,-0.3173,-3.6922,0.3832,0.5066,-0.1081,
33.988349,-0.5593,-0.3173,-3.6922,0.3832,0.5066,-0.1081,
33.989751,0.0935,1.2784,-0.9962,0.3832,0.5066,-0.1081,
34.020592,0.0935,1.2784,-0.9962,0.1237,-0.5747,0.0686,
34.054202,0.0935,1.2784,-0.9962,0.1237,-0.5747,0.0686,
34.055884,0.0770,0.0988,-0.2650,0.1237,-0.5747,0.0686,
34.085974,0.0770,0.0988,-0.2650,0.4878,0.3360,-0.2743,
34.119433,0.0770,0.0988,-0.2650,0.4878,0.3360,-0.2743,
34.121041,0.9229,-0.9788,-0.5034,0.4878,0.3360,-0.2743,
34.152119,0.9229,-0.9788,-0.5034,0.3265,0.0214,-0.0567,
34.184426,0.9229,-0.9788,-0.5034,0.3265,0.0214,-0.0567,
34.186025,0.3830,-0.1626,-0.1690,0.3265,0.0214,-0.0567,
34.217720,0.3830,-0.1626,-0.1690,0.1187,-0.1600,-0.0130,
34.249922,0.3830,-0.1626,-0.1690,0.1187,-0.1600,-0.0130,
34.251607,-0.6998,0.1793,-0.0419,0.1187,-0.1600,-0.0130,
34.282441,-0.6998,0.1793,-0.0419,0.1324,-0.2393,-0.1055,
34.316233,-0.6998,0.1793,-0.0419,0.1324,-0.2393,-0.1055,
34.317734,-0.0137,0.0418,-0.5388,0.1324,-0.2393,-0.1055,
34.349007,-0.0137,0.0418,-0.5388,-0.0486,-0.5681,-0.1941,
34.381456,-0.0137,0.0418,-0.5388,-0.0486,-0.5681,-0.1941,
34.384114,-0.0272,0.0852,0.1791,-0.0486,-0.5681,-0.1941,
34.414020,-0.0272,0.0852,0.1791,0.0449,-0.7220,-0.2213,
34.446136,-0.0272,0.0852,0.1791,0.0449,-0.7220,-0.2213,
34.448041,0.2832,-0.4523,-0.5512,0.0449,-0.7220,-0.2213,
34.479856,0.2832,-0.4523,-0.5512,-0.0041,-0.4638,-0.1408,
34.512429,0.2832,-0.4523,-0.5512,-0.0041,-0.4638,-0.1408,
34.514625,0.2881,-0.0908,0.4505,-0.0041,-0.4638,-0.1408,
34.544672,0.2881,-0.0908,0.4505,0.4105,-0.7013,-0.1956,
34.577925,0.2881,-0.0908,0.4505,0.4105,-0.7013,-0.1956,
34.579803,0.7089,-0.2140,-0.5493,0.4105,-0.7013,-0.1956,
34.610442,0.7089,-0.2140,-0.5493,0.0964,0.0828,-0.1654,
34.644336,0.7089,-0.2140,-0.5493,0.0964,0.0828,-0.1654,
34.646807,1.4849,-0.0842,0.7835,0.0964,0.0828,-0.1654,
34.675681,1.4849,-0.0842,0.7835,0.6423,0.6012,-0.1862,
34.709671,1.4849,-0.0842,0.7835,0.6423,0.6012,-0.1862,
34.711699,0.0992,1.6336,1.3150,0.6423,0.6012,-0.1862,
34.741020,0.0992,1.6336,1.3150,0.2057,0.5078,-0.2556,
34.775914,0.0992,1.6336,1.3150,0.2057,0.5078,-0.2556,
34.778258,0.4402,3.1129,1.9443,0.2057,0.5078,-0.2556,
34.806784,0.4402,3.1129,1.9443,-1.5044,-0.4588,0.3743,
34.841094,0.4402,3.1129,1.9443,-1.5044,-0.4588,0.3743,
34.842609,-0.3871,0.2906,0.6851,-1.5044,-0.4588,0.3743,
34.872009,-0.3871,0.2906,0.6851,-1.8786,-0.4869,-0.0174,
34.905353,-0.3871,0.2906,0.6851,-1.8786,-0.4869,-0.0174,
34.907113,-2.2925,-2.4379,-2.3368,-1.8786,-0.4869,-0.0174,
34.937171,-2.2925,-2.4379,-2.3368,1.2023,0.5631,-0.8102,
34.969973,-2.2925,-2.4379,-2.3368,1.2023,0.5631,-0.8102,
34.972129,-3.4164,-4.0535,-3.2097,1.2023,0.5631,-0.8102,
35.003230,-3.4164,-4.0535,-3.2097,-0.5945,0.3922,0.0174,
35.035778,-3.4164,-4.0535,-3.2097,-0.5945,0.3922,0.0174,
35.037306,0.9119,0.1258,4.4169,-0.5945,0.3922,0.0174,
35.068423,0.9119,0.1258,4.4169,-0.9320,-0.8960,0.4039,
35.100927,0.9119,0.1258,4.4169,-0.9320,-0.8960,0.4039,
35.102453,1.6559,-0.5422,2.6935,-0.9320,-0.8960,0.4039,
35.133496,1.6559,-0.5422,2.6935,0.2314,1.2526,-0.0194,
35.166443,1.6559,-0.5422,2.6935,0.2314,1.2526,-0.0194,
35.168027,-1.6505,-3.7109,-0.7630,0.2314,1.2526,-0.0194,
35.199307,-1.6505,-3.7109,-0.7630,0.7347,0.7358,0.4519,
35.232526,-1.6505,-3.7109,-0.7630,0.7347,0.7358,0.4519,
35.234289,0.1242,4.8642,-2.6545,0.7347,0.7358,0.4519,
35.265278,0.1242,4.8642,-2.6545,-0.3364,0.1170,0.1820,
35.298830,0.1242,4.8642,-2.6545,-0.3364,0.1170,0.1820,
35.300866,-1.1962,0.2160,-1.7541,-0.3364,0.1170,0.1820,
35.331690,-1.1962,0.2160,-1.7541,0.2702,-0.7485,0.8041,
35.365044,-1.1962,0.2160,-1.7541,0.2702,-0.7485,0.8041,
35.367250,1.4197,-0.1589,-0.5577,0.2702,-0.7485,0.8041,
35.396474,1.4197,-0.1589,-0.5577,0.2208,-0.4093,-0.0063,
35.428782,1.4197,-0.1589,-0.5577,0.2208,-0.4093,-0.0063,
35.430461,-0.1913,-0.2226,0.4386,0.2208,-0.4093,-0.0063,
35.461494,-0.1913,-0.2226,0.4386,0.8752,0.4307,-0.2150,
35.495417,-0.1913,-0.2226,0.4386,0.8752,0.4307,-0.2150,
35.497022,0.3057,-0.0367,-0.3949,0.8752,0.4307,-0.2150,
35.529597,0.3057,-0.0367,-0.3949,0.5027,-0.1155,-0.2984,
35.560573,0.3057,-0.0367,-0.3949,0.5027,-0.1155,-0.2984,
35.562474,-0.2735,-0.4564,-0.1553,0.5027,-0.1155,-0.2984,
35.591916,-0.2735,-0.4564,-0.1553,0.2509,-0.3665,-0.2129,
35.625189,-0.2735,-0.4564,-0.1553,0.2509,-0.3665,-0.2129,
35.626526,0.7476,-0.5089,-0.0596,0.2509,-0.3665,-0.2129,
35.657918,0.7476,-0.5089,-0.0596,0.1410,-0.4421,-0.1387,
35.690188,0.7476,-0.5089,-0.0596,0.1410,-0.4421,-0.1387,
35.692131,0.5682,-0.3006,0.1054,0.1410,-0.4421,-0.1387,
35.723753,0.5682,-0.3006,0.1054,0.1272,-0.4606,-0.0927,
35.756992,0.5682,-0.3006,0.1054,0.1272,-0.4606,-0.0927,
35.759353,0.6422,0.1645,0.2667,0.1272,-0.4606,-0.0927,
35.789257,0.6422,0.1645,0.2667,0.1652,-0.7236,-0.2462,
35.821649,0.6422,0.1645,0.2667,0.1652,-0.7236,-0.2462,
35.823456,0.9006,-0.3408,0.6565,0.1652,-0.7236,-0.2462,
35.855119,0.9006,-0.3408,0.6565,0.2176,-0.5818,-0.3341,
35.888476,0.9006,-0.3408,0.6565,0.2176,-0.5818,-0.3341,
35.890204,0.5548,-0.3064,0.7561,0.2176,-0.5818,-0.3341,
35.919519,0.5548,-0.3064,0.7561,0.6002,0.2120,-0.3233,
35.953216,0.5548,-0.3064,0.7561,0.6002,0.2120,-0.3233,
35.954716,1.5848,-0.0874,1.4925,0.6002,0.2120,-0.3233,
35.985603,1.5848,-0.0874,1.4925,0.4893,-0.0550,0.1057,
36.019193,1.5848,-0.0874,1.4925,0.4893,-0.0550,0.1057,
36.020962,2.5447,4.4536,1.0631,0.4893,-0.0550,0.1057,
36.050370,2.5447,4.4536,1.0631,-1.6376,0.2053,0.4542,
36.083219,2.5447,4.4536,1.0631,-1.6376,0.2053,0.4542,
36.084652,-1.4325,1.0829,0.2971,-1.6376,0.2053,0.4542,
36.115764,-1.4325,1.0829,0.2971,-2.0653,0.2204,0.0919,
36.150840,-1.4325,1.0829,0.2971,-2.0653,0.2204,0.0919,
36.153162,-2.1194,-0.7740,-2.2542,-2.0653,0.2204,0.0919,
36.181331,-2.1194,-0.7740,-2.2542,-0.0299,-0.5266,0.0712,
36.216034,-2.1194,-0.7740,-2.2542,-0.0299,-0.5266,0.0712,
36.217991,-2.1760,-3.6378,-3.6763,-0.0299,-0.5266,0.0712,
36.247854,-2.1760,-3.6378,-3.6763,0.4650,0.7851,-0.3977,
36.280961,-2.1760,-3.6378,-3.6763,0.4650,0.7851,-0.3977,
36.282388,-1.6181,-3.0218,-1.4468,0.4650,0.7851,-0.3977,
36.314199,-1.6181,-3.0218,-1.4468,-1.0040,1.7643,0.4129,
36.345923,-1.6181,-3.0218,-1.4468,-1.0040,1.7643,0.4129,
36.348260,0.1196,-0.5591,5.9466,-1.0040,1.7643,0.4129,
36.378449,0.1196,-0.5591,5.9466,-0.2491,-1.6496,0.2640,
36.411150,0.1196,-0.5591,5.9466,-0.2491,-1.6496,0.2640,
36.412204,-0.2272,1.8460,-3.8178,-0.2491,-1.6496,0.2640,
36.444161,-0.2272,1.8460,-3.8178,0.9450,1.9028,0.5374,
36.476830,-0.2272,1.8460,-3.8178,0.9450,1.9028,0.5374,
36.478473,0.0340,2.5572,-3.9679,0.9450,1.9028,0.5374,
36.510251,0.0340,2.5572,-3.9679,-0.1486,0.6310,0.1907,
36.542011,0.0340,2.5572,-3.9679,-0.1486,0.6310,0.1907,
36.543122,-1.0104,1.4497,0.1720,-0.1486,0.6310,0.1907,
36.574360,-1.0104,1.4497,0.1720,0.2804,-0.0058,0.3241,
36.608155,-1.0104,1.4497,0.1720,0.2804,-0.0058,0.3241,
36.609839,-0.0370,-0.4781,1.7059,0.2804,-0.0058,0.3241,
36.640817,-0.0370,-0.4781,1.7059,1.1887,0.8787,-0.1414,
36.672215,-0.0370,-0.4781,1.7059,1.1887,0.8787,-0.1414,
36.674063,0.4886,-0.2843,-0.3431,1.1887,0.8787,-0.1414,
36.705723,0.4886,-0.2843,-0.3431,0.4667,0.4377,-0.1269,
36.737980,0.4886,-0.2843,-0.3431,0.4667,0.4377,-0.1269,
36.739744,-0.4811,-0.1237,0.3621,0.4667,0.4377,-0.1269,
36.771023,-0.4811,-0.1237,0.3621,0.3482,-0.1730,-0.0733,
36.803482,-0.4811,-0.1237,0.3621,0.3482,-0.1730,-0.0733,
36.804969,0.0946,-0.1789,-0.3813,0.3482,-0.1730,-0.0733,
36.835400,0.0946,-0.1789,-0.3813,-0.0524,-0.6327,-0.0295,
36.869013,0.0946,-0.1789,-0.3813,-0.0524,-0.6327,-0.0295,
36.871144,0.3420,0.2293,-0.8761,-0.0524,-0.6327,-0.0295,
36.901588,0.3420,0.2293,-0.8761,-0.0565,-1.0304,-0.1161,
36.936803,0.3420,0.2293,-0.8761,-0.0565,-1.0304,-0.1161,
36.939843,0.2812,0.1903,-0.4323,-0.0565,-1.0304,-0.1161,
36.968408,0.2812,0.1903,-0.4323,-0.5455,-1.4187,-0.1684,
37.001167,0.2812,0.1903,-0.4323,-0.5455,-1.4187,-0.1684,
37.002158,0.5048,-0.8087,-0.5312,-0.5455,-1.4187,-0.1684,
37.033007,0.5048,-0.8087,-0.5312,0.0522,-0.5089,-0.2720,
37.065739,0.5048,-0.8087,-0.5312,0.0522,-0.5089,-0.2720,
37.067191,1.2789,-0.5365,0.0489,0.0522,-0.5089,-0.2720,
37.098695,1.2789,-0.5365,0.0489,0.3421,-0.2569,-0.2030,
37.131630,1.2789,-0.5365,0.0489,0.3421,-0.2569,-0.2030,
37.133468,0.8203,-0.1283,0.4618,0.3421,-0.2569,-0.2030,
37.165686,0.8203,-0.1283,0.4618,0.6054,0.0316,-0.2666,
37.198096,0.8203,-0.1283,0.4618,0.6054,0.0316,-0.2666,
37.199941,0.6410,0.5515,0.4518,0.6054,0.0316,-0.2666,
37.228731,0.6410,0.5515,0.4518,0.4531,0.2813,-0.2075,
37.262355,0.6410,0.5515,0.4518,0.4531,0.2813,-0.2075,
37.264128,0.9809,1.5532,0.4528,0.4531,0.2813,-0.2075,
37.295033,0.9809,1.5532,0.4528,0.1057,0.2425,-0.1403,
37.327821,0.9809,1.5532,0.4528,0.1057,0.2425,-0.1403,
37.329789,-1.5180,2.8844,2.0938,0.1057,0.2425,-0.1403,
37.360918,-1.5180,2.8844,2.0938,-1.1831,-1.0757,-0.1894,
37.393822,-1.5180,2.8844,2.0938,-1.1831,-1.0757,-0.1894,
37.395645,-0.6410,-0.7585,-0.8720,-1.1831,-1.0757,-0.1894,
37.426961,-0.6410,-0.7585,-0.8720,-0.8450,0.3447,-0.0545,
37.459035,-0.6410,-0.7585,-0.8720,-0.8450,0.3447,-0.0545,
37.461139,0.2407,-2.0577,-2.1195,-0.8450,0.3447,-0.0545,
37.491605,0.2407,-2.0577,-2.1195,0.5623,0.8044,-0.2932,
37.524335,0.2407,-2.0577,-2.1195,0.5623,0.8044,-0.2932,
37.526265,-1.0604,-2.1014,-1.5353,0.5623,0.8044,-0.2932,
37.557969,-1.0604,-2.1014,-1.5353,0.2159,-0.6883,-0.0651,
37.589203,-1.0604,-2.1014,-1.5353,0.2159,-0.6883,-0.0651,
37.591083,-1.7693,-1.0733,0.1777,0.2159,-0.6883,-0.0651,
37.623613,-1.7693,-1.0733,0.1777,-2.3405,-1.9813,1.0275,
37.655054,-1.7693,-1.0733,0.1777,-2.3405,-1.9813,1.0275,
37.656645,0.0860,-2.7074,-0.9743,-2.3405,-1.9813,1.0275,
37.687920,0.0860,-2.7074,-0.9743,0.4342,1.6206,1.6383,
37.723581,0.0860,-2.7074,-0.9743,0.4342,1.6206,1.6383,
37.725382,2.4985,3.2976,0.4349,0.4342,1.6206,1.6383,
37.754887,2.4985,3.2976,0.4349,-0.7188,0.7019,0.6967,
37.787039,2.4985,3.2976,0.4349,-0.7188,0.7019,0.6967,
37.788908,-0.9914,3.0114,-0.9976,-0.7188,0.7019,0.6967,
37.819038,-0.9914,3.0114,-0.9976,1.0965,1.3957,-0.2508,
37.851786,-0.9914,3.0114,-0.9976,1.0965,1.3957,-0.2508,
37.853499,0.2553,0.1061,-1.6436,1.0965,1.3957,-0.2508,
37.884471,0.2553,0.1061,-1.6436,-0.4059,-1.0994,0.3697,
37.916902,0.2553,0.1061,-1.6436,-0.4059,-1.0994,0.3697,
37.918447,0.8484,-0.0839,2.4396,-0.4059,-1.0994,0.3697,
37.949947,0.8484,-0.0839,2.4396,0.6956,0.4389,-0.2543,
37.983289,0.8484,-0.0839,2.4396,0.6956,0.4389,-0.2543,
37.984408,0.4685,-0.9289,1.1959,0.6956,0.4389,-0.2543,
38.018492,0.4685,-0.9289,1.1959,0.8995,0.8549,-0.4623,
38.048524,0.4685,-0.9289,1.1959,0.8995,0.8549,-0.4623,
38.049718,-0.1403,-0.2630,-0.6139,0.8995,0.8549,-0.4623,
38.082250,-0.1403,-0.2630,-0.6139,0.3415,0.0206,-0.3059,
38.115766,-0.1403,-0.2630,-0.6139,0.3415,0.0206,-0.3059,
38.117407,0.1749,-0.6676,0.2457,0.3415,0.0206,-0.3059,
38.146046,0.1749,-0.6676,0.2457,0.2796,-1.1266,-0.4323,
38.178739,0.1749,-0.6676,0.2457,0.2796,-1.1266,-0.4323,
38.180531,1.7143,0.5582,-0.2701,0.2796,-1.1266,-0.4323,
38.211715,1.7143,0.5582,-0.2701,0.6961,-0.1321,-0.4983,
38.244006,1.7143,0.5582,-0.2701,0.6961,-0.1321,-0.4983,
38.245065,0.7562,1.0353,1.8521,0.6961,-0.1321,-0.4983,
38.276235,0.7562,1.0353,1.8521,0.9401,0.7388,-0.4876,
38.309411,0.7562,1.0353,1.8521,0.9401,0.7388,-0.4876,
38.311434,2.8104,-0.0242,0.8704,0.9401,0.7388,-0.4876,
38.341682,2.8104,-0.0242,0.8704,0.8045,1.1906,-0.0765,
38.375189,2.8104,-0.0242,0.8704,0.8045,1.1906,-0.0765,
38.376767,0.4290,0.6399,-0.0171,0.8045,1.1906,-0.0765,
38.408466,0.4290,0.6399,-0.0171,-0.9070,0.8376,-0.2109,
38.440471,0.4290,0.6399,-0.0171,-0.9070,0.8376,-0.2109,
38.441478,-1.0976,-0.5874,-1.4262,-0.9070,0.8376,-0.2109,
38.473046,-1.0976,-0.5874,-1.4262,-1.6729,-0.4467,0.5799,
38.507194,-1.0976,-0.5874,-1.4262,-1.6729,-0.4467,0.5799,
38.508298,-1.2016,1.2744,-1.9084,-1.6729,-0.4467,0.5799,
38.538917,-1.2016,1.2744,-1.9084,-1.3389,-1.7532,0.3322,
38.572164,-1.2016,1.2744,-1.9084,-1.3389,-1.7532,0.3322,
38.573315,-2.2968,-0.7563,-1.2624,-1.3389,-1.7532,0.3322,
38.604636,-2.2968,-0.7563,-1.2624,-1.2022,-0.4300,-0.0898,
38.637214,-2.2968,-0.7563,-1.2624,-1.2022,-0.4300,-0.0898,
38.638983,-0.0059,-3.3430,2.1293,-1.2022,-0.4300,-0.0898,
38.671735,-0.0059,-3.3430,2.1293,0.8705,-0.1449,0.3674,
38.702899,-0.0059,-3.3430,2.1293,0.8705,-0.1449,0.3674,
38.704310,2.2176,-2.9505,1.9080,0.8705,-0.1449,0.3674,
38.735450,2.2176,-2.9505,1.9080,-0.2728,-0.2421,0.9812,
38.768589,2.2176,-2.9505,1.9080,-0.2728,-0.2421,0.9812,
38.770042,-0.1303,-0.8472,1.4551,-0.2728,-0.2421,0.9812,
38.801515,-0.1303,-0.8472,1.4551,0.4096,-0.0602,0.2616,
38.833645,-0.1303,-0.8472,1.4551,0.4096,-0.0602,0.2616,
38.835383,-0.3641,4.2979,-3.6199,0.4096,-0.0602,0.2616,
38.866261,-0.3641,4.2979,-3.6199,0.8922,1.6591,-0.5515,
38.899707,-0.3641,4.2979,-3.6199,0.8922,1.6591,-0.5515,
38.900786,-1.8889,1.3520,-2.7594,0.8922,1.6591,-0.5515,
38.931499,-1.8889,1.3520,-2.7594,1.0763,-0.3126,-0.3235,
38.964134,-1.8889,1.3520,-2.7594,1.0763,-0.3126,-0.3235,
38.965170,-1.3511,0.6469,-2.8250,1.0763,-0.3126,-0.3235,
38.997727,-1.3511,0.6469,-2.8250,0.1584,0.5667,-0.1530,
39.030116,-1.3511,0.6469,-2.8250,0.1584,0.5667,-0.1530,
39.031843,-0.1128,-0.4959,1.0339,0.1584,0.5667,-0.1530,
39.062131,-0.1128,-0.4959,1.0339,0.6365,0.2450,-0.2775,
39.094812,-0.1128,-0.4959,1.0339,0.6365,0.2450,-0.2775,
39.096312,1.1936,-0.4023,-0.1492,0.6365,0.2450,-0.2775,
39.127610,1.1936,-0.4023,-0.1492,0.7427,1.2498,-0.2495,
39.160514,1.1936,-0.4023,-0.1492,0.7427,1.2498,-0.2495,
39.162153,0.7651,-0.4284,1.2673,0.7427,1.2498,-0.2495,
39.194411,0.7651,-0.4284,1.2673,0.6037,0.7787,-0.1295,
39.226878,0.7651,-0.4284,1.2673,0.6037,0.7787,-0.1295,
39.230797,0.5906,-0.2115,1.9921,0.6037,0.7787,-0.1295,
39.259662,0.5906,-0.2115,1.9921,0.4827,0.2486,0.0147,
39.291767,0.5906,-0.2115,1.9921,0.4827,0.2486,0.0147,
39.292929,1.5567,-0.5169,0.7553,0.4827,0.2486,0.0147,
39.324311,1.5567,-0.5169,0.7553,0.4401,1.2949,0.0290,
39.357625,1.5567,-0.5169,0.7553,0.4401,1.2949,0.0290,
39.359755,1.5304,0.2480,0.0379,0.4401,1.2949,0.0290,
39.391680,1.5304,0.2480,0.0379,1.0368,1.9656,-0.0319,
39.423433,1.5304,0.2480,0.0379,1.0368,1.9656,-0.0319,
39.425724,1.4082,2.9284,0.1165,1.0368,1.9656,-0.0319,
39.455635,1.4082,2.9284,0.1165,-1.1215,0.4009,-0.0588,
39.488910,1.4082,2.9284,0.1165,-1.1215,0.4009,-0.0588,
39.490919,-0.5636,0.7082,-0.4690,-1.1215,0.4009,-0.0588,
39.522268,-0.5636,0.7082,-0.4690,-2.6866,-1.4594,0.1150,
39.555381,-0.5636,0.7082,-0.4690,-2.6866,-1.4594,0.1150,
39.557178,-2.1613,-1.3861,-2.2789,-2.6866,-1.4594,0.1150,
39.587092,-2.1613,-1.3861,-2.2789,-0.5499,-0.5143,0.4867,
39.620259,-2.1613,-1.3861,-2.2789,-0.5499,-0.5143,0.4867,
39.621851,-1.5499,-1.9512,-2.7535,-0.5499,-0.5143,0.4867,
39.652045,-1.5499,-1.9512,-2.7535,-0.1561,0.7204,0.3048,
39.684842,-1.5499,-1.9512,-2.7535,-0.1561,0.7204,0.3048,
39.686741,0.4884,-1.5551,1.6066,-0.1561,0.7204,0.3048,
39.718409,0.4884,-1.5551,1.6066,0.3331,0.4620,0.2301,
39.751713,0.4884,-1.5551,1.6066,0.3331,0.4620,0.2301,
39.753389,0.8121,-1.7050,1.6133,0.3331,0.4620,0.2301,
39.783135,0.8121,-1.7050,1.6133,1.4054,1.7431,0.0330,
39.815666,0.8121,-1.7050,1.6133,1.4054,1.7431,0.0330,
39.817484,-0.5839,0.9300,-0.8322,1.4054,1.7431,0.0330,
39.849759,-0.5839,0.9300,-0.8322,0.7341,0.6892,0.3679,
39.882479,-0.5839,0.9300,-0.8322,0.7341,0.6892,0.3679,
39.884498,-1.1624,1.9748,-1.7919,0.7341,0.6892,0.3679,
39.914469,-1.1624,1.9748,-1.7919,0.0768,-0.9641,-0.4609,
39.948465,-1.1624,1.9748,-1.7919,0.0768,-0.9641,-0.4609,
39.950385,-2.3581,0.2833,-3.1058,0.0768,-0.9641,-0.4609,
39.979765,-2.3581,0.2833,-3.1058,0.2511,0.3890,0.3146,
40.012676,-2.3581,0.2833,-3.1058,0.2511,0.3890,0.3146,
40.014136,1.2218,0.1657,0.6199,0.2511,0.3890,0.3146,
40.045516,1.2218,0.1657,0.6199,-0.0290,0.0608,-0.2176,
40.078368,1.2218,0.1657,0.6199,-0.0290,0.0608,-0.2176,
40.079231,0.9413,-1.1476,0.6819,-0.0290,0.0608,-0.2176,
40.109815,0.9413,-1.1476,0.6819,0.8584,0.9781,0.0460,
40.141949,0.9413,-1.1476,0.6819,0.8584,0.9781,0.0460,
40.142616,1.7110,-0.8911,0.3550,0.8584,0.9781,0.0460,
40.175213,1.7110,-0.8911,0.3550,0.5843,0.7382,-0.1477,
40.207618,1.7110,-0.8911,0.3550,0.5843,0.7382,-0.1477,
40.208372,0.2199,-0.0697,0.4222,0.5843,0.7382,-0.1477,
40.241082,0.2199,-0.0697,0.4222,0.4588,0.7937,-0.1746,
40.275469,0.2199,-0.0697,0.4222,0.4588,0.7937,-0.1746,
40.277243,0.8863,-0.2072,0.7287,0.4588,0.7937,-0.1746,
40.306499,0.8863,-0.2072,0.7287,0.7233,0.5189,-0.1648,
40.339795,0.8863,-0.2072,0.7287,0.7233,0.5189,-0.1648,
40.341195,0.9045,0.0708,1.0392,0.7233,0.5189,-0.1648,
40.373006,0.9045,0.0708,1.0392,0.6950,0.2033,-0.1790,
40.404881,0.9045,0.0708,1.0392,0.6950,0.2033,-0.1790,
40.405925,2.6169,0.7647,1.3852,0.6950,0.2033,-0.1790,
40.438528,2.6169,0.7647,1.3852,-0.2303,0.5583,0.3074,
40.471296,2.6169,0.7647,1.3852,-0.2303,0.5583,0.3074,
40.472714,1.9626,2.2355,0.5519,-0.2303,0.5583,0.3074,
40.503810,1.9626,2.2355,0.5519,-1.4082,1.7958,0.1341,
40.537389,1.9626,2.2355,0.5519,-1.4082,1.7958,0.1341,
40.539007,-1.6155,1.0797,-2.1582,-1.4082,1.7958,0.1341,
40.568706,-1.6155,1.0797,-2.1582,-0.6617,1.3778,-0.1310,
40.601993,-1.6155,1.0797,-2.1582,-0.6617,1.3778,-0.1310,
40.603630,-2.3291,-1.3956,-3.5680,-0.6617,1.3778,-0.1310,
40.634768,-2.3291,-1.3956,-3.5680,-0.4681,-0.1014,0.2465,
40.666757,-2.3291,-1.3956,-3.5680,-0.4681,-0.1014,0.2465,
40.668581,-1.7238,-3.6250,-2.4746,-0.4681,-0.1014,0.2465,
40.699826,-1.7238,-3.6250,-2.4746,-0.3824,0.6971,-0.2440,
40.733555,-1.7238,-3.6250,-2.4746,-0.3824,0.6971,-0.2440,
40.735692,-0.9276,-0.2951,1.4052,-0.3824,0.6971,-0.2440,
40.765352,-0.9276,-0.2951,1.4052,-0.3245,0.1095,0.2928,
40.797288,-0.9276,-0.2951,1.4052,-0.3245,0.1095,0.2928,
40.798308,-1.0811,-1.9479,4.7559,-0.3245,0.1095,0.2928,
40.830482,-1.0811,-1.9479,4.7559,0.9763,-1.6072,0.7741,
40.865147,-1.0811,-1.9479,4.7559,0.9763,-1.6072,0.7741,
40.867137,1.1921,4.6189,-2.7320,0.9763,-1.6072,0.7741,
40.896856,1.1921,4.6189,-2.7320,-0.0192,0.8741,0.7741,
40.928407,1.1921,4.6189,-2.7320,-0.0192,0.8741,0.7741,
40.930259,-0.1479,0.2156,-1.9557,-0.0192,0.8741,0.7741,
40.961386,-0.1479,0.2156,-1.9557,1.2546,1.0322,-0.4105,
40.994353,-0.1479,0.2156,-1.9557,1.2546,1.0322,-0.4105,
40.995855,-0.6623,0.1729,-3.1598,1.2546,1.0322,-0.4105,
41.028222,-0.6623,0.1729,-3.1598,0.3398,0.4846,-0.0451,
41.059919,-0.6623,0.1729,-3.1598,0.3398,0.4846,-0.0451,
41.061873,0.0700,0.1272,-1.2847,0.3398,0.4846,-0.0451,
41.092435,0.0700,0.1272,-1.2847,0.0000,-0.1814,0.0347,
41.125648,0.0700,0.1272,-1.2847,0.0000,-0.1814,0.0347,
41.127398,0.6965,-0.8510,-0.1909,0.0000,-0.1814,0.0347,
41.158214,0.6965,-0.8510,-0.1909,0.4490,-0.0791,-0.0962,
41.190943,0.6965,-0.8510,-0.1909,0.4490,-0.0791,-0.0962,
41.193247,0.8212,-0.1918,-0.4475,0.4490,-0.0791,-0.0962,
41.223578,0.8212,-0.1918,-0.4475,0.1959,0.0296,-0.0996,
41.256935,0.8212,-0.1918,-0.4475,0.1959,0.0296,-0.0996,
41.258728,1.0855,-0.0988,0.6547,0.1959,0.0296,-0.0996,
41.288623,1.0855,-0.0988,0.6547,0.2714,0.0472,-0.1090,
41.321852,1.0855,-0.0988,0.6547,0.2714,0.0472,-0.1090,
41.323815,0.8158,-0.0219,0.2329,0.2714,0.0472,-0.1090,
41.354818,0.8158,-0.0219,0.2329,0.4039,0.3935,-0.3172,
41.388445,0.8158,-0.0219,0.2329,0.4039,0.3935,-0.3172,
41.389355,0.2069,-0.9332,0.4261,0.4039,0.3935,-0.3172,
41.421427,0.2069,-0.9332,0.4261,0.2931,-0.1923,-0.2001,
41.453452,0.2069,-0.9332,0.4261,0.2931,-0.1923,-0.2001,
41.455244,1.9788,0.4776,1.6790,0.2931,-0.1923,-0.2001,
41.485605,1.9788,0.4776,1.6790,0.2094,-0.7434,-0.0060,
41.519300,1.9788,0.4776,1.6790,0.2094,-0.7434,-0.0060,
41.520997,1.7795,1.4793,0.6402,0.2094,-0.7434,-0.0060,
41.552141,1.7795,1.4793,0.6402,0.4523,0.7175,-0.0593,
41.584390,1.7795,1.4793,0.6402,0.4523,0.7175,-0.0593,
41.585837,1.7807,2.3803,2.3928,0.4523,0.7175,-0.0593,
41.617585,1.7807,2.3803,2.3928,-0.9178,0.0188,0.2085,
41.650804,1.7807,2.3803,2.3928,-0.9178,0.0188,0.2085,
41.652809,-1.2840,-0.4429,-0.6697,-0.9178,0.0188,0.2085,
41.683634,-1.2840,-0.4429,-0.6697,-0.8236,-0.0948,-0.4171,
41.715103,-1.2840,-0.4429,-0.6697,-0.8236,-0.0948,-0.4171,
41.716358,-4.0979,-1.4605,-2.8082,-0.8236,-0.0948,-0.4171,
41.750063,-4.0979,-1.4605,-2.8082,-0.4163,-0.4421,-0.2906,
41.780939,-4.0979,-1.4605,-2.8082,-0.4163,-0.4421,-0.2906,
41.782146,-2.5980,-4.0130,-2.4363,-0.4163,-0.4421,-0.2906,
41.812638,-2.5980,-4.0130,-2.4363,-0.7184,0.2830,0.5289,
41.845903,-2.5980,-4.0130,-2.4363,-0.7184,0.2830,0.5289,
41.847652,3.2162,-1.0733,8.0391,-0.7184,0.2830,0.5289,
41.877825,3.2162,-1.0733,8.0391,-1.0686,-2.2126,1.0919,
41.910915,3.2162,-1.0733,8.0391,-1.0686,-2.2126,1.0919,
41.912129,2.4283,-0.9234,0.2967,-1.0686,-2.2126,1.0919,
41.944275,2.4283,-0.9234,0.2967,1.7504,2.3578,-0.3236,
41.977768,2.4283,-0.9234,0.2967,1.7504,2.3578,-0.3236,
41.979645,-1.1139,2.7574,-2.7926,1.7504,2.3578,-0.3236,
42.009672,-1.1139,2.7574,-2.7926,1.0421,0.9902,-0.4501,
42.041950,-1.1139,2.7574,-2.7926,1.0421,0.9902,-0.4501,
42.043942,-2.7578,1.0778,-3.8133,1.0421,0.9902,-0.4501,
42.075598,-2.7578,1.0778,-3.8133,-0.0133,-1.0185,-0.0290,
42.108716,-2.7578,1.0778,-3.8133,-0.0133,-1.0185,-0.0290,
42.110508,-1.0729,0.9736,-1.9234,-0.0133,-1.0185,-0.0290,
42.139417,-1.0729,0.9736,-1.9234,-0.0932,-0.4384,0.2291,
42.173524,-1.0729,0.9736,-1.9234,-0.0932,-0.4384,0.2291,
42.176301,1.8841,-0.4022,-0.4358,-0.0932,-0.4384,0.2291,
42.205891,1.8841,-0.4022,-0.4358,0.4417,0.1823,-0.2847,
42.238340,1.8841,-0.4022,-0.4358,0.4417,0.1823,-0.2847,
42.239902,1.5831,-0.9169,0.5688,0.4417,0.1823,-0.2847,
42.271353,1.5831,-0.9169,0.5688,1.0151,0.7834,-0.3299,
42.305342,1.5831,-0.9169,0.5688,1.0151,0.7834,-0.3299,
42.306391,-0.0614,-0.2683,0.2736,1.0151,0.7834,-0.3299,
42.336834,-0.0614,-0.2683,0.2736,0.6361,0.4249,-0.2888,
42.369395,-0.0614,-0.2683,0.2736,0.6361,0.4249,-0.2888,
42.370918,0.1560,0.0302,0.9836,0.6361,0.4249,-0.2888,
42.402772,0.1560,0.0302,0.9836,0.0078,-0.8532,-0.0530,
42.435185,0.1560,0.0302,0.9836,0.0078,-0.8532,-0.0530,
42.436216,1.6908,-0.0558,1.4702,0.0078,-0.8532,-0.0530,
42.468174,1.6908,-0.0558,1.4702,0.3688,-0.6636,-0.0157,
42.500407,1.6908,-0.0558,1.4702,0.3688,-0.6636,-0.0157,
42.502057,2.4732,1.4257,0.3642,0.3688,-0.6636,-0.0157,
42.532567,2.4732,1.4257,0.3642,0.0548,0.8700,0.1587,
42.566102,2.4732,1.4257,0.3642,0.0548,0.8700,0.1587,
42.567959,-0.3579,2.9281,1.7537,0.0548,0.8700,0.1587,
42.599671,-0.3579,2.9281,1.7537,-1.5676,0.3920,-0.2098,
42.631304,-0.3579,2.9281,1.7537,-1.5676,0.3920,-0.2098,
42.632294,-1.6208,-0.5666,-0.3790,-1.5676,0.3920,-0.2098,
42.663859,-1.6208,-0.5666,-0.3790,-1.1952,-1.2547,0.2407,
42.697754,-1.6208,-0.5666,-0.3790,-1.1952,-1.2547,0.2407,
42.699329,-1.4216,-1.6366,-3.0983,-1.1952,-1.2547,0.2407,
42.729804,-1.4216,-1.6366,-3.0983,-0.1017,-0.5385,-0.0400,
42.762465,-1.4216,-1.6366,-3.0983,-0.1017,-0.5385,-0.0400,
42.763776,-1.4692,-2.8816,-1.5587,-0.1017,-0.5385,-0.0400,
42.794896,-1.4692,-2.8816,-1.5587,-0.8082,0.5753,0.2439,
42.829224,-1.4692,-2.8816,-1.5587,-0.8082,0.5753,0.2439,
42.831039,0.4493,-1.3920,2.0576,-0.8082,0.5753,0.2439,
42.861003,0.4493,-1.3920,2.0576,-0.3997,0.0261,0.1104,
42.893060,0.4493,-1.3920,2.0576,-0.3997,0.0261,0.1104,
42.894050,-0.5596,-0.6590,2.9657,-0.3997,0.0261,0.1104,
42.926231,-0.5596,-0.6590,2.9657,-0.3096,-0.9725,0.8238,
42.958956,-0.5596,-0.6590,2.9657,-0.3096,-0.9725,0.8238,
42.960012,0.8443,3.0866,-0.3486,-0.3096,-0.9725,0.8238,
42.991335,0.8443,3.0866,-0.3486,0.1765,-0.1164,-0.5728,
43.024454,0.8443,3.0866,-0.3486,0.1765,-0.1164,-0.5728,
43.026139,-2.1446,2.7729,-2.8722,0.1765,-0.1164,-0.5728,
43.056867,-2.1446,2.7729,-2.8722,0.7784,0.7697,-0.5307,
43.090270,-2.1446,2.7729,-2.8722,0.7784,0.7697,-0.5307,
43.091965,-0.7618,0.1325,-1.2944,0.7784,0.7697,-0.5307,
43.122819,-0.7618,0.1325,-1.2944,0.1883,-1.1096,0.6600,
43.156027,-0.7618,0.1325,-1.2944,0.1883,-1.1096,0.6600,
43.157940,2.5097,-0.6447,1.0906,0.1883,-1.1096,0.6600,
43.187877,2.5097,-0.6447,1.0906,0.7504,0.4096,-0.2958,
43.223092,2.5097,-0.6447,1.0906,0.7504,0.4096,-0.2958,
43.230999,0.6299,-0.6669,0.1615,0.7504,0.4096,-0.2958,
43.252449,0.6299,-0.6669,0.1615,1.1628,1.6325,-0.4227,
43.285148,0.6299,-0.6669,0.1615,1.1628,1.6325,-0.4227,
43.286957,-0.3563,0.0680,-0.4226,1.1628,1.6325,-0.4227,
43.318447,-0.3563,0.0680,-0.4226,0.4047,0.2863,-0.1675,
43.350798,-0.3563,0.0680,-0.4226,0.4047,0.2863,-0.1675,
43.351448,0.4246,-0.3222,-0.4417,0.4047,0.2863,-0.1675,
43.384864,0.4246,-0.3222,-0.4417,0.1742,-0.1941,-0.0402,
43.417178,0.4246,-0.3222,-0.4417,0.1742,-0.1941,-0.0402,
43.418936,0.2600,0.0108,0.1314,0.1742,-0.1941,-0.0402,
43.449975,0.2600,0.0108,0.1314,0.2413,-0.1420,-0.1022,
43.482422,0.2600,0.0108,0.1314,0.2413,-0.1420,-0.1022,
43.484150,-0.0062,-0.2851,-0.0862,0.2413,-0.1420,-0.1022,
43.515723,-0.0062,-0.2851,-0.0862,0.1504,-0.2388,-0.1738,
43.548194,-0.0062,-0.2851,-0.0862,0.1504,-0.2388,-0.1738,
43.550193,0.4362,-0.2783,0.0619,0.1504,-0.2388,-0.1738,
43.580874,0.4362,-0.2783,0.0619,0.0027,-0.4446,-0.2396,
43.613664,0.4362,-0.2783,0.0619,0.0027,-0.4446,-0.2396,
43.615466,1.4181,-0.6337,0.9157,0.0027,-0.4446,-0.2396,
43.646515,1.4181,-0.6337,0.9157,0.1981,-0.4230,-0.2775,
43.680163,1.4181,-0.6337,0.9157,0.1981,-0.4230,-0.2775,
43.681954,1.8998,-0.1372,0.9656,0.1981,-0.4230,-0.2775,
43.712208,1.8998,-0.1372,0.9656,0.3120,0.2786,-0.2227,
43.745508,1.8998,-0.1372,0.9656,0.3120,0.2786,-0.2227,
43.747177,1.8659,0.1519,0.4630,0.3120,0.2786,-0.2227,
43.776610,1.8659,0.1519,0.4630,0.5142,1.1241,0.0559,
43.809937,1.8659,0.1519,0.4630,0.5142,1.1241,0.0559,
43.811876,1.5309,1.4477,2.2334,0.5142,1.1241,0.0559,
43.842404,1.5309,1.4477,2.2334,-0.3219,0.3303,0.1932,
43.876239,1.5309,1.4477,2.2334,-0.3219,0.3303,0.1932,
43.877758,0.4931,3.7876,1.8693,-0.3219,0.3303,0.1932,
43.907126,0.4931,3.7876,1.8693,-1.6130,0.8419,-0.1773,
43.942421,0.4931,3.7876,1.8693,-1.6130,0.8419,-0.1773,
43.944108,-1.1823,-0.3195,-2.0828,-1.6130,0.8419,-0.1773,
43.974221,-1.1823,-0.3195,-2.0828,-0.5788,1.0527,-0.0768,
44.006216,-1.1823,-0.3195,-2.0828,-0.5788,1.0527,-0.0768,
44.008119,-2.2281,-0.5942,-3.4165,-0.5788,1.0527,-0.0768,
44.039181,-2.2281,-0.5942,-3.4165,-0.6440,-2.0247,0.2231,
44.072845,-2.2281,-0.5942,-3.4165,-0.6440,-2.0247,0.2231,
44.075088,-2.4276,-5.7170,-2.7129,-0.6440,-2.0247,0.2231,
44.104851,-2.4276,-5.7170,-2.7129,0.2001,-0.3166,0.0281,
44.138321,-2.4276,-5.7170,-2.7129,0.2001,-0.3166,0.0281,
44.140259,0.2032,0.5622,1.7379,0.2001,-0.3166,0.0281,
44.169255,0.2032,0.5622,1.7379,-1.0337,0.4218,1.4258,
44.203979,0.2032,0.5622,1.7379,-1.0337,0.4218,1.4258,
44.205626,0.0501,-3.8241,0.7018,-1.0337,0.4218,1.4258,
44.235710,0.0501,-3.8241,0.7018,1.0369,1.0495,0.7837,
44.268571,0.0501,-3.8241,0.7018,1.0369,1.0495,0.7837,
44.270118,2.5142,5.4279,-4.9581,1.0369,1.0495,0.7837,
44.300874,2.5142,5.4279,-4.9581,-0.1538,2.7810,0.0629,
44.335104,2.5142,5.4279,-4.9581,-0.1538,2.7810,0.0629,
44.336822,-0.4406,1.2781,-1.2278,-0.1538,2.7810,0.0629,
44.365907,-0.4406,1.2781,-1.2278,1.8086,-0.7045,-0.1646,
44.399226,-0.4406,1.2781,-1.2278,1.8086,-0.7045,-0.1646,
44.400730,-2.8094,0.5095,-2.7666,1.8086,-0.7045,-0.1646,
44.431746,-2.8094,0.5095,-2.7666,0.3038,0.0664,-0.1729,
44.464568,-2.8094,0.5095,-2.7666,0.3038,0.0664,-0.1729,
44.467071,-0.6966,-0.5970,0.5800,0.3038,0.0664,-0.1729,
44.497911,-0.6966,-0.5970,0.5800,0.2392,-0.6608,-0.0890,
44.531758,-0.6966,-0.5970,0.5800,0.2392,-0.6608,-0.0890,
44.533427,1.1871,-0.2224,0.5476,0.2392,-0.6608,-0.0890,
44.564264,1.1871,-0.2224,0.5476,0.3288,0.0360,-0.1006,
44.595425,1.1871,-0.2224,0.5476,0.3288,0.0360,-0.1006,
44.597627,0.8254,-0.8429,0.4953,0.3288,0.0360,-0.1006,
44.627541,0.8254,-0.8429,0.4953,0.3257,0.2077,-0.1171,
44.660854,0.8254,-0.8429,0.4953,0.3257,0.2077,-0.1171,
44.661837,0.0755,0.0203,-0.1405,0.3257,0.2077,-0.1171,
44.693626,0.0755,0.0203,-0.1405,0.0625,-0.4410,-0.0892,
44.727434,0.0755,0.0203,-0.1405,0.0625,-0.4410,-0.0892,
44.729068,-0.0050,-0.0064,0.2755,0.0625,-0.4410,-0.0892,
44.760164,-0.0050,-0.0064,0.2755,0.0098,-0.9464,-0.1880,
44.792807,-0.0050,-0.0064,0.2755,0.0098,-0.9464,-0.1880,
44.795632,1.1205,0.4709,0.4502,0.0098,-0.9464,-0.1880,
44.825305,1.1205,0.4709,0.4502,0.3465,-0.5522,-0.4670,
44.857787,1.1205,0.4709,0.4502,0.3465,-0.5522,-0.4670,
44.859627,1.6209,0.8255,1.1950,0.3465,-0.5522,-0.4670,
44.891521,1.6209,0.8255,1.1950,0.1915,-0.2877,-0.0078,
44.923949,1.6209,0.8255,1.1950,0.1915,-0.2877,-0.0078,
44.925504,1.8505,1.2956,1.2107,0.1915,-0.2877,-0.0078,
44.956131,1.8505,1.2956,1.2107,-1.4574,-0.6002,0.6295,
44.988607,1.8505,1.2956,1.2107,-1.4574,-0.6002,0.6295,
44.990167,1.0495,1.1316,1.7762,-1.4574,-0.6002,0.6295,
45.021692,1.0495,1.1316,1.7762,-2.6060,-0.2787,0.4751,
45.054273,1.0495,1.1316,1.7762,-2.6060,-0.2787,0.4751,
45.055930,-1.9977,-0.4889,-1.3071,-2.6060,-0.2787,0.4751,
45.088135,-1.9977,-0.4889,-1.3071,0.5441,1.3328,-0.3965,
45.120521,-1.9977,-0.4889,-1.3071,0.5441,1.3328,-0.3965,
45.121925,-2.0585,-2.8823,-3.0793,0.5441,1.3328,-0.3965,
45.152403,-2.0585,-2.8823,-3.0793,0.4453,0.7434,-0.3360,
45.185549,-2.0585,-2.8823,-3.0793,0.4453,0.7434,-0.3360,
45.187348,-1.2362,-3.0092,-0.2877,0.4453,0.7434,-0.3360,
45.217888,-1.2362,-3.0092,-0.2877,-1.2523,-2.6976,1.5890,
45.250015,-1.2362,-3.0092,-0.2877,-1.2523,-2.6976,1.5890,
45.250624,5.5394,-0.9599,4.6305,-1.2523,-2.6976,1.5890,
45.284490,5.5394,-0.9599,4.6305,0.3902,1.5945,0.8781,
45.316174,5.5394,-0.9599,4.6305,0.3902,1.5945,0.8781,
45.316717,0.4273,-0.8652,1.4902,0.3902,1.5945,0.8781,
45.349044,0.4273,-0.8652,1.4902,1.1054,1.2431,1.0131,
45.381357,0.4273,-0.8652,1.4902,1.1054,1.2431,1.0131,
45.382508,-0.1903,4.0778,-5.3748,1.1054,1.2431,1.0131,
45.415467,-0.1903,4.0778,-5.3748,0.7046,1.9652,-0.5591,
45.446295,-0.1903,4.0778,-5.3748,0.7046,1.9652,-0.5591,
45.448055,-2.9068,2.4179,-2.3418,0.7046,1.9652,-0.5591,
45.479188,-2.9068,2.4179,-2.3418,0.3380,0.0951,-0.7905,
45.513213,-2.9068,2.4179,-2.3418,0.3380,0.0951,-0.7905,
45.514212,-3.0733,1.4501,-0.1308,0.3380,0.0951,-0.7905,
45.545131,-3.0733,1.4501,-0.1308,0.0819,-0.6857,0.3167,
45.579357,-3.0733,1.4501,-0.1308,0.0819,-0.6857,0.3167,
45.580988,0.8269,-0.9090,0.6876,0.0819,-0.6857,0.3167,
45.610042,0.8269,-0.9090,0.6876,0.4197,-0.1216,-0.0550,
45.643449,0.8269,-0.9090,0.6876,0.4197,-0.1216,-0.0550,
45.644927,2.0822,-0.9567,0.2384,0.4197,-0.1216,-0.0550,
45.676088,2.0822,-0.9567,0.2384,0.8095,1.0284,-0.2816,
45.709218,2.0822,-0.9567,0.2384,0.8095,1.0284,-0.2816,
45.711144,0.7996,-0.7645,-0.0109,0.8095,1.0284,-0.2816,
45.741749,0.7996,-0.7645,-0.0109,0.6513,0.8169,-0.2033,
45.775416,0.7996,-0.7645,-0.0109,0.6513,0.8169,-0.2033,
45.777113,0.6170,-0.7063,0.0764,0.6513,0.8169,-0.2033,
45.807286,0.6170,-0.7063,0.0764,0.4791,0.1674,-0.2282,
45.839822,0.6170,-0.7063,0.0764,0.4791,0.1674,-0.2282,
45.841398,0.1168,-0.0575,0.9901,0.4791,0.1674,-0.2282,
45.871863,0.1168,-0.0575,0.9901,0.4646,-0.3230,-0.2822,
45.904732,0.1168,-0.0575,0.9901,0.4646,-0.3230,-0.2822,
45.906395,1.2344,-0.1597,1.1790,0.4646,-0.3230,-0.2822,
45.938843,1.2344,-0.1597,1.1790,0.7631,-0.3793,-0.4427,
45.970970,1.2344,-0.1597,1.1790,0.7631,-0.3793,-0.4427,
45.973182,1.1566,0.6490,1.2236,0.7631,-0.3793,-0.4427,
46.003114,1.1566,0.6490,1.2236,0.5626,0.5942,-0.5974,
46.036760,1.1566,0.6490,1.2236,0.5626,0.5942,-0.5974,
46.038187,1.1523,0.4424,1.2920,0.5626,0.5942,-0.5974,
46.069899,1.1523,0.4424,1.2920,0.6855,1.2236,-0.6289,
46.102167,1.1523,0.4424,1.2920,0.6855,1.2236,-0.6289,
46.103947,2.6534,1.2869,1.4229,0.6855,1.2236,-0.6289,
46.134984,2.6534,1.2869,1.4229,-1.9772,-0.2210,0.1894,
46.166811,2.6534,1.2869,1.4229,-1.9772,-0.2210,0.1894,
46.167721,0.0493,-0.6530,-0.8149,-1.9772,-0.2210,0.1894,
46.199231,0.0493,-0.6530,-0.8149,-0.9717,0.2178,0.2130,
46.232690,0.0493,-0.6530,-0.8149,-0.9717,0.2178,0.2130,
46.234477,-1.9988,0.8255,-2.8702,-0.9717,0.2178,0.2130,
46.264855,-1.9988,0.8255,-2.8702,-0.4731,0.5800,0.1135,
46.297810,-1.9988,0.8255,-2.8702,-0.4731,0.5800,0.1135,
46.298911,-2.5983,-2.2553,-2.4309,-0.4731,0.5800,0.1135,
46.331767,-2.5983,-2.2553,-2.4309,-1.1982,0.8480,0.4780,
46.363638,-2.5983,-2.2553,-2.4309,-1.1982,0.8480,0.4780,
46.364390,0.7321,-2.5382,2.3698,-1.1982,0.8480,0.4780,
46.396633,0.7321,-2.5382,2.3698,-0.5605,1.9361,0.8056,
46.429330,0.7321,-2.5382,2.3698,-0.5605,1.9361,0.8056,
46.431066,2.8785,-3.7698,3.1493,-0.5605,1.9361,0.8056,
46.462007,2.8785,-3.7698,3.1493,-0.0134,3.8736,1.4412,
46.495474,2.8785,-3.7698,3.1493,-0.0134,3.8736,1.4412,
46.496850,0.2699,3.9937,2.1872,-0.0134,3.8736,1.4412,
46.528120,0.2699,3.9937,2.1872,-0.2173,1.6510,0.6524,
46.559885,0.2699,3.9937,2.1872,-0.2173,1.6510,0.6524,
46.561536,-1.3375,-0.2918,-4.8646,-0.2173,1.6510,0.6524,
46.595245,-1.3375,-0.2918,-4.8646,1.7489,0.3044,-0.6953,
46.625457,-1.3375,-0.2918,-4.8646,1.7489,0.3044,-0.6953,
46.627149,-2.6581,3.1747,-7.5599,1.7489,0.3044,-0.6953,
46.658292,-2.6581,3.1747,-7.5599,-0.9346,1.9594,-0.8920,
46.692177,-2.6581,3.1747,-7.5599,-0.9346,1.9594,-0.8920,
46.693734,0.4003,2.5373,5.3333,-0.9346,1.9594,-0.8920,
46.723497,0.4003,2.5373,5.3333,0.2008,-2.6846,-0.1859,
46.756941,0.4003,2.5373,5.3333,0.2008,-2.6846,-0.1859,
46.757732,-0.9017,-0.5871,0.6792,0.2008,-2.6846,-0.1859,
46.789683,-0.9017,-0.5871,0.6792,1.8030,-1.7478,0.3787,
46.822440,-0.9017,-0.5871,0.6792,1.8030,-1.7478,0.3787,
46.823208,0.4083,-0.4980,-1.4925,1.8030,-1.7478,0.3787,
46.855196,0.4083,-0.4980,-1.4925,0.7391,-0.7411,-0.2068,
46.888880,0.4083,-0.4980,-1.4925,0.7391,-0.7411,-0.2068,
46.889530,1.0314,-0.6344,2.0916,0.7391,-0.7411,-0.2068,
46.920704,1.0314,-0.6344,2.0916,0.5255,-1.8885,-0.3276,
46.952550,1.0314,-0.6344,2.0916,0.5255,-1.8885,-0.3276,
46.953666,1.9068,-0.4107,2.9463,0.5255,-1.8885,-0.3276,
46.985608,1.9068,-0.4107,2.9463,0.7398,-0.7497,0.0754,
47.018772,1.9068,-0.4107,2.9463,0.7398,-0.7497,0.0754,
47.020239,5.4940,1.1667,5.3860,0.7398,-0.7497,0.0754,
47.050908,5.4940,1.1667,5.3860,-0.3905,0.4282,0.1545,
47.084567,5.4940,1.1667,5.3860,-0.3905,0.4282,0.1545,
47.085744,1.4492,1.5844,-1.5559,-0.3905,0.4282,0.1545,
47.118325,1.4492,1.5844,-1.5559,-0.2715,2.9436,0.1869,
