
time,ax,ay,az,wx,wy,wz,
0.024637,0.0000,0.0000,0.0000,-0.0825,-0.0799,0.0551,
0.024921,0.0000,0.0000,0.0000,-0.0825,-0.0799,0.0551,
0.032319,0.0000,0.0000,0.0000,-0.0605,-0.0322,0.0614,
0.078294,0.0000,0.0000,0.0000,-0.0605,-0.0322,0.0614,
0.097882,0.0000,0.0000,0.0000,-0.0556,-0.0246,0.0501,
0.144905,0.0000,0.0000,0.0000,-0.0556,-0.0246,0.0501,
0.163389,0.0000,0.0000,0.0000,-0.0127,-0.0283,0.0295,
0.209231,0.0000,0.0000,0.0000,-0.0127,-0.0283,0.0295,
0.229028,0.0000,0.0000,0.0000,-0.0130,-0.0243,0.0380,
0.275236,0.0000,0.0000,0.0000,-0.0130,-0.0243,0.0380,
0.295263,0.0000,0.0000,0.0000,-0.0057,0.0029,0.0279,
0.340638,0.0000,0.0000,0.0000,-0.0057,0.0029,0.0279,
0.360511,0.0000,0.0000,0.0000,0.0128,0.0162,-0.0015,
0.406144,0.0000,0.0000,0.0000,0.0128,0.0162,-0.0015,
0.426490,0.0000,0.0000,0.0000,0.0990,0.0531,-0.0457,
0.472757,0.0000,0.0000,0.0000,0.0990,0.0531,-0.0457,
0.488823,0.3052,-0.3627,0.0068,0.0990,0.0531,-0.0457,
0.490728,0.3052,-0.3627,0.0068,0.1854,0.1724,-0.1155,
0.536954,0.3052,-0.3627,0.0068,0.1854,0.1724,-0.1155,
0.554439,0.0855,-1.1051,-0.5690,0.1854,0.1724,-0.1155,
0.556590,0.0855,-1.1051,-0.5690,0.1845,0.3586,-0.3247,
0.603403,0.0855,-1.1051,-0.5690,0.1845,0.3586,-0.3247,
0.619628,-0.4447,-1.6429,-1.3839,0.1845,0.3586,-0.3247,
0.623263,-0.4447,-1.6429,-1.3839,0.2161,1.3967,-0.5967,
0.687966,-0.4447,-1.6429,-1.3839,-0.0794,0.5901,-0.5492,
0.717282,-0.4447,-1.6429,-1.3839,-0.0794,0.5901,-0.5492,
0.718425,0.4476,1.9283,-0.3201,-0.0794,0.5901,-0.5492,
0.733599,0.4476,1.9283,-0.3201,-0.0794,0.5901,-0.5492,
0.753626,0.4476,1.9283,-0.3201,0.0111,0.3209,-0.0816,
0.799489,0.4476,1.9283,-0.3201,0.0111,0.3209,-0.0816,
0.800439,0.2331,0.4224,-0.1299,0.0111,0.3209,-0.0816,
0.819531,0.2331,0.4224,-0.1299,-0.0606,0.3804,-0.0098,
0.864595,0.2331,0.4224,-0.1299,-0.0606,0.3804,-0.0098,
0.865993,-0.0138,0.0839,0.0963,-0.0606,0.3804,-0.0098,
0.884708,-0.0138,0.0839,0.0963,0.0446,0.3957,-0.0951,
0.930224,-0.0138,0.0839,0.0963,0.0446,0.3957,-0.0951,
0.931531,-0.3630,0.9782,0.3613,0.0446,0.3957,-0.0951,
0.949918,-0.3630,0.9782,0.3613,0.0516,0.5734,0.1894,
0.995668,-0.3630,0.9782,0.3613,0.0516,0.5734,0.1894,
0.997034,-0.3550,-0.9462,0.6266,0.0516,0.5734,0.1894,
1.014826,-0.3550,-0.9462,0.6266,0.0038,0.8882,0.0878,
1.060553,-0.3550,-0.9462,0.6266,0.0038,0.8882,0.0878,
1.061693,-0.0670,-0.5148,0.8965,0.0038,0.8882,0.0878,
1.080466,-0.0670,-0.5148,0.8965,0.0362,0.6497,-0.1064,
1.126592,-0.0670,-0.5148,0.8965,0.0362,0.6497,-0.1064,
1.127667,-0.4563,-0.4844,0.9516,0.0362,0.6497,-0.1064,
1.146024,-0.4563,-0.4844,0.9516,0.0177,0.3615,-0.2107,
1.192598,-0.4563,-0.4844,0.9516,0.0177,0.3615,-0.2107,
1.194511,-0.7686,-0.9308,1.3951,0.0177,0.3615,-0.2107,
1.214800,-0.7686,-0.9308,1.3951,0.0560,0.0206,-0.1668,
1.257773,-0.7686,-0.9308,1.3951,0.0560,0.0206,-0.1668,
1.258567,-0.3618,-1.6290,1.3934,0.0560,0.0206,-0.1668,
1.277963,-0.3618,-1.6290,1.3934,0.2091,-0.1017,0.1109,
1.322942,-0.3618,-1.6290,1.3934,0.2091,-0.1017,0.1109,
1.324827,-0.4946,0.9174,1.4536,0.2091,-0.1017,0.1109,
1.342043,-0.4946,0.9174,1.4536,0.3780,-0.0973,0.1013,
1.388905,-0.4946,0.9174,1.4536,0.3780,-0.0973,0.1013,
1.390865,0.3567,-0.1989,-0.8358,0.3780,-0.0973,0.1013,
1.408341,0.3567,-0.1989,-0.8358,0.1633,0.1681,0.2144,
1.453627,0.3567,-0.1989,-0.8358,0.1633,0.1681,0.2144,
1.454720,-0.3650,-0.1893,0.1407,0.1633,0.1681,0.2144,
1.473985,-0.3650,-0.1893,0.1407,0.5252,0.3254,0.3125,
1.519259,-0.3650,-0.1893,0.1407,0.5252,0.3254,0.3125,
1.520084,-0.0566,-0.2367,-1.0811,0.5252,0.3254,0.3125,
1.539105,-0.0566,-0.2367,-1.0811,0.3612,-0.0272,0.2579,
1.585360,-0.0566,-0.2367,-1.0811,0.3612,-0.0272,0.2579,
1.587052,0.3346,0.2513,-1.2305,0.3612,-0.0272,0.2579,
1.605125,0.3346,0.2513,-1.2305,0.2700,-0.0272,0.2601,
1.650605,0.3346,0.2513,-1.2305,0.2700,-0.0272,0.2601,
1.651873,0.2618,-0.0472,-0.8970,0.2700,-0.0272,0.2601,
1.671082,0.2618,-0.0472,-0.8970,0.3166,-0.0124,0.2254,
1.715184,0.2618,-0.0472,-0.8970,0.3166,-0.0124,0.2254,
1.716496,-0.1255,-0.1559,-0.8891,0.3166,-0.0124,0.2254,
1.734958,-0.1255,-0.1559,-0.8891,0.3673,-0.0678,0.1688,
1.780524,-0.1255,-0.1559,-0.8891,0.3673,-0.0678,0.1688,
1.781638,-0.3450,0.1462,-0.4945,0.3673,-0.0678,0.1688,
1.801129,-0.3450,0.1462,-0.4945,0.2350,-0.2724,0.1402,
1.847545,-0.3450,0.1462,-0.4945,0.2350,-0.2724,0.1402,
1.849087,-0.3260,0.1574,-0.3649,0.2350,-0.2724,0.1402,
1.866758,-0.3260,0.1574,-0.3649,0.1532,-0.4398,0.1022,
1.912507,-0.3260,0.1574,-0.3649,0.1532,-0.4398,0.1022,
1.913358,-0.3671,0.0756,-0.3179,0.1532,-0.4398,0.1022,
1.931400,-0.3671,0.0756,-0.3179,0.1084,-0.6628,0.1268,
1.977456,-0.3671,0.0756,-0.3179,0.1084,-0.6628,0.1268,
1.978221,-0.1097,0.0924,-0.6229,0.1084,-0.6628,0.1268,
1.997360,-0.1097,0.0924,-0.6229,0.0334,-0.7318,0.1248,
2.043463,-0.1097,0.0924,-0.6229,0.0334,-0.7318,0.1248,
2.044765,0.0609,0.2138,-0.4440,0.0334,-0.7318,0.1248,
2.062941,0.0609,0.2138,-0.4440,-0.1252,-0.8137,0.0956,
2.108779,0.0609,0.2138,-0.4440,-0.1252,-0.8137,0.0956,
2.110001,0.6947,-0.4308,-0.2539,-0.1252,-0.8137,0.0956,
2.128119,0.6947,-0.4308,-0.2539,-0.1717,-0.6677,0.0982,
2.174156,0.6947,-0.4308,-0.2539,-0.1717,-0.6677,0.0982,
2.175596,1.2833,-0.4854,-0.2437,-0.1717,-0.6677,0.0982,
2.194786,1.2833,-0.4854,-0.2437,-0.1029,-0.3482,-0.0409,
2.239363,1.2833,-0.4854,-0.2437,-0.1029,-0.3482,-0.0409,
2.240349,0.9383,-0.3320,-0.0331,-0.1029,-0.3482,-0.0409,
2.258844,0.9383,-0.3320,-0.0331,-0.1132,-0.1909,-0.1461,
2.304601,0.9383,-0.3320,-0.0331,-0.1132,-0.1909,-0.1461,
2.305731,0.5791,-0.2105,0.1199,-0.1132,-0.1909,-0.1461,
2.324512,0.5791,-0.2105,0.1199,-0.0432,-0.1947,-0.1987,
2.371563,0.5791,-0.2105,0.1199,-0.0432,-0.1947,-0.1987,
2.372680,0.5687,-0.1487,0.0380,-0.0432,-0.1947,-0.1987,
2.390320,0.5687,-0.1487,0.0380,-0.0203,-0.3221,-0.3348,
2.437408,0.5687,-0.1487,0.0380,-0.0203,-0.3221,-0.3348,
2.439154,0.4558,0.0405,-0.0114,-0.0203,-0.3221,-0.3348,
2.456321,0.4558,0.0405,-0.0114,-0.0134,-0.5455,-0.4285,
2.501254,0.4558,0.0405,-0.0114,-0.0134,-0.5455,-0.4285,
2.502501,0.2328,0.9389,-0.3816,-0.0134,-0.5455,-0.4285,
2.521277,0.2328,0.9389,-0.3816,0.0421,-0.4734,-0.2879,
2.567422,0.2328,0.9389,-0.3816,0.0421,-0.4734,-0.2879,
2.568856,0.5977,1.1844,-0.4414,0.0421,-0.4734,-0.2879,
2.588528,0.5977,1.1844,-0.4414,-0.0121,-0.2280,-0.1491,
2.631619,0.5977,1.1844,-0.4414,-0.0121,-0.2280,-0.1491,
2.631919,0.3681,0.0577,-0.1843,-0.0121,-0.2280,-0.1491,
2.652632,0.3681,0.0577,-0.1843,-0.2706,-0.2046,-0.2613,
2.697085,0.3681,0.0577,-0.1843,-0.2706,-0.2046,-0.2613,
2.697469,-0.2026,0.3169,-0.2795,-0.2706,-0.2046,-0.2613,
2.717786,-0.2026,0.3169,-0.2795,-0.5823,-0.0831,-0.1994,
2.763221,-0.2026,0.3169,-0.2795,-0.5823,-0.0831,-0.1994,
2.763888,-0.7803,-0.2093,-0.4507,-0.5823,-0.0831,-0.1994,
2.782806,-0.7803,-0.2093,-0.4507,-0.7159,0.1031,0.0683,
2.828070,-0.7803,-0.2093,-0.4507,-0.7159,0.1031,0.0683,
2.828962,-0.3823,0.2116,0.1429,-0.7159,0.1031,0.0683,
2.848000,-0.3823,0.2116,0.1429,-0.6570,0.2972,0.0144,
2.894425,-0.3823,0.2116,0.1429,-0.6570,0.2972,0.0144,
2.895545,0.2398,0.3513,-0.3224,-0.6570,0.2972,0.0144,
2.913905,0.2398,0.3513,-0.3224,-0.7885,0.6678,0.0611,
2.959756,0.2398,0.3513,-0.3224,-0.7885,0.6678,0.0611,
2.961233,0.1110,-0.5491,0.0587,-0.7885,0.6678,0.0611,
2.979804,0.1110,-0.5491,0.0587,-0.6183,1.1785,0.2382,
3.025124,0.1110,-0.5491,0.0587,-0.6183,1.1785,0.2382,
3.026616,-0.0941,-0.2826,0.1304,-0.6183,1.1785,0.2382,
3.045368,-0.0941,-0.2826,0.1304,-0.5388,1.3076,0.1029,
3.090765,-0.0941,-0.2826,0.1304,-0.5388,1.3076,0.1029,
3.091798,-0.3811,0.0071,-0.0707,-0.5388,1.3076,0.1029,
3.110850,-0.3811,0.0071,-0.0707,-0.4491,1.1333,0.1040,
3.156708,-0.3811,0.0071,-0.0707,-0.4491,1.1333,0.1040,
3.157891,-0.2438,-0.6439,-0.5392,-0.4491,1.1333,0.1040,
3.175741,-0.2438,-0.6439,-0.5392,-0.3282,1.1791,0.1153,
3.221218,-0.2438,-0.6439,-0.5392,-0.3282,1.1791,0.1153,
3.222319,-0.6095,-0.7941,-0.3778,-0.3282,1.1791,0.1153,
3.241017,-0.6095,-0.7941,-0.3778,-0.1860,1.0220,0.0586,
3.287007,-0.6095,-0.7941,-0.3778,-0.1860,1.0220,0.0586,
3.288043,-0.9677,-0.6023,-0.2181,-0.1860,1.0220,0.0586,
3.306533,-0.9677,-0.6023,-0.2181,-0.0794,0.7017,0.1329,
3.353011,-0.9677,-0.6023,-0.2181,-0.0794,0.7017,0.1329,
3.354949,-1.0486,-0.5755,-0.2130,-0.0794,0.7017,0.1329,
3.373043,-1.0486,-0.5755,-0.2130,-0.0675,0.3241,0.1877,
3.418303,-1.0486,-0.5755,-0.2130,-0.0675,0.3241,0.1877,
3.420405,-0.2010,-0.0819,0.3258,-0.0675,0.3241,0.1877,
3.438643,-0.2010,-0.0819,0.3258,0.0006,0.0612,0.3816,
3.484529,-0.2010,-0.0819,0.3258,0.0006,0.0612,0.3816,
3.486025,0.5869,-1.2749,0.7314,0.0006,0.0612,0.3816,
3.504625,0.5869,-1.2749,0.7314,0.3697,0.1793,0.3389,
3.549870,0.5869,-1.2749,0.7314,0.3697,0.1793,0.3389,
3.551490,0.3396,-1.9425,1.3341,0.3697,0.1793,0.3389,
3.568766,0.3396,-1.9425,1.3341,0.6539,0.3018,0.2225,
3.614832,0.3396,-1.9425,1.3341,0.6539,0.3018,0.2225,
3.616919,0.2261,-1.3034,1.4504,0.6539,0.3018,0.2225,
3.634880,0.2261,-1.3034,1.4504,0.8358,0.3816,0.3212,
3.681886,0.2261,-1.3034,1.4504,0.8358,0.3816,0.3212,
3.683558,0.3091,-1.3451,1.5212,0.8358,0.3816,0.3212,
3.700488,0.3091,-1.3451,1.5212,0.8409,0.3934,0.5635,
3.746842,0.3091,-1.3451,1.5212,0.8409,0.3934,0.5635,
3.748718,-1.8667,8.2662,-1.4282,0.8409,0.3934,0.5635,
3.765871,-1.8667,8.2662,-1.4282,0.6234,-0.4690,-0.3754,
3.812914,-1.8667,8.2662,-1.4282,0.6234,-0.4690,-0.3754,
3.814562,-0.1939,0.6895,-2.4169,0.6234,-0.4690,-0.3754,
3.832082,-0.1939,0.6895,-2.4169,0.3183,0.2990,0.4928,
3.879314,-0.1939,0.6895,-2.4169,0.3183,0.2990,0.4928,
3.881656,0.6956,-0.7941,-0.1571,0.3183,0.2990,0.4928,
3.896095,0.6956,-0.7941,-0.1571,0.8636,-0.0779,-0.0046,
3.942036,0.6956,-0.7941,-0.1571,0.8636,-0.0779,-0.0046,
3.942906,-0.5862,0.8873,-2.4253,0.8636,-0.0779,-0.0046,
3.961638,-0.5862,0.8873,-2.4253,0.4081,-0.3505,0.0383,
4.007936,-0.5862,0.8873,-2.4253,0.4081,-0.3505,0.0383,
4.009630,-0.6061,-0.3736,-0.2212,0.4081,-0.3505,0.0383,
4.027995,-0.6061,-0.3736,-0.2212,0.3059,-0.7118,0.3050,
4.073102,-0.6061,-0.3736,-0.2212,0.3059,-0.7118,0.3050,
4.074108,0.7383,-0.3842,-1.3820,0.3059,-0.7118,0.3050,
4.093358,0.7383,-0.3842,-1.3820,0.2217,-0.6891,0.0530,
4.138958,0.7383,-0.3842,-1.3820,0.2217,-0.6891,0.0530,
4.140591,0.5109,-0.2987,-0.6868,0.2217,-0.6891,0.0530,
4.159352,0.5109,-0.2987,-0.6868,0.2454,-0.3326,0.0605,
4.204835,0.5109,-0.2987,-0.6868,0.2454,-0.3326,0.0605,
4.207118,-0.3943,-0.2849,-0.7781,0.2454,-0.3326,0.0605,
4.223835,-0.3943,-0.2849,-0.7781,0.2020,-0.2995,0.1026,
4.270040,-0.3943,-0.2849,-0.7781,0.2020,-0.2995,0.1026,
4.271050,-0.5762,-0.0350,-0.5027,0.2020,-0.2995,0.1026,
4.289173,-0.5762,-0.0350,-0.5027,0.0377,-0.4528,0.0137,
4.335446,-0.5762,-0.0350,-0.5027,0.0377,-0.4528,0.0137,
4.337218,0.0791,0.1469,0.0149,0.0377,-0.4528,0.0137,
4.354816,0.0791,0.1469,0.0149,-0.0325,-0.5941,0.1098,
4.400905,0.0791,0.1469,0.0149,-0.0325,-0.5941,0.1098,
4.402468,0.6116,0.0604,-0.0285,-0.0325,-0.5941,0.1098,
4.420061,0.6116,0.0604,-0.0285,-0.0991,-0.5108,-0.0166,
4.467036,0.6116,0.0604,-0.0285,-0.0991,-0.5108,-0.0166,
4.468286,0.5282,-0.3305,0.1397,-0.0991,-0.5108,-0.0166,
4.486552,0.5282,-0.3305,0.1397,-0.1176,-0.5676,0.0009,
4.532726,0.5282,-0.3305,0.1397,-0.1176,-0.5676,0.0009,
4.534863,0.7934,-0.3954,-0.0211,-0.1176,-0.5676,0.0009,
4.552202,0.7934,-0.3954,-0.0211,-0.1597,-0.5000,-0.0438,
4.597228,0.7934,-0.3954,-0.0211,-0.1597,-0.5000,-0.0438,
4.599375,0.9825,-0.1533,-0.3075,-0.1597,-0.5000,-0.0438,
4.618019,0.9825,-0.1533,-0.3075,-0.1736,-0.3810,-0.2205,
4.662987,0.9825,-0.1533,-0.3075,-0.1736,-0.3810,-0.2205,
4.665063,0.7683,0.0044,-0.1391,-0.1736,-0.3810,-0.2205,
4.684335,0.7683,0.0044,-0.1391,-0.1573,-0.4417,-0.3204,
4.729431,0.7683,0.0044,-0.1391,-0.1573,-0.4417,-0.3204,
4.731017,1.0035,0.1912,0.0615,-0.1573,-0.4417,-0.3204,
4.747651,1.0035,0.1912,0.0615,-0.2792,-0.5762,-0.2847,
4.795073,1.0035,0.1912,0.0615,-0.2792,-0.5762,-0.2847,
4.797941,1.4187,0.3476,-0.3255,-0.2792,-0.5762,-0.2847,
4.814892,1.4187,0.3476,-0.3255,-0.1770,-0.2877,-0.2761,
4.861987,1.4187,0.3476,-0.3255,-0.1770,-0.2877,-0.2761,
4.865311,0.6453,1.9512,-0.1369,-0.1770,-0.2877,-0.2761,
4.880231,0.6453,1.9512,-0.1369,-0.0457,0.0496,-0.3300,
4.926974,0.6453,1.9512,-0.1369,-0.0457,0.0496,-0.3300,
4.929273,-0.8789,1.5563,-1.0614,-0.0457,0.0496,-0.3300,
4.945682,-0.8789,1.5563,-1.0614,-0.4652,-0.1326,-0.4348,
4.990917,-0.8789,1.5563,-1.0614,-0.4652,-0.1326,-0.4348,
4.993034,-1.3792,-1.2780,-0.6734,-0.4652,-0.1326,-0.4348,
5.009840,-1.3792,-1.2780,-0.6734,-0.8260,0.0000,-0.2486,
5.055441,-1.3792,-1.2780,-0.6734,-0.8260,0.0000,-0.2486,
5.056818,-0.5225,0.4211,0.1193,-0.8260,0.0000,-0.2486,
5.076510,-0.5225,0.4211,0.1193,-0.5521,0.1819,-0.2572,
5.121255,-0.5225,0.4211,0.1193,-0.5521,0.1819,-0.2572,
5.122804,-0.2267,-0.0997,-0.9311,-0.5521,0.1819,-0.2572,
5.140525,-0.2267,-0.0997,-0.9311,-0.7749,0.5024,-0.1107,
5.186972,-0.2267,-0.0997,-0.9311,-0.7749,0.5024,-0.1107,
5.188809,-0.6250,-0.5686,-0.1738,-0.7749,0.5024,-0.1107,
5.206682,-0.6250,-0.5686,-0.1738,-0.6967,0.6072,-0.1665,
5.252099,-0.6250,-0.5686,-0.1738,-0.6967,0.6072,-0.1665,
5.254053,-0.6134,-0.0258,-0.3873,-0.6967,0.6072,-0.1665,
5.270795,-0.6134,-0.0258,-0.3873,-0.6423,0.4980,-0.0796,
5.318445,-0.6134,-0.0258,-0.3873,-0.6423,0.4980,-0.0796,
5.320113,-0.5715,-0.1908,-0.3032,-0.6423,0.4980,-0.0796,
5.338178,-0.5715,-0.1908,-0.3032,-0.6043,0.4617,-0.0131,
5.383843,-0.5715,-0.1908,-0.3032,-0.6043,0.4617,-0.0131,
5.385735,-0.2644,-0.7455,-0.3360,-0.6043,0.4617,-0.0131,
5.403572,-0.2644,-0.7455,-0.3360,-0.5101,0.5764,0.1284,
5.448854,-0.2644,-0.7455,-0.3360,-0.5101,0.5764,0.1284,
5.450552,-0.2677,-0.3948,-0.1237,-0.5101,0.5764,0.1284,
5.469238,-0.2677,-0.3948,-0.1237,-0.3277,0.6064,0.1255,
5.513615,-0.2677,-0.3948,-0.1237,-0.3277,0.6064,0.1255,
5.514724,-0.4594,-0.1431,-0.1835,-0.3277,0.6064,0.1255,
5.533329,-0.4594,-0.1431,-0.1835,-0.3586,0.5379,0.2129,
5.581611,-0.4594,-0.1431,-0.1835,-0.3586,0.5379,0.2129,
5.584522,-0.1328,-0.5259,-0.2514,-0.3586,0.5379,0.2129,
5.599492,-0.1328,-0.5259,-0.2514,-0.2633,0.5576,0.3067,
5.644493,-0.1328,-0.5259,-0.2514,-0.2633,0.5576,0.3067,
5.646241,0.0482,-0.7692,0.0456,-0.2633,0.5576,0.3067,
5.663934,0.0482,-0.7692,0.0456,-0.1564,0.6043,0.3291,
5.710149,0.0482,-0.7692,0.0456,-0.1564,0.6043,0.3291,
5.711406,0.2312,-0.6818,0.1100,-0.1564,0.6043,0.3291,
5.730337,0.2312,-0.6818,0.1100,0.0107,0.6921,0.4096,
5.775527,0.2312,-0.6818,0.1100,0.0107,0.6921,0.4096,
5.777175,0.0601,-0.5736,0.4296,0.0107,0.6921,0.4096,
5.795075,0.0601,-0.5736,0.4296,0.1610,0.6480,0.4166,
5.840861,0.0601,-0.5736,0.4296,0.1610,0.6480,0.4166,
5.842008,-0.1855,-0.3540,0.3776,0.1610,0.6480,0.4166,
5.861124,-0.1855,-0.3540,0.3776,0.2654,0.5069,0.4171,
5.906015,-0.1855,-0.3540,0.3776,0.2654,0.5069,0.4171,
5.907196,-0.4472,-0.6783,0.3108,0.2654,0.5069,0.4171,
5.926604,-0.4472,-0.6783,0.3108,0.3317,0.2546,0.4371,
5.972195,-0.4472,-0.6783,0.3108,0.3317,0.2546,0.4371,
5.973970,-0.4472,-1.2335,0.4237,0.3317,0.2546,0.4371,
5.992110,-0.4472,-1.2335,0.4237,0.4904,-0.0655,0.3995,
6.037640,-0.4472,-1.2335,0.4237,0.4904,-0.0655,0.3995,
6.039282,-0.5324,-0.6340,0.3952,0.4904,-0.0655,0.3995,
6.057030,-0.5324,-0.6340,0.3952,0.6099,-0.5055,0.3407,
6.103778,-0.5324,-0.6340,0.3952,0.6099,-0.5055,0.3407,
6.105713,0.2029,-0.8318,0.6233,0.6099,-0.5055,0.3407,
6.124533,0.2029,-0.8318,0.6233,0.6414,-0.4679,0.3341,
6.169219,0.2029,-0.8318,0.6233,0.6414,-0.4679,0.3341,
6.169972,0.4120,-0.5499,1.6436,0.6414,-0.4679,0.3341,
6.189476,0.4120,-0.5499,1.6436,0.5979,-0.1762,0.3558,
6.235257,0.4120,-0.5499,1.6436,0.5979,-0.1762,0.3558,
6.236198,-1.1764,6.7238,1.8259,0.5979,-0.1762,0.3558,
6.253113,-1.1764,6.7238,1.8259,0.7326,-0.6716,-0.0316,
6.299715,-1.1764,6.7238,1.8259,0.7326,-0.6716,-0.0316,
6.300417,-0.0977,0.2416,-0.4798,0.7326,-0.6716,-0.0316,
6.319514,-0.0977,0.2416,-0.4798,0.4479,-0.1536,0.0310,
6.366041,-0.0977,0.2416,-0.4798,0.4479,-0.1536,0.0310,
6.367073,-1.3810,-1.2910,-0.6381,0.4479,-0.1536,0.0310,
6.384343,-1.3810,-1.2910,-0.6381,0.7450,-0.9514,-0.0860,
6.430997,-1.3810,-1.2910,-0.6381,0.7450,-0.9514,-0.0860,
6.431949,0.0104,0.2553,-2.6224,0.7450,-0.9514,-0.0860,
6.450120,0.0104,0.2553,-2.6224,0.4604,-0.5637,-0.0834,
6.497575,0.0104,0.2553,-2.6224,0.4604,-0.5637,-0.0834,
6.498725,-0.1217,0.0181,-0.7657,0.4604,-0.5637,-0.0834,
6.515246,-0.1217,0.0181,-0.7657,0.2349,-0.5907,0.0626,
6.561684,-0.1217,0.0181,-0.7657,0.2349,-0.5907,0.0626,
6.562974,0.3897,-0.7196,-0.2746,0.2349,-0.5907,0.0626,
6.580615,0.3897,-0.7196,-0.2746,0.3584,-0.6788,0.0121,
6.627226,0.3897,-0.7196,-0.2746,0.3584,-0.6788,0.0121,
6.629238,0.9192,0.0495,-0.5939,0.3584,-0.6788,0.0121,
6.646379,0.9192,0.0495,-0.5939,0.2749,-0.4264,-0.0408,
6.692562,0.9192,0.0495,-0.5939,0.2749,-0.4264,-0.0408,
6.694342,0.4149,-0.0228,-0.1201,0.2749,-0.4264,-0.0408,
6.711823,0.4149,-0.0228,-0.1201,0.1261,-0.4282,-0.0208,
6.758096,0.4149,-0.0228,-0.1201,0.1261,-0.4282,-0.0208,
6.759393,0.3668,-0.1225,-0.1134,0.1261,-0.4282,-0.0208,
6.779561,0.3668,-0.1225,-0.1134,0.0531,-0.4713,-0.0101,
6.823445,0.3668,-0.1225,-0.1134,0.0531,-0.4713,-0.0101,
6.824953,0.4100,-0.3284,-0.2336,0.0531,-0.4713,-0.0101,
6.843609,0.4100,-0.3284,-0.2336,-0.0799,-0.6043,-0.0599,
6.889087,0.4100,-0.3284,-0.2336,-0.0799,-0.6043,-0.0599,
6.890193,0.7372,-0.0569,-0.0200,-0.0799,-0.6043,-0.0599,
6.907852,0.7372,-0.0569,-0.0200,-0.1200,-0.7138,-0.0938,
6.953679,0.7372,-0.0569,-0.0200,-0.1200,-0.7138,-0.0938,
6.954761,0.9676,0.0321,0.0456,-0.1200,-0.7138,-0.0938,
6.974022,0.9676,0.0321,0.0456,-0.1907,-0.6362,-0.0234,
7.019507,0.9676,0.0321,0.0456,-0.1907,-0.6362,-0.0234,
7.020884,0.5424,0.8997,-0.2094,-0.1907,-0.6362,-0.0234,
7.039162,0.5424,0.8997,-0.2094,-0.1407,-0.3450,-0.0423,
7.084068,0.5424,0.8997,-0.2094,-0.1407,-0.3450,-0.0423,
7.085154,0.7118,2.0749,-0.6386,-0.1407,-0.3450,-0.0423,
7.104349,0.7118,2.0749,-0.6386,-0.1208,-0.0606,-0.2355,
7.149594,0.7118,2.0749,-0.6386,-0.1208,-0.0606,-0.2355,
7.150691,0.1609,-0.4036,-0.9204,-0.1208,-0.0606,-0.2355,
7.170162,0.1609,-0.4036,-0.9204,-0.7443,0.5272,-0.4223,
7.216793,0.1609,-0.4036,-0.9204,-0.7443,0.5272,-0.4223,
7.218445,-0.6793,-0.7959,0.0884,-0.7443,0.5272,-0.4223,
7.236053,-0.6793,-0.7959,0.0884,-0.8335,0.8874,-0.2555,
7.282494,-0.6793,-0.7959,0.0884,-0.8335,0.8874,-0.2555,
7.284035,-1.1502,0.6934,-0.2305,-0.8335,0.8874,-0.2555,
7.301918,-1.1502,0.6934,-0.2305,-0.6009,0.4209,0.0417,
7.348557,-1.1502,0.6934,-0.2305,-0.6009,0.4209,0.0417,
7.350153,-0.7112,-0.5672,-0.6259,-0.6009,0.4209,0.0417,
7.366643,-0.7112,-0.5672,-0.6259,-0.6371,0.5475,0.1802,
7.412800,-0.7112,-0.5672,-0.6259,-0.6371,0.5475,0.1802,
7.414503,-0.3015,-0.7789,-0.1065,-0.6371,0.5475,0.1802,
7.433345,-0.3015,-0.7789,-0.1065,-0.4507,0.5760,0.0742,
7.478719,-0.3015,-0.7789,-0.1065,-0.4507,0.5760,0.0742,
7.480920,-0.9389,-0.7021,0.2483,-0.4507,0.5760,0.0742,
7.497802,-0.9389,-0.7021,0.2483,-0.2767,0.3151,0.2060,
7.545374,-0.9389,-0.7021,0.2483,-0.2767,0.3151,0.2060,
7.547885,-0.4291,-1.3445,0.4503,-0.2767,0.3151,0.2060,
7.563902,-0.4291,-1.3445,0.4503,-0.1109,0.3625,0.2211,
7.608957,-0.4291,-1.3445,0.4503,-0.1109,0.3625,0.2211,
7.610620,-0.2192,-1.2593,0.9791,-0.1109,0.3625,0.2211,
7.628458,-0.2192,-1.2593,0.9791,0.1759,0.2451,0.2590,
7.674642,-0.2192,-1.2593,0.9791,0.1759,0.2451,0.2590,
7.676450,0.2926,-0.3384,0.9981,0.1759,0.2451,0.2590,
7.695910,0.2926,-0.3384,0.9981,0.2889,0.2761,0.1739,
7.739938,0.2926,-0.3384,0.9981,0.2889,0.2761,0.1739,
7.741796,0.5269,-0.2077,0.9686,0.2889,0.2761,0.1739,
7.761482,0.5269,-0.2077,0.9686,0.3357,0.4516,0.0950,
7.807760,0.5269,-0.2077,0.9686,0.3357,0.4516,0.0950,
7.809612,0.7935,-0.8627,1.5039,0.3357,0.4516,0.0950,
7.825931,0.7935,-0.8627,1.5039,0.5310,0.5918,0.1319,
7.872454,0.7935,-0.8627,1.5039,0.5310,0.5918,0.1319,
7.873610,-0.5225,3.6533,-1.1509,0.5310,0.5918,0.1319,
7.891102,-0.5225,3.6533,-1.1509,0.5803,0.2317,-0.5420,
7.935728,-0.5225,3.6533,-1.1509,0.5803,0.2317,-0.5420,
7.937061,-2.6469,1.3782,-1.1887,0.5803,0.2317,-0.5420,
7.956618,-2.6469,1.3782,-1.1887,0.6822,-0.1536,0.1616,
8.003321,-2.6469,1.3782,-1.1887,0.6822,-0.1536,0.1616,
8.005881,0.0990,-1.4564,-0.0503,0.6822,-0.1536,0.1616,
8.021778,0.0990,-1.4564,-0.0503,0.6234,-0.4296,0.0321,
8.068867,0.0990,-1.4564,-0.0503,0.6234,-0.4296,0.0321,
8.069631,0.4222,-0.3308,-1.4869,0.6234,-0.4296,0.0321,
8.087056,0.4222,-0.3308,-1.4869,0.6203,-0.3227,0.0334,
8.133286,0.4222,-0.3308,-1.4869,0.6203,-0.3227,0.0334,
8.134818,-0.3210,-0.0245,-0.6222,0.6203,-0.3227,0.0334,
8.154054,-0.3210,-0.0245,-0.6222,0.3509,-0.2274,0.1066,
8.198281,-0.3210,-0.0245,-0.6222,0.3509,-0.2274,0.1066,
8.200475,-0.0674,-0.3566,-0.8243,0.3509,-0.2274,0.1066,
8.218442,-0.0674,-0.3566,-0.8243,0.2714,-0.4129,0.0615,
8.264065,-0.0674,-0.3566,-0.8243,0.2714,-0.4129,0.0615,
8.265632,-0.2712,-0.2243,-0.4278,0.2714,-0.4129,0.0615,
8.283755,-0.2712,-0.2243,-0.4278,0.1486,-0.5400,0.1573,
8.329289,-0.2712,-0.2243,-0.4278,0.1486,-0.5400,0.1573,
8.330401,-0.3085,0.0745,-0.6512,0.1486,-0.5400,0.1573,
8.349346,-0.3085,0.0745,-0.6512,-0.0321,-0.8906,0.1953,
8.394317,-0.3085,0.0745,-0.6512,-0.0321,-0.8906,0.1953,
8.395420,-0.0545,0.0332,-0.7013,-0.0321,-0.8906,0.1953,
8.413746,-0.0545,0.0332,-0.7013,-0.1854,-1.0899,0.1468,
8.459867,-0.0545,0.0332,-0.7013,-0.1854,-1.0899,0.1468,
8.460652,0.1557,-0.3512,-0.4558,-0.1854,-1.0899,0.1468,
8.479306,0.1557,-0.3512,-0.4558,-0.2173,-1.1814,0.1184,
8.525451,0.1557,-0.3512,-0.4558,-0.2173,-1.1814,0.1184,
8.526523,0.6980,-0.0566,-0.4353,-0.2173,-1.1814,0.1184,
8.545213,0.6980,-0.0566,-0.4353,-0.2685,-1.2300,0.0878,
8.590504,0.6980,-0.0566,-0.4353,-0.2685,-1.2300,0.0878,
8.591206,1.3738,-0.1392,-0.0226,-0.2685,-1.2300,0.0878,
8.611507,1.3738,-0.1392,-0.0226,-0.4861,-1.1011,0.0244,
8.656515,1.3738,-0.1392,-0.0226,-0.4861,-1.1011,0.0244,
8.657435,0.2622,0.8661,-0.7019,-0.4861,-1.1011,0.0244,
8.676557,0.2622,0.8661,-0.7019,-0.3399,-0.8781,0.0800,
8.723026,0.2622,0.8661,-0.7019,-0.3399,-0.8781,0.0800,
8.724638,-1.5824,2.4515,-0.7097,-0.3399,-0.8781,0.0800,
8.741679,-1.5824,2.4515,-0.7097,-0.4510,-1.2162,-0.1249,
8.788629,-1.5824,2.4515,-0.7097,-0.4510,-1.2162,-0.1249,
8.790149,-0.4689,-1.2927,-1.2443,-0.4510,-1.2162,-0.1249,
8.807503,-0.4689,-1.2927,-1.2443,-0.7643,-0.6749,-0.1466,
8.852459,-0.4689,-1.2927,-1.2443,-0.7643,-0.6749,-0.1466,
8.853097,-0.3705,-0.4105,0.0848,-0.7643,-0.6749,-0.1466,
8.873265,-0.3705,-0.4105,0.0848,-0.6326,0.0055,-0.0457,
8.919857,-0.3705,-0.4105,0.0848,-0.6326,0.0055,-0.0457,
8.921179,-1.4622,0.7401,-0.4504,-0.6326,0.0055,-0.0457,
8.939014,-1.4622,0.7401,-0.4504,-0.6779,-0.3775,0.0367,
8.984622,-1.4622,0.7401,-0.4504,-0.6779,-0.3775,0.0367,
8.985841,-1.0653,-0.4382,-0.1742,-0.6779,-0.3775,0.0367,
9.004471,-1.0653,-0.4382,-0.1742,-0.8070,-0.4566,0.2172,
9.050569,-1.0653,-0.4382,-0.1742,-0.8070,-0.4566,0.2172,
9.051802,0.9865,-0.3547,0.4037,-0.8070,-0.4566,0.2172,
9.070793,0.9865,-0.3547,0.4037,-0.6901,-0.1127,0.2801,
9.116754,0.9865,-0.3547,0.4037,-0.6901,-0.1127,0.2801,
9.118433,0.5377,-0.8630,0.6936,-0.6901,-0.1127,0.2801,
9.135654,0.5377,-0.8630,0.6936,-0.3584,0.1468,0.0883,
9.181686,0.5377,-0.8630,0.6936,-0.3584,0.1468,0.0883,
9.182676,-0.3720,-1.1820,0.1714,-0.3584,0.1468,0.0883,
9.200227,-0.3720,-1.1820,0.1714,-0.2248,0.2970,0.0162,
9.247697,-0.3720,-1.1820,0.1714,-0.2248,0.2970,0.0162,
9.248693,-0.7502,-1.0368,0.6929,-0.2248,0.2970,0.0162,
9.267082,-0.7502,-1.0368,0.6929,0.0657,0.1706,0.0531,
9.311453,-0.7502,-1.0368,0.6929,0.0657,0.1706,0.0531,
9.313223,-0.4021,-1.2053,0.7328,0.0657,0.1706,0.0531,
9.332827,-0.4021,-1.2053,0.7328,0.3377,0.0351,0.1264,
9.380786,-0.4021,-1.2053,0.7328,0.3377,0.0351,0.1264,
9.382545,-0.1269,-0.7970,0.7904,0.3377,0.0351,0.1264,
9.397217,-0.1269,-0.7970,0.7904,0.4207,-0.0180,0.1749,
9.444982,-0.1269,-0.7970,0.7904,0.4207,-0.0180,0.1749,
9.446948,-0.1265,-0.8009,1.0851,0.4207,-0.0180,0.1749,
9.464046,-0.1265,-0.8009,1.0851,0.4835,-0.0538,0.1596,
9.508259,-0.1265,-0.8009,1.0851,0.4835,-0.0538,0.1596,
9.510257,0.0090,-0.3605,1.3934,0.4835,-0.0538,0.1596,
9.528589,0.0090,-0.3605,1.3934,0.5651,-0.0722,0.1684,
9.575074,0.0090,-0.3605,1.3934,0.5651,-0.0722,0.1684,
9.578029,-1.2893,2.3286,-0.6974,0.5651,-0.0722,0.1684,
9.593464,-1.2893,2.3286,-0.6974,0.1223,-0.3268,-0.1987,
9.641072,-1.2893,2.3286,-0.6974,0.1223,-0.3268,-0.1987,
9.642355,-0.0480,1.5209,-0.0271,0.1223,-0.3268,-0.1987,
9.659150,-0.0480,1.5209,-0.0271,0.3699,-0.5139,-0.0215,
9.703869,-0.0480,1.5209,-0.0271,0.3699,-0.5139,-0.0215,
9.704527,-0.4373,-1.4457,0.7247,0.3699,-0.5139,-0.0215,
9.723794,-0.4373,-1.4457,0.7247,0.9096,-0.3600,-0.4010,
9.770680,-0.4373,-1.4457,0.7247,0.9096,-0.3600,-0.4010,
9.771701,-2.1180,0.9820,-0.7442,0.9096,-0.3600,-0.4010,
9.789379,-2.1180,0.9820,-0.7442,0.9308,-0.9820,0.1445,
9.835643,-2.1180,0.9820,-0.7442,0.9308,-0.9820,0.1445,
9.837519,-0.6467,-0.7588,-1.3629,0.9308,-0.9820,0.1445,
9.855686,-0.6467,-0.7588,-1.3629,0.3798,-0.9467,0.0753,
9.901193,-0.6467,-0.7588,-1.3629,0.3798,-0.9467,0.0753,
9.902686,-0.8785,0.0425,-0.4691,0.3798,-0.9467,0.0753,
9.920280,-0.8785,0.0425,-0.4691,0.2993,-1.2361,0.0202,
9.966874,-0.8785,0.0425,-0.4691,0.2993,-1.2361,0.0202,
9.969541,0.0157,-0.1014,-0.5262,0.2993,-1.2361,0.0202,
9.986939,0.0157,-0.1014,-0.5262,0.1202,-1.1709,0.0942,
10.031315,0.0157,-0.1014,-0.5262,0.1202,-1.1709,0.0942,
10.032478,0.1743,-0.1083,-0.6735,0.1202,-1.1709,0.0942,
10.051480,0.1743,-0.1083,-0.6735,0.1463,-1.1733,0.0533,
10.097475,0.1743,-0.1083,-0.6735,0.1463,-1.1733,0.0533,
10.099054,0.1487,-0.1081,-0.5855,0.1463,-1.1733,0.0533,
10.116801,0.1487,-0.1081,-0.5855,0.0218,-1.1782,0.0886,
10.162781,0.1487,-0.1081,-0.5855,0.0218,-1.1782,0.0886,
10.164587,0.2633,-0.1566,-0.3109,0.0218,-1.1782,0.0886,
10.182961,0.2633,-0.1566,-0.3109,0.0208,-1.1351,0.1507,
10.230081,0.2633,-0.1566,-0.3109,0.0208,-1.1351,0.1507,
10.231915,0.8478,-0.0132,-0.1798,0.0208,-1.1351,0.1507,
10.248091,0.8478,-0.0132,-0.1798,-0.1203,-1.0049,0.1420,
10.295552,0.8478,-0.0132,-0.1798,-0.1203,-1.0049,0.1420,
10.297268,0.9760,0.1089,0.2276,-0.1203,-1.0049,0.1420,
10.313311,0.9760,0.1089,0.2276,-0.2453,-0.7868,0.0794,
10.359366,0.9760,0.1089,0.2276,-0.2453,-0.7868,0.0794,
10.361264,0.7386,-0.0843,0.1176,-0.2453,-0.7868,0.0794,
10.379654,0.7386,-0.0843,0.1176,-0.4076,-0.8512,0.0281,
10.424380,0.7386,-0.0843,0.1176,-0.4076,-0.8512,0.0281,
10.425471,0.4515,0.1389,-0.0995,-0.4076,-0.8512,0.0281,
10.444894,0.4515,0.1389,-0.0995,-0.4010,-0.7451,0.0111,
10.490772,0.4515,0.1389,-0.0995,-0.4010,-0.7451,0.0111,
10.491913,-1.4415,2.4946,-0.5457,-0.4010,-0.7451,0.0111,
10.510047,-1.4415,2.4946,-0.5457,-0.6025,-0.7613,0.0295,
10.556730,-1.4415,2.4946,-0.5457,-0.6025,-0.7613,0.0295,
10.558215,-1.2847,0.3669,-1.1163,-0.6025,-0.7613,0.0295,
10.576051,-1.2847,0.3669,-1.1163,-1.1594,-0.8289,0.0644,
10.620878,-1.2847,0.3669,-1.1163,-1.1594,-0.8289,0.0644,
10.621672,0.5336,-0.6439,0.6163,-1.1594,-0.8289,0.0644,
10.640510,0.5336,-0.6439,0.6163,-0.8795,0.0805,0.0771,
10.686655,0.5336,-0.6439,0.6163,-0.8795,0.0805,0.0771,
10.688593,0.4150,-0.1544,0.1809,-0.8795,0.0805,0.0771,
10.706473,0.4150,-0.1544,0.1809,-0.5828,0.2075,0.0145,
10.751498,0.4150,-0.1544,0.1809,-0.5828,0.2075,0.0145,
10.752677,-0.7966,-1.2440,0.0872,-0.5828,0.2075,0.0145,
10.771336,-0.7966,-1.2440,0.0872,-0.6251,0.1781,0.1698,
10.817078,-0.7966,-1.2440,0.0872,-0.6251,0.1781,0.1698,
10.817800,-0.8379,-0.8251,0.8070,-0.6251,0.1781,0.1698,
10.837557,-0.8379,-0.8251,0.8070,-0.3680,-0.0174,0.1147,
10.883315,-0.8379,-0.8251,0.8070,-0.3680,-0.0174,0.1147,
10.884397,-0.2444,-0.4618,0.6294,-0.3680,-0.0174,0.1147,
10.902795,-0.2444,-0.4618,0.6294,-0.2196,-0.1147,0.1602,
10.948716,-0.2444,-0.4618,0.6294,-0.2196,-0.1147,0.1602,
10.949817,0.4591,-0.8104,0.7347,-0.2196,-0.1147,0.1602,
10.968081,0.4591,-0.8104,0.7347,-0.0551,0.1498,0.1194,
11.014548,0.4591,-0.8104,0.7347,-0.0551,0.1498,0.1194,
11.015828,0.2898,-1.0283,1.1162,-0.0551,0.1498,0.1194,
11.034269,0.2898,-1.0283,1.1162,0.1205,0.2702,0.0706,
11.080739,0.2898,-1.0283,1.1162,0.1205,0.2702,0.0706,
11.082311,-0.1440,-1.1743,1.1784,0.1205,0.2702,0.0706,
11.099643,-0.1440,-1.1743,1.1784,0.3117,0.2976,0.0765,
11.145521,-0.1440,-1.1743,1.1784,0.3117,0.2976,0.0765,
11.146606,-0.2953,-1.1202,1.3612,0.3117,0.2976,0.0765,
11.164964,-0.2953,-1.1202,1.3612,0.4754,0.1999,-0.0055,
11.210195,-0.2953,-1.1202,1.3612,0.4754,0.1999,-0.0055,
11.210972,-0.1137,-0.6045,1.2539,0.4754,0.1999,-0.0055,
11.229756,-0.1137,-0.6045,1.2539,0.4505,0.1292,-0.0304,
11.276401,-0.1137,-0.6045,1.2539,0.4505,0.1292,-0.0304,
11.277894,0.7478,-1.8932,1.4119,0.4505,0.1292,-0.0304,
11.295845,0.7478,-1.8932,1.4119,0.7720,0.1607,-0.1965,
11.341804,0.7478,-1.8932,1.4119,0.7720,0.1607,-0.1965,
11.342800,-1.2826,5.0280,0.7470,0.7720,0.1607,-0.1965,
11.361394,-1.2826,5.0280,0.7470,1.0168,-0.2375,-0.3877,
11.407371,-1.2826,5.0280,0.7470,1.0168,-0.2375,-0.3877,
11.408442,-0.2721,-0.4566,-1.2648,1.0168,-0.2375,-0.3877,
11.426615,-0.2721,-0.4566,-1.2648,1.2611,0.1596,-0.1294,
11.473879,-0.2721,-0.4566,-1.2648,1.2611,0.1596,-0.1294,
11.475522,-0.3768,0.6275,-0.5220,1.2611,0.1596,-0.1294,
11.492400,-0.3768,0.6275,-0.5220,1.0910,0.0221,-0.3384,
11.536719,-0.3768,0.6275,-0.5220,1.0910,0.0221,-0.3384,
11.537269,-0.5075,0.2753,-0.5422,1.0910,0.0221,-0.3384,
11.557767,-0.5075,0.2753,-0.5422,0.5817,0.0334,-0.0350,
11.604072,-0.5075,0.2753,-0.5422,0.5817,0.0334,-0.0350,
11.605290,-0.1963,-0.4615,0.0846,0.5817,0.0334,-0.0350,
11.622698,-0.1963,-0.4615,0.0846,0.5121,-0.2676,-0.0171,
11.669389,-0.1963,-0.4615,0.0846,0.5121,-0.2676,-0.0171,
11.671059,-0.0026,-0.2736,-0.7818,0.5121,-0.2676,-0.0171,
11.689097,-0.0026,-0.2736,-0.7818,0.2671,-0.1113,0.0170,
11.734138,-0.0026,-0.2736,-0.7818,0.2671,-0.1113,0.0170,
11.734903,-0.3324,-0.4055,-0.4616,0.2671,-0.1113,0.0170,
11.754227,-0.3324,-0.4055,-0.4616,0.2066,-0.2433,0.0915,
11.800904,-0.3324,-0.4055,-0.4616,0.2066,-0.2433,0.0915,
11.801759,-0.3073,0.1688,-0.5570,0.2066,-0.2433,0.0915,
11.821116,-0.3073,0.1688,-0.5570,0.0183,-0.3610,0.1342,
11.865480,-0.3073,0.1688,-0.5570,0.0183,-0.3610,0.1342,
11.867025,-0.0598,0.2822,-0.7536,0.0183,-0.3610,0.1342,
11.884555,-0.0598,0.2822,-0.7536,-0.1220,-0.4000,0.1440,
11.930664,-0.0598,0.2822,-0.7536,-0.1220,-0.4000,0.1440,
11.931264,0.0534,0.3530,-0.7756,-0.1220,-0.4000,0.1440,
11.951061,0.0534,0.3530,-0.7756,-0.2291,-0.3855,0.0331,
11.997230,0.0534,0.3530,-0.7756,-0.2291,-0.3855,0.0331,
11.998104,0.1306,-0.0161,-0.2107,-0.2291,-0.3855,0.0331,
12.015718,0.1306,-0.0161,-0.2107,-0.4125,-0.4873,0.0753,
12.062098,0.1306,-0.0161,-0.2107,-0.4125,-0.4873,0.0753,
12.063830,0.5122,-0.1142,0.3020,-0.4125,-0.4873,0.0753,
12.081320,0.5122,-0.1142,0.3020,-0.3122,-0.6849,0.1665,
12.127635,0.5122,-0.1142,0.3020,-0.3122,-0.6849,0.1665,
12.129303,1.2638,-0.1625,0.0130,-0.3122,-0.6849,0.1665,
12.146935,1.2638,-0.1625,0.0130,-0.4400,-0.6057,0.0605,
12.193689,1.2638,-0.1625,0.0130,-0.4400,-0.6057,0.0605,
12.195277,0.7572,-0.4518,0.2642,-0.4400,-0.6057,0.0605,
12.212459,0.7572,-0.4518,0.2642,-0.6822,-0.5594,-0.0162,
12.259552,0.7572,-0.4518,0.2642,-0.6822,-0.5594,-0.0162,
12.261446,-0.3447,0.9345,-0.6075,-0.6822,-0.5594,-0.0162,
12.277743,-0.3447,0.9345,-0.6075,-0.7602,-0.2900,0.0638,
12.324021,-0.3447,0.9345,-0.6075,-0.7602,-0.2900,0.0638,
12.324780,-0.5843,0.4771,-0.6435,-0.7602,-0.2900,0.0638,
12.344566,-0.5843,0.4771,-0.6435,-0.8115,-0.4617,0.1028,
12.389960,-0.5843,0.4771,-0.6435,-0.8115,-0.4617,0.1028,
12.390945,0.0465,-0.4446,-0.5008,-0.8115,-0.4617,0.1028,
12.409197,0.0465,-0.4446,-0.5008,-0.7666,-0.0854,-0.0693,
12.453190,0.0465,-0.4446,-0.5008,-0.7666,-0.0854,-0.0693,
12.453672,0.4547,0.0733,-0.1412,-0.7666,-0.0854,-0.0693,
12.474911,0.4547,0.0733,-0.1412,-0.4478,0.5075,-0.2008,
12.520179,0.4547,0.0733,-0.1412,-0.4478,0.5075,-0.2008,
12.521129,-0.4071,-0.6046,-0.2650,-0.4478,0.5075,-0.2008,
12.539466,-0.4071,-0.6046,-0.2650,-0.2911,0.6353,-0.0449,
12.587493,-0.4071,-0.6046,-0.2650,-0.2911,0.6353,-0.0449,
12.588743,-0.5007,-0.4792,0.2913,-0.2911,0.6353,-0.0449,
12.605240,-0.5007,-0.4792,0.2913,-0.2585,0.5116,-0.1067,
12.651411,-0.5007,-0.4792,0.2913,-0.2585,0.5116,-0.1067,
12.652711,-0.4006,-0.4417,0.4039,-0.2585,0.5116,-0.1067,
12.671384,-0.4006,-0.4417,0.4039,-0.1587,0.3439,0.0066,
12.718748,-0.4006,-0.4417,0.4039,-0.1587,0.3439,0.0066,
12.720662,-0.1697,-0.7547,0.5114,-0.1587,0.3439,0.0066,
12.737182,-0.1697,-0.7547,0.5114,-0.0956,0.2598,0.1066,
12.783410,-0.1697,-0.7547,0.5114,-0.0956,0.2598,0.1066,
12.786038,0.1355,-0.6332,0.7205,-0.0956,0.2598,0.1066,
12.804015,0.1355,-0.6332,0.7205,0.0568,0.3494,0.1126,
12.849427,0.1355,-0.6332,0.7205,0.0568,0.3494,0.1126,
12.850500,-0.0100,-0.3255,0.6165,0.0568,0.3494,0.1126,
12.868361,-0.0100,-0.3255,0.6165,0.0663,0.3758,0.1350,
12.913544,-0.0100,-0.3255,0.6165,0.0663,0.3758,0.1350,
12.914268,-0.2879,-0.2329,0.8013,0.0663,0.3758,0.1350,
12.932289,-0.2879,-0.2329,0.8013,0.0429,0.2841,0.1738,
12.978255,-0.2879,-0.2329,0.8013,0.0429,0.2841,0.1738,
12.978967,0.1909,-0.5059,1.1956,0.0429,0.2841,0.1738,
12.998443,0.1909,-0.5059,1.1956,0.1170,0.2926,0.2135,
13.044802,0.1909,-0.5059,1.1956,0.1170,0.2926,0.2135,
13.046356,0.6647,-0.8382,1.5302,0.1170,0.2926,0.2135,
13.063490,0.6647,-0.8382,1.5302,0.2185,0.3415,0.2228,
13.110903,0.6647,-0.8382,1.5302,0.2185,0.3415,0.2228,
13.112773,0.7770,-1.1690,2.0439,0.2185,0.3415,0.2228,
13.129490,0.7770,-1.1690,2.0439,0.2747,0.2750,0.2233,
13.174582,0.7770,-1.1690,2.0439,0.2747,0.2750,0.2233,
13.175289,-0.9718,0.2853,2.2122,0.2747,0.2750,0.2233,
13.194451,-0.9718,0.2853,2.2122,-0.0006,-0.3233,0.0324,
13.241680,-0.9718,0.2853,2.2122,-0.0006,-0.3233,0.0324,
13.243992,-1.3839,3.2692,-0.3823,-0.0006,-0.3233,0.0324,
13.259927,-1.3839,3.2692,-0.3823,0.2111,-0.7979,0.4840,
13.305948,-1.3839,3.2692,-0.3823,0.2111,-0.7979,0.4840,
13.306981,0.8150,2.0540,-0.2205,0.2111,-0.7979,0.4840,
13.326423,0.8150,2.0540,-0.2205,0.2049,-0.1297,0.3235,
13.370743,0.8150,2.0540,-0.2205,0.2049,-0.1297,0.3235,
13.371323,0.9265,2.7268,-3.2614,0.2049,-0.1297,0.3235,
13.391242,0.9265,2.7268,-3.2614,-0.6040,0.2648,0.2792,
13.437028,0.9265,2.7268,-3.2614,-0.6040,0.2648,0.2792,
13.438603,-0.3819,-3.2908,-2.2837,-0.6040,0.2648,0.2792,
13.457256,-0.3819,-3.2908,-2.2837,-1.3766,1.1362,0.5927,
13.503398,-0.3819,-3.2908,-2.2837,-1.3766,1.1362,0.5927,
13.504790,-0.6969,-7.7221,0.5011,-1.3766,1.1362,0.5927,
13.523081,-0.6969,-7.7221,0.5011,-0.4383,1.2092,0.2341,
13.567801,-0.6969,-7.7221,0.5011,-0.4383,1.2092,0.2341,
13.568613,1.0123,4.9076,3.3610,-0.4383,1.2092,0.2341,
13.587066,1.0123,4.9076,3.3610,0.4236,0.5075,-0.1561,
13.633992,1.0123,4.9076,3.3610,0.4236,0.5075,-0.1561,
13.635855,0.4314,-0.9583,1.7998,0.4236,0.5075,-0.1561,
13.655817,0.4314,-0.9583,1.7998,-0.2579,0.7950,0.0232,
13.699030,0.4314,-0.9583,1.7998,-0.2579,0.7950,0.0232,
13.700088,-1.1341,-2.9868,0.1327,-0.2579,0.7950,0.0232,
13.720385,-1.1341,-2.9868,0.1327,-0.1126,0.4256,-0.3012,
13.764060,-1.1341,-2.9868,0.1327,-0.1126,0.4256,-0.3012,
13.765813,-0.2400,6.9132,-4.2176,-0.1126,0.4256,-0.3012,
13.784897,-0.2400,6.9132,-4.2176,-0.0522,-0.7708,0.4384,
13.830504,-0.2400,6.9132,-4.2176,-0.0522,-0.7708,0.4384,
13.832547,-0.1652,-0.5909,-2.3767,-0.0522,-0.7708,0.4384,
13.849507,-0.1652,-0.5909,-2.3767,0.0707,-1.1715,-0.0631,
13.896401,-0.1652,-0.5909,-2.3767,0.0707,-1.1715,-0.0631,
13.898373,-0.3561,0.2509,-3.8098,0.0707,-1.1715,-0.0631,
13.915086,-0.3561,0.2509,-3.8098,-0.2848,-1.1373,-0.0576,
13.961136,-0.3561,0.2509,-3.8098,-0.2848,-1.1373,-0.0576,
13.961970,-0.5464,-2.1025,-1.5401,-0.2848,-1.1373,-0.0576,
13.981929,-0.5464,-2.1025,-1.5401,0.0037,0.1208,0.4084,
14.026998,-0.5464,-2.1025,-1.5401,0.0037,0.1208,0.4084,
14.029536,0.3499,-2.8650,-1.4537,0.0037,0.1208,0.4084,
14.047538,0.3499,-2.8650,-1.4537,-0.3674,1.0551,0.6364,
14.091011,0.3499,-2.8650,-1.4537,-0.3674,1.0551,0.6364,
14.092708,-1.0458,2.7743,2.0360,-0.3674,1.0551,0.6364,
14.111180,-1.0458,2.7743,2.0360,-0.1388,0.9047,0.3077,
14.159653,-1.0458,2.7743,2.0360,-0.1388,0.9047,0.3077,
14.160797,0.6709,0.9214,0.0622,-0.1388,0.9047,0.3077,
14.176601,0.6709,0.9214,0.0622,-0.0648,0.7124,-0.1075,
14.223822,0.6709,0.9214,0.0622,-0.0648,0.7124,-0.1075,
14.225764,-0.6002,-1.7256,0.2888,-0.0648,0.7124,-0.1075,
14.242714,-0.6002,-1.7256,0.2888,0.2631,0.9911,-0.4126,
14.288536,-0.6002,-1.7256,0.2888,0.2631,0.9911,-0.4126,
14.289345,-1.5837,-0.4995,0.3569,0.2631,0.9911,-0.4126,
14.307560,-1.5837,-0.4995,0.3569,0.1312,0.2216,-0.3115,
14.354231,-1.5837,-0.4995,0.3569,0.1312,0.2216,-0.3115,
14.355311,-1.1277,-0.9529,0.9999,0.1312,0.2216,-0.3115,
14.372713,-1.1277,-0.9529,0.9999,0.1825,-0.5698,-0.2007,
14.419988,-1.1277,-0.9529,0.9999,0.1825,-0.5698,-0.2007,
14.421366,0.1276,-1.5918,1.4588,0.1825,-0.5698,-0.2007,
14.439539,0.1276,-1.5918,1.4588,0.4148,-0.3419,-0.3676,
14.485486,0.1276,-1.5918,1.4588,0.4148,-0.3419,-0.3676,
14.486369,-0.5441,-0.5614,1.7255,0.4148,-0.3419,-0.3676,
14.504621,-0.5441,-0.5614,1.7255,0.2795,-0.3044,-0.2923,
14.550809,-0.5441,-0.5614,1.7255,0.2795,-0.3044,-0.2923,
14.551713,-1.2184,3.5102,1.6780,0.2795,-0.3044,-0.2923,
14.569992,-1.2184,3.5102,1.6780,-0.1816,-1.1648,-0.2546,
14.615204,-1.2184,3.5102,1.6780,-0.1816,-1.1648,-0.2546,
14.617226,0.8241,-0.2616,-0.2455,-0.1816,-1.1648,-0.2546,
14.636516,0.8241,-0.2616,-0.2455,0.5185,-0.0603,-0.0273,
14.680943,0.8241,-0.2616,-0.2455,0.5185,-0.0603,-0.0273,
14.682409,0.6693,0.6196,0.1636,0.5185,-0.0603,-0.0273,
14.700973,0.6693,0.6196,0.1636,1.1246,-0.3845,-0.4768,
14.746353,0.6693,0.6196,0.1636,1.1246,-0.3845,-0.4768,
14.748088,-1.2708,0.1481,-2.4556,1.1246,-0.3845,-0.4768,
14.766351,-1.2708,0.1481,-2.4556,0.7078,-0.3809,-0.0814,
14.813494,-1.2708,0.1481,-2.4556,0.7078,-0.3809,-0.0814,
14.815140,0.4117,-0.8307,-1.1655,0.7078,-0.3809,-0.0814,
14.832359,0.4117,-0.8307,-1.1655,0.7847,-0.2546,-0.0589,
14.877619,0.4117,-0.8307,-1.1655,0.7847,-0.2546,-0.0589,
14.878565,0.6221,-0.1154,-1.8206,0.7847,-0.2546,-0.0589,
14.897494,0.6221,-0.1154,-1.8206,0.5983,0.1177,-0.2897,
14.945209,0.6221,-0.1154,-1.8206,0.5983,0.1177,-0.2897,
14.946680,0.1484,0.1807,-0.3886,0.5983,0.1177,-0.2897,
14.963331,0.1484,0.1807,-0.3886,0.5573,0.2275,-0.0006,
15.009451,0.1484,0.1807,-0.3886,0.5573,0.2275,-0.0006,
15.011255,0.4410,-0.4456,-1.1645,0.5573,0.2275,-0.0006,
15.028872,0.4410,-0.4456,-1.1645,0.5527,0.2448,0.0664,
15.073829,0.4410,-0.4456,-1.1645,0.5527,0.2448,0.0664,
15.075372,0.1852,-0.2768,-0.9800,0.5527,0.2448,0.0664,
15.093749,0.1852,-0.2768,-0.9800,0.3735,0.3206,0.0348,
15.138921,0.1852,-0.2768,-0.9800,0.3735,0.3206,0.0348,
15.140048,-0.6259,0.3290,-0.0094,0.3735,0.3206,0.0348,
15.159357,-0.6259,0.3290,-0.0094,-0.0490,-0.2124,0.1249,
15.204713,-0.6259,0.3290,-0.0094,-0.0490,-0.2124,0.1249,
15.206353,0.3761,0.1101,-0.2972,-0.0490,-0.2124,0.1249,
15.224448,0.3761,0.1101,-0.2972,-0.2724,-0.5276,0.2718,
15.270263,0.3761,0.1101,-0.2972,-0.2724,-0.5276,0.2718,
15.271726,1.2951,0.0587,-0.6113,-0.2724,-0.5276,0.2718,
15.290064,1.2951,0.0587,-0.6113,-0.3535,-0.3034,0.1691,
15.335962,1.2951,0.0587,-0.6113,-0.3535,-0.3034,0.1691,
15.337727,1.2283,0.6727,-0.2126,-0.3535,-0.3034,0.1691,
15.356550,1.2283,0.6727,-0.2126,-0.6419,-0.1106,0.0064,
15.402056,1.2283,0.6727,-0.2126,-0.6419,-0.1106,0.0064,
15.403691,-0.6709,1.3377,0.0604,-0.6419,-0.1106,0.0064,
15.421642,-0.6709,1.3377,0.0604,-0.6796,-0.0843,-0.0812,
15.467071,-0.6709,1.3377,0.0604,-0.6796,-0.0843,-0.0812,
15.467966,-1.2128,-0.5726,-0.8800,-0.6796,-0.0843,-0.0812,
15.486474,-1.2128,-0.5726,-0.8800,-0.8454,-0.2828,-0.1486,
15.531909,-1.2128,-0.5726,-0.8800,-0.8454,-0.2828,-0.1486,
15.533023,-1.0110,-0.9758,-0.1130,-0.8454,-0.2828,-0.1486,
15.552001,-1.0110,-0.9758,-0.1130,-0.5983,-0.0034,-0.0421,
15.598177,-1.0110,-0.9758,-0.1130,-0.5983,-0.0034,-0.0421,
15.599659,-0.2218,0.7843,-0.3163,-0.5983,-0.0034,-0.0421,
15.621738,-0.2218,0.7843,-0.3163,-0.5202,0.4195,0.0197,
15.663750,-0.2218,0.7843,-0.3163,-0.5202,0.4195,0.0197,
15.665357,-0.8098,-0.3718,-0.1682,-0.5202,0.4195,0.0197,
15.683760,-0.8098,-0.3718,-0.1682,-0.5470,0.4837,0.1121,
15.728344,-0.8098,-0.3718,-0.1682,-0.5470,0.4837,0.1121,
15.730319,-0.9002,-0.3988,0.1012,-0.5470,0.4837,0.1121,
15.749147,-0.9002,-0.3988,0.1012,-0.4971,0.3793,0.0418,
15.793965,-0.9002,-0.3988,0.1012,-0.4971,0.3793,0.0418,
15.795393,-0.8524,-0.2835,0.3567,-0.4971,0.3793,0.0418,
15.814455,-0.8524,-0.2835,0.3567,-0.4097,-0.0168,0.2392,
15.860719,-0.8524,-0.2835,0.3567,-0.4097,-0.0168,0.2392,
15.862559,-0.4043,-0.5938,0.3317,-0.4097,-0.0168,0.2392,
15.879649,-0.4043,-0.5938,0.3317,-0.4412,-0.0215,0.2639,
15.924557,-0.4043,-0.5938,0.3317,-0.4412,-0.0215,0.2639,
15.925695,0.4325,-0.5831,0.9388,-0.4412,-0.0215,0.2639,
15.944778,0.4325,-0.5831,0.9388,-0.2556,0.2042,0.3193,
15.991139,0.4325,-0.5831,0.9388,-0.2556,0.2042,0.3193,
15.991981,0.3583,-0.9179,0.9691,-0.2556,0.2042,0.3193,
16.011581,0.3583,-0.9179,0.9691,-0.0528,0.4336,0.1651,
16.057388,0.3583,-0.9179,0.9691,-0.0528,0.4336,0.1651,
16.058145,-0.1745,-1.0795,1.1708,-0.0528,0.4336,0.1651,
16.075980,-0.1745,-1.0795,1.1708,0.1562,0.4722,0.0747,
16.120833,-0.1745,-1.0795,1.1708,0.1562,0.4722,0.0747,
16.121467,-0.1664,-1.0681,1.4286,0.1562,0.4722,0.0747,
16.140990,-0.1664,-1.0681,1.4286,0.3123,0.3827,0.0512,
16.187827,-0.1664,-1.0681,1.4286,0.3123,0.3827,0.0512,
16.189121,0.2299,-0.9869,1.4805,0.3123,0.3827,0.0512,
16.206286,0.2299,-0.9869,1.4805,0.4088,0.3844,0.0351,
16.253158,0.2299,-0.9869,1.4805,0.4088,0.3844,0.0351,
16.254336,0.2656,-1.8428,2.3240,0.4088,0.3844,0.0351,
16.271574,0.2656,-1.8428,2.3240,0.7796,0.3123,0.0732,
16.318603,0.2656,-1.8428,2.3240,0.7796,0.3123,0.0732,
16.320002,-1.5415,6.2475,1.9926,0.7796,0.3123,0.0732,
16.337336,-1.5415,6.2475,1.9926,1.3648,-0.9181,-0.2805,
16.385070,-1.5415,6.2475,1.9926,1.3648,-0.9181,-0.2805,
16.386641,0.4704,0.3845,-0.7982,1.3648,-0.9181,-0.2805,
16.403964,0.4704,0.3845,-0.7982,1.1619,-0.6744,0.0362,
16.448893,0.4704,0.3845,-0.7982,1.1619,-0.6744,0.0362,
16.449917,-0.7557,-1.5960,-1.4812,1.1619,-0.6744,0.0362,
16.470074,-0.7557,-1.5960,-1.4812,1.0198,-0.6781,-0.2469,
16.515494,-0.7557,-1.5960,-1.4812,1.0198,-0.6781,-0.2469,
16.517890,-0.6961,-0.6854,-0.7876,1.0198,-0.6781,-0.2469,
16.535516,-0.6961,-0.6854,-0.7876,0.4380,-0.5654,-0.0837,
16.580754,-0.6961,-0.6854,-0.7876,0.4380,-0.5654,-0.0837,
16.582380,0.7232,-0.8214,-1.2417,0.4380,-0.5654,-0.0837,
16.599445,0.7232,-0.8214,-1.2417,0.2117,-0.2453,0.0157,
16.646340,0.7232,-0.8214,-1.2417,0.2117,-0.2453,0.0157,
16.648505,1.1435,-0.0473,-0.3598,0.2117,-0.2453,0.0157,
16.665745,1.1435,-0.0473,-0.3598,0.3021,0.2767,0.1568,
16.710681,1.1435,-0.0473,-0.3598,0.3021,0.2767,0.1568,
16.712492,0.6933,0.0280,-0.5368,0.3021,0.2767,0.1568,
16.731497,0.6933,0.0280,-0.5368,0.2007,0.3010,0.0677,
16.777953,0.6933,0.0280,-0.5368,0.2007,0.3010,0.0677,
16.779839,-0.1696,0.2011,-0.8117,0.2007,0.3010,0.0677,
16.796738,-0.1696,0.2011,-0.8117,0.0513,0.1521,0.0015,
16.841832,-0.1696,0.2011,-0.8117,0.0513,0.1521,0.0015,
16.842622,-0.0638,0.1652,-0.9508,0.0513,0.1521,0.0015,
16.861668,-0.0638,0.1652,-0.9508,-0.0371,-0.0831,-0.0510,
16.907868,-0.0638,0.1652,-0.9508,-0.0371,-0.0831,-0.0510,
16.909759,0.2798,0.2176,-1.0603,-0.0371,-0.0831,-0.0510,
16.927635,0.2798,0.2176,-1.0603,-0.1197,-0.3793,-0.0820,
16.973791,0.2798,0.2176,-1.0603,-0.1197,-0.3793,-0.0820,
16.975430,0.8457,-0.3437,-0.5380,-0.1197,-0.3793,-0.0820,
16.992660,0.8457,-0.3437,-0.5380,-0.2621,-0.4157,-0.0325,
17.038575,0.8457,-0.3437,-0.5380,-0.2621,-0.4157,-0.0325,
17.039390,1.2833,-0.7193,-0.1742,-0.2621,-0.4157,-0.0325,
17.058358,1.2833,-0.7193,-0.1742,-0.3807,-0.3774,-0.0405,
17.102555,1.2833,-0.7193,-0.1742,-0.3807,-0.3774,-0.0405,
17.103709,1.1542,1.1876,-0.6645,-0.3807,-0.3774,-0.0405,
17.122467,1.1542,1.1876,-0.6645,-0.6423,-0.0560,0.1715,
17.168707,1.1542,1.1876,-0.6645,-0.6423,-0.0560,0.1715,
17.170544,-0.7795,0.6748,-0.5690,-0.6423,-0.0560,0.1715,
17.188465,-0.7795,0.6748,-0.5690,-0.7340,-0.2689,0.3056,
17.234730,-0.7795,0.6748,-0.5690,-0.7340,-0.2689,0.3056,
17.236245,-0.8540,-1.3946,-0.3052,-0.7340,-0.2689,0.3056,
17.253932,-0.8540,-1.3946,-0.3052,-0.8322,0.2381,0.2485,
17.301397,-0.8540,-1.3946,-0.3052,-0.8322,0.2381,0.2485,
17.303130,-0.4584,1.3458,1.0763,-0.8322,0.2381,0.2485,
17.321361,-0.4584,1.3458,1.0763,-0.4847,0.5478,0.2121,
17.365508,-0.4584,1.3458,1.0763,-0.4847,0.5478,0.2121,
17.366662,-0.2983,-0.1429,0.1953,-0.4847,0.5478,0.2121,
17.387269,-0.2983,-0.1429,0.1953,-0.3244,0.7807,0.1620,
17.431325,-0.2983,-0.1429,0.1953,-0.3244,0.7807,0.1620,
17.432026,-0.8417,-0.5728,0.2634,-0.3244,0.7807,0.1620,
17.450037,-0.8417,-0.5728,0.2634,-0.3580,0.8586,0.1081,
17.496819,-0.8417,-0.5728,0.2634,-0.3580,0.8586,0.1081,
17.498009,-0.2638,-0.2123,0.3587,-0.3580,0.8586,0.1081,
17.516817,-0.2638,-0.2123,0.3587,-0.2010,0.7662,0.1413,
17.561558,-0.2638,-0.2123,0.3587,-0.2010,0.7662,0.1413,
17.562502,-0.1233,-0.4063,0.1555,-0.2010,0.7662,0.1413,
17.582591,-0.1233,-0.4063,0.1555,-0.1420,0.8876,0.0903,
17.628051,-0.1233,-0.4063,0.1555,-0.1420,0.8876,0.0903,
17.629387,-0.5927,-0.2430,0.4081,-0.1420,0.8876,0.0903,
17.646804,-0.5927,-0.2430,0.4081,-0.1109,0.7190,0.0670,
17.694822,-0.5927,-0.2430,0.4081,-0.1109,0.7190,0.0670,
17.696827,-0.7700,-0.3174,0.5631,-0.1109,0.7190,0.0670,
17.713395,-0.7700,-0.3174,0.5631,-0.0742,0.5037,0.1008,
17.759438,-0.7700,-0.3174,0.5631,-0.0742,0.5037,0.1008,
17.760233,-0.5686,-0.4889,0.5985,-0.0742,0.5037,0.1008,
17.779326,-0.5686,-0.4889,0.5985,-0.0368,0.3396,0.0171,
17.824744,-0.5686,-0.4889,0.5985,-0.0368,0.3396,0.0171,
17.826077,-0.6840,-0.6268,0.7733,-0.0368,0.3396,0.0171,
17.843625,-0.6840,-0.6268,0.7733,-0.0043,0.2138,0.0148,
17.888735,-0.6840,-0.6268,0.7733,-0.0043,0.2138,0.0148,
17.890570,-0.7083,-0.3182,1.0611,-0.0043,0.2138,0.0148,
17.909535,-0.7083,-0.3182,1.0611,-0.0386,0.0945,-0.0415,
17.955291,-0.7083,-0.3182,1.0611,-0.0386,0.0945,-0.0415,
17.957006,-0.5024,-0.1651,1.7745,-0.0386,0.0945,-0.0415,
17.974460,-0.5024,-0.1651,1.7745,0.1237,-0.0770,-0.0884,
18.020010,-0.5024,-0.1651,1.7745,0.1237,-0.0770,-0.0884,
18.021196,0.0870,-0.9408,1.6899,0.1237,-0.0770,-0.0884,
18.039221,0.0870,-0.9408,1.6899,0.3462,-0.0855,-0.0324,
18.085563,0.0870,-0.9408,1.6899,0.3462,-0.0855,-0.0324,
18.086861,0.7127,-2.3236,2.4129,0.3462,-0.0855,-0.0324,
18.105744,0.7127,-2.3236,2.4129,0.7808,0.2749,-0.1403,
18.151644,0.7127,-2.3236,2.4129,0.7808,0.2749,-0.1403,
18.152567,-0.4050,5.0908,-1.3324,0.7808,0.2749,-0.1403,
18.170711,-0.4050,5.0908,-1.3324,0.9201,-0.4166,-0.4172,
18.217800,-0.4050,5.0908,-1.3324,0.9201,-0.4166,-0.4172,
18.218800,1.1328,1.8621,-2.6122,0.9201,-0.4166,-0.4172,
18.236007,1.1328,1.8621,-2.6122,1.1168,1.1064,0.3525,
18.282825,1.1328,1.8621,-2.6122,1.1168,1.1064,0.3525,
18.283949,0.2128,0.1173,-0.6381,1.1168,1.1064,0.3525,
18.302815,0.2128,0.1173,-0.6381,0.9853,0.3532,0.0573,
18.347873,0.2128,0.1173,-0.6381,0.9853,0.3532,0.0573,
18.348581,-0.7993,-1.5422,-1.2309,0.9853,0.3532,0.0573,
18.366943,-0.7993,-1.5422,-1.2309,0.4326,0.0870,-0.0816,
18.413088,-0.7993,-1.5422,-1.2309,0.4326,0.0870,-0.0816,
18.414401,-0.4578,-0.7331,-1.4455,0.4326,0.0870,-0.0816,
18.433295,-0.4578,-0.7331,-1.4455,0.1491,0.0702,0.0683,
18.478392,-0.4578,-0.7331,-1.4455,0.1491,0.0702,0.0683,
18.480528,0.1057,0.3871,-1.3614,0.1491,0.0702,0.0683,
18.498632,0.1057,0.3871,-1.3614,0.0646,-0.0739,0.0622,
18.543957,0.1057,0.3871,-1.3614,0.0646,-0.0739,0.0622,
18.545626,-0.2463,-0.7022,-0.6922,0.0646,-0.0739,0.0622,
18.563373,-0.2463,-0.7022,-0.6922,0.0696,-0.2961,0.1151,
18.610209,-0.2463,-0.7022,-0.6922,0.0696,-0.2961,0.1151,
18.612363,0.0073,-0.0201,-0.0299,0.0696,-0.2961,0.1151,
18.628590,0.0073,-0.0201,-0.0299,0.0577,-0.5559,0.0945,
18.677060,0.0073,-0.0201,-0.0299,0.0577,-0.5559,0.0945,
18.677844,0.8153,-0.1805,-0.2734,0.0577,-0.5559,0.0945,
18.695096,0.8153,-0.1805,-0.2734,-0.0444,-0.4797,0.1323,
18.742056,0.8153,-0.1805,-0.2734,-0.0444,-0.4797,0.1323,
18.743009,1.2939,-0.3079,-0.1845,-0.0444,-0.4797,0.1323,
18.760843,1.2939,-0.3079,-0.1845,-0.0446,-0.2524,0.0385,
18.807441,1.2939,-0.3079,-0.1845,-0.0446,-0.2524,0.0385,
18.808969,0.9521,-0.2335,-0.3395,-0.0446,-0.2524,0.0385,
18.826499,0.9521,-0.2335,-0.3395,-0.1063,-0.1206,-0.1164,
18.870877,0.9521,-0.2335,-0.3395,-0.1063,-0.1206,-0.1164,
18.871600,0.9085,-0.1881,-0.0110,-0.1063,-0.1206,-0.1164,
18.892080,0.9085,-0.1881,-0.0110,-0.1009,-0.1729,-0.1550,
18.938808,0.9085,-0.1881,-0.0110,-0.1009,-0.1729,-0.1550,
18.939448,1.0889,-0.0229,-0.3555,-0.1009,-0.1729,-0.1550,
18.956763,1.0889,-0.0229,-0.3555,-0.1480,-0.3366,-0.1691,
19.003893,1.0889,-0.0229,-0.3555,-0.1480,-0.3366,-0.1691,
19.005342,1.5259,0.2689,-0.2127,-0.1480,-0.3366,-0.1691,
19.022160,1.5259,0.2689,-0.2127,-0.3679,-0.4027,-0.2065,
19.068634,1.5259,0.2689,-0.2127,-0.3679,-0.4027,-0.2065,
19.069411,-0.2380,2.7543,-0.7823,-0.3679,-0.4027,-0.2065,
19.087017,-0.2380,2.7543,-0.7823,-0.5027,-0.2437,-0.0774,
19.134730,-0.2380,2.7543,-0.7823,-0.5027,-0.2437,-0.0774,
19.135683,-0.3324,0.3003,-1.2093,-0.5027,-0.2437,-0.0774,
19.153069,-0.3324,0.3003,-1.2093,-0.6206,-0.2233,-0.0197,
19.199522,-0.3324,0.3003,-1.2093,-0.6206,-0.2233,-0.0197,
19.200955,-1.0760,-2.4385,-0.2845,-0.6206,-0.2233,-0.0197,
19.218319,-1.0760,-2.4385,-0.2845,-0.5829,0.5466,0.1959,
19.264935,-1.0760,-2.4385,-0.2845,-0.5829,0.5466,0.1959,
19.265748,-0.9679,1.0690,0.5772,-0.5829,0.5466,0.1959,
19.283398,-0.9679,1.0690,0.5772,-0.3603,0.4568,0.2815,
19.330533,-0.9679,1.0690,0.5772,-0.3603,0.4568,0.2815,
19.331260,-0.8225,-0.0786,-0.4444,-0.3603,0.4568,0.2815,
19.350982,-0.8225,-0.0786,-0.4444,-0.5005,0.2642,0.3862,
19.397462,-0.8225,-0.0786,-0.4444,-0.5005,0.2642,0.3862,
19.398819,-0.4498,-0.5635,-0.0763,-0.5005,0.2642,0.3862,
19.416384,-0.4498,-0.5635,-0.0763,-0.4120,0.5284,0.2987,
19.462162,-0.4498,-0.5635,-0.0763,-0.4120,0.5284,0.2987,
19.463705,-0.3600,0.5242,0.1259,-0.4120,0.5284,0.2987,
19.480584,-0.3600,0.5242,0.1259,-0.4617,0.4934,0.2711,
19.527781,-0.3600,0.5242,0.1259,-0.4617,0.4934,0.2711,
19.530087,-0.7293,-0.0455,-0.3007,-0.4617,0.4934,0.2711,
19.546733,-0.7293,-0.0455,-0.3007,-0.5722,0.5205,0.3717,
19.591678,-0.7293,-0.0455,-0.3007,-0.5722,0.5205,0.3717,
19.593368,0.1036,0.4196,0.2605,-0.5722,0.5205,0.3717,
19.612697,0.1036,0.4196,0.2605,-0.5504,0.5528,0.5014,
19.658405,0.1036,0.4196,0.2605,-0.5504,0.5528,0.5014,
19.659134,0.5827,-0.3115,0.4258,-0.5504,0.5528,0.5014,
19.676356,0.5827,-0.3115,0.4258,-0.2227,0.7790,0.4740,
19.723183,0.5827,-0.3115,0.4258,-0.2227,0.7790,0.4740,
19.723914,0.2120,-0.8720,0.2293,-0.2227,0.7790,0.4740,
19.742701,0.2120,-0.8720,0.2293,-0.0954,0.8723,0.2695,
19.787518,0.2120,-0.8720,0.2293,-0.0954,0.8723,0.2695,
19.789157,-0.0277,-1.4342,0.3577,-0.0954,0.8723,0.2695,
19.808617,-0.0277,-1.4342,0.3577,0.1579,0.8468,0.2147,
19.855149,-0.0277,-1.4342,0.3577,0.1579,0.8468,0.2147,
19.856704,0.0337,-1.5756,0.5370,0.1579,0.8468,0.2147,
19.872967,0.0337,-1.5756,0.5370,0.4574,0.7395,0.1591,
19.918942,0.0337,-1.5756,0.5370,0.4574,0.7395,0.1591,
19.919498,-0.0307,-1.1341,0.6766,0.4574,0.7395,0.1591,
19.938581,-0.0307,-1.1341,0.6766,0.6257,0.6675,0.0315,
19.984012,-0.0307,-1.1341,0.6766,0.6257,0.6675,0.0315,
19.985349,0.0067,-0.5658,1.0681,0.6257,0.6675,0.0315,
20.004045,0.0067,-0.5658,1.0681,0.7176,0.4899,-0.1200,
20.050886,0.0067,-0.5658,1.0681,0.7176,0.4899,-0.1200,
20.052377,-0.0525,-0.3893,1.2084,0.7176,0.4899,-0.1200,
20.070479,-0.0525,-0.3893,1.2084,0.6574,0.4911,-0.1907,
20.115459,-0.0525,-0.3893,1.2084,0.6574,0.4911,-0.1907,
20.117043,0.0470,-0.3064,1.9455,0.6574,0.4911,-0.1907,
20.135789,0.0470,-0.3064,1.9455,0.3668,0.3349,-0.0266,
20.181542,0.0470,-0.3064,1.9455,0.3668,0.3349,-0.0266,
20.182618,-0.1377,4.6443,1.8480,0.3668,0.3349,-0.0266,
20.203289,-0.1377,4.6443,1.8480,0.9265,-0.2103,-0.3742,
20.246882,-0.1377,4.6443,1.8480,0.9265,-0.2103,-0.3742,
20.248257,-0.4403,1.4046,-0.5555,0.9265,-0.2103,-0.3742,
20.268052,-0.4403,1.4046,-0.5555,1.1118,0.1987,0.1252,
20.312259,-0.4403,1.4046,-0.5555,1.1118,0.1987,0.1252,
20.313580,0.5550,-1.7147,-2.2488,1.1118,0.1987,0.1252,
20.331236,0.5550,-1.7147,-2.2488,0.9890,0.2677,-0.1269,
20.377729,0.5550,-1.7147,-2.2488,0.9890,0.2677,-0.1269,
20.379353,-1.6126,-1.4660,-0.9081,0.9890,0.2677,-0.1269,
20.397552,-1.6126,-1.4660,-0.9081,0.5867,-0.0073,-0.0678,
20.443363,-1.6126,-1.4660,-0.9081,0.5867,-0.0073,-0.0678,
20.445623,-0.6084,-0.5722,-1.7466,0.5867,-0.0073,-0.0678,
20.462660,-0.6084,-0.5722,-1.7466,0.1944,-0.2451,-0.0098,
20.508878,-0.6084,-0.5722,-1.7466,0.1944,-0.2451,-0.0098,
20.509771,0.5601,0.0390,-1.0202,0.1944,-0.2451,-0.0098,
20.528677,0.5601,0.0390,-1.0202,0.1550,0.0156,0.0713,
20.574424,0.5601,0.0390,-1.0202,0.1550,0.0156,0.0713,
20.575515,0.0979,0.1964,-0.3463,0.1550,0.0156,0.0713,
20.594796,0.0979,0.1964,-0.3463,0.1568,-0.3917,0.0959,
20.639369,0.0979,0.1964,-0.3463,0.1568,-0.3917,0.0959,
20.640586,0.1467,-0.0219,-0.5614,0.1568,-0.3917,0.0959,
20.659275,0.1467,-0.0219,-0.5614,0.0608,-0.5188,0.0188,
20.704252,0.1467,-0.0219,-0.5614,0.0608,-0.5188,0.0188,
20.704980,0.5434,-0.3428,-0.6804,0.0608,-0.5188,0.0188,
20.724180,0.5434,-0.3428,-0.6804,-0.0660,-0.3089,-0.0224,
20.769175,0.5434,-0.3428,-0.6804,-0.0660,-0.3089,-0.0224,
20.770217,0.7544,0.0503,-0.2511,-0.0660,-0.3089,-0.0224,
20.789582,0.7544,0.0503,-0.2511,-0.2382,-0.2020,-0.0267,
20.835051,0.7544,0.0503,-0.2511,-0.2382,-0.2020,-0.0267,
20.836441,1.0546,-0.0274,-0.1185,-0.2382,-0.2020,-0.0267,
20.856264,1.0546,-0.0274,-0.1185,-0.4895,-0.0904,-0.0037,
20.901055,1.0546,-0.0274,-0.1185,-0.4895,-0.0904,-0.0037,
20.901820,0.6785,1.0281,-0.6346,-0.4895,-0.0904,-0.0037,
20.920731,0.6785,1.0281,-0.6346,-0.5076,0.3314,0.2789,
20.967819,0.6785,1.0281,-0.6346,-0.5076,0.3314,0.2789,
20.969186,-0.9909,0.6331,-1.4314,-0.5076,0.3314,0.2789,
20.987723,-0.9909,0.6331,-1.4314,-0.8201,0.0000,0.2839,
21.032985,-0.9909,0.6331,-1.4314,-0.8201,0.0000,0.2839,
21.034457,-1.2426,-1.0307,-0.6786,-0.8201,0.0000,0.2839,
21.052118,-1.2426,-1.0307,-0.6786,-1.0443,0.0531,0.3491,
21.097743,-1.2426,-1.0307,-0.6786,-1.0443,0.0531,0.3491,
21.098448,-0.1416,1.1034,0.7229,-1.0443,0.0531,0.3491,
21.117311,-0.1416,1.1034,0.7229,-0.6446,0.2253,0.2138,
21.163904,-0.1416,1.1034,0.7229,-0.6446,0.2253,0.2138,
21.165271,0.1599,0.2557,-0.5082,-0.6446,0.2253,0.2138,
21.182159,0.1599,0.2557,-0.5082,-0.5777,0.4255,0.1093,
21.228251,0.1599,0.2557,-0.5082,-0.5777,0.4255,0.1093,
21.229551,-0.4458,-0.7305,0.1606,-0.5777,0.4255,0.1093,
21.248492,-0.4458,-0.7305,0.1606,-0.3625,0.6089,-0.0212,
21.294870,-0.4458,-0.7305,0.1606,-0.3625,0.6089,-0.0212,
21.296508,-0.3445,-0.3098,0.1600,-0.3625,0.6089,-0.0212,
21.314792,-0.3445,-0.3098,0.1600,-0.4268,0.4673,0.0889,
21.360696,-0.3445,-0.3098,0.1600,-0.4268,0.4673,0.0889,
21.362319,0.0631,-0.5882,0.3214,-0.4268,0.4673,0.0889,
21.379956,0.0631,-0.5882,0.3214,-0.2033,0.4212,0.0308,
21.427212,0.0631,-0.5882,0.3214,-0.2033,0.4212,0.0308,
21.428290,0.4229,-0.1138,0.4371,-0.2033,0.4212,0.0308,
21.445657,0.4229,-0.1138,0.4371,-0.0909,0.6750,-0.0064,
21.491260,0.4229,-0.1138,0.4371,-0.0909,0.6750,-0.0064,
21.492675,0.0638,-0.4360,0.5716,-0.0909,0.6750,-0.0064,
21.510966,0.0638,-0.4360,0.5716,0.0712,0.7442,-0.0119,
21.556370,0.0638,-0.4360,0.5716,0.0712,0.7442,-0.0119,
21.557868,-0.3738,-0.7902,0.6253,0.0712,0.7442,-0.0119,
21.575869,-0.3738,-0.7902,0.6253,0.2013,0.5360,-0.0205,
21.621570,-0.3738,-0.7902,0.6253,0.2013,0.5360,-0.0205,
21.622239,-0.3274,-0.7634,0.6468,0.2013,0.5360,-0.0205,
21.641409,-0.3274,-0.7634,0.6468,0.3676,0.4675,-0.0202,
21.687201,-0.3274,-0.7634,0.6468,0.3676,0.4675,-0.0202,
21.688538,-0.1479,-0.4356,0.6937,0.3676,0.4675,-0.0202,
21.708801,-0.1479,-0.4356,0.6937,0.4163,0.4291,-0.0118,
21.753806,-0.1479,-0.4356,0.6937,0.4163,0.4291,-0.0118,
21.755197,-0.2217,-0.4922,1.1424,0.4163,0.4291,-0.0118,
21.771908,-0.2217,-0.4922,1.1424,0.4378,0.3755,0.0240,
21.818586,-0.2217,-0.4922,1.1424,0.4378,0.3755,0.0240,
21.820029,-0.0482,-1.3291,1.5069,0.4378,0.3755,0.0240,
21.839146,-0.0482,-1.3291,1.5069,0.5673,0.3009,0.0864,
21.884743,-0.0482,-1.3291,1.5069,0.5673,0.3009,0.0864,
21.886664,0.4337,-2.2688,1.8769,0.5673,0.3009,0.0864,
21.903367,0.4337,-2.2688,1.8769,0.5592,0.1845,0.1854,
21.950369,0.4337,-2.2688,1.8769,0.5592,0.1845,0.1854,
21.951945,0.2950,6.4868,0.2200,0.5592,0.1845,0.1854,
21.968849,0.2950,6.4868,0.2200,1.2146,-0.4145,-0.5218,
22.016595,0.2950,6.4868,0.2200,1.2146,-0.4145,-0.5218,
22.017314,0.5057,1.4040,-4.0120,1.2146,-0.4145,-0.5218,
22.033599,0.5057,1.4040,-4.0120,1.1438,0.9507,-0.1067,
22.080820,0.5057,1.4040,-4.0120,1.1438,0.9507,-0.1067,
22.081962,-0.3719,-1.0140,-0.3756,1.1438,0.9507,-0.1067,
22.100631,-0.3719,-1.0140,-0.3756,1.4137,0.5200,-0.0163,
22.146259,-0.3719,-1.0140,-0.3756,1.4137,0.5200,-0.0163,
22.147752,-1.8062,-0.7982,-0.9391,1.4137,0.5200,-0.0163,
22.166429,-1.8062,-0.7982,-0.9391,0.7127,-0.2356,0.0701,
22.211321,-1.8062,-0.7982,-0.9391,0.7127,-0.2356,0.0701,
22.213357,-0.3013,-0.3321,-1.0708,0.7127,-0.2356,0.0701,
22.230643,-0.3013,-0.3321,-1.0708,0.0762,-0.3083,0.1509,
22.276784,-0.3013,-0.3321,-1.0708,0.0762,-0.3083,0.1509,
22.278297,1.5479,-0.2669,-0.8622,0.0762,-0.3083,0.1509,
22.297274,1.5479,-0.2669,-0.8622,0.2269,0.2648,-0.1321,
22.343097,1.5479,-0.2669,-0.8622,0.2269,0.2648,-0.1321,
22.343792,0.2085,0.2708,-0.8371,0.2269,0.2648,-0.1321,
22.362850,0.2085,0.2708,-0.8371,0.1669,0.4678,-0.1675,
22.408685,0.2085,0.2708,-0.8371,0.1669,0.4678,-0.1675,
22.409404,-0.3279,0.2198,-0.4867,0.1669,0.4678,-0.1675,
22.427135,-0.3279,0.2198,-0.4867,0.0878,0.1147,-0.0235,
22.474482,-0.3279,0.2198,-0.4867,0.0878,0.1147,-0.0235,
22.475773,0.2263,-0.1759,-0.6624,0.0878,0.1147,-0.0235,
22.492702,0.2263,-0.1759,-0.6624,-0.1278,-0.0938,0.0606,
22.537638,0.2263,-0.1759,-0.6624,-0.1278,-0.0938,0.0606,
22.538544,0.6292,-0.2272,-0.2145,-0.1278,-0.0938,0.0606,
22.558597,0.6292,-0.2272,-0.2145,-0.1582,-0.3089,0.0886,
22.604801,0.6292,-0.2272,-0.2145,-0.1582,-0.3089,0.0886,
22.605587,0.7873,-0.3177,-0.1808,-0.1582,-0.3089,0.0886,
22.623808,0.7873,-0.3177,-0.1808,-0.3071,-0.5315,-0.0125,
22.669906,0.7873,-0.3177,-0.1808,-0.3071,-0.5315,-0.0125,
22.671181,1.2166,-0.3615,-0.2614,-0.3071,-0.5315,-0.0125,
22.689320,1.2166,-0.3615,-0.2614,-0.3977,-0.4036,-0.0319,
22.734302,1.2166,-0.3615,-0.2614,-0.3977,-0.4036,-0.0319,
22.735030,1.0490,0.2388,-0.5021,-0.3977,-0.4036,-0.0319,
22.754290,1.0490,0.2388,-0.5021,-0.5052,-0.1772,0.0941,
22.800506,1.0490,0.2388,-0.5021,-0.5052,-0.1772,0.0941,
22.801357,-0.1722,0.3971,-1.1921,-0.5052,-0.1772,0.0941,
22.819415,-0.1722,0.3971,-1.1921,-0.6878,0.3541,0.5282,
22.866094,-0.1722,0.3971,-1.1921,-0.6878,0.3541,0.5282,
22.867432,-1.0718,0.8422,-0.4136,-0.6878,0.3541,0.5282,
22.886043,-1.0718,0.8422,-0.4136,-0.9391,0.0855,0.4178,
22.931140,-1.0718,0.8422,-0.4136,-0.9391,0.0855,0.4178,
22.931818,-0.3792,-0.2464,-0.0797,-0.9391,0.0855,0.4178,
22.951662,-0.3792,-0.2464,-0.0797,-1.0960,0.4513,0.3903,
22.997825,-0.3792,-0.2464,-0.0797,-1.0960,0.4513,0.3903,
22.998706,0.6122,0.4858,0.3984,-1.0960,0.4513,0.3903,
23.016872,0.6122,0.4858,0.3984,-0.3797,1.0452,0.2242,
23.063801,0.6122,0.4858,0.3984,-0.3797,1.0452,0.2242,
23.065981,0.1107,0.2535,-0.3796,-0.3797,1.0452,0.2242,
23.082173,0.1107,0.2535,-0.3796,-0.5631,1.0356,0.2190,
23.126579,0.1107,0.2535,-0.3796,-0.5631,1.0356,0.2190,
23.127505,-0.8175,-1.0238,0.0426,-0.5631,1.0356,0.2190,
23.146091,-0.8175,-1.0238,0.0426,-0.4371,0.9169,0.2011,
23.193630,-0.8175,-1.0238,0.0426,-0.4371,0.9169,0.2011,
23.195163,-0.6913,-0.6391,0.1876,-0.4371,0.9169,0.2011,
23.212665,-0.6913,-0.6391,0.1876,-0.3642,0.4838,0.2538,
23.258953,-0.6913,-0.6391,0.1876,-0.3642,0.4838,0.2538,
23.260018,-0.2538,-0.3970,0.3048,-0.3642,0.4838,0.2538,
23.278824,-0.2538,-0.3970,0.3048,-0.2013,0.4058,0.1700,
23.324035,-0.2538,-0.3970,0.3048,-0.2013,0.4058,0.1700,
23.324944,0.0721,-0.5461,0.5056,-0.2013,0.4058,0.1700,
23.344972,0.0721,-0.5461,0.5056,0.0803,0.5759,0.0206,
23.391123,0.0721,-0.5461,0.5056,0.0803,0.5759,0.0206,
23.392041,0.0393,-1.3159,0.7743,0.0803,0.5759,0.0206,
23.411242,0.0393,-1.3159,0.7743,0.3036,0.6651,-0.2059,
23.454402,0.0393,-1.3159,0.7743,0.3036,0.6651,-0.2059,
23.454977,0.0434,-1.4808,1.0744,0.3036,0.6651,-0.2059,
23.474909,0.0434,-1.4808,1.0744,0.4627,0.7953,-0.1923,
23.520293,0.0434,-1.4808,1.0744,0.4627,0.7953,-0.1923,
23.521255,0.8221,-0.2189,1.8009,0.4627,0.7953,-0.1923,
23.540820,0.8221,-0.2189,1.8009,0.4012,0.8004,0.0771,
23.586159,0.8221,-0.2189,1.8009,0.4012,0.8004,0.0771,
23.587085,0.9691,-2.1333,2.6132,0.4012,0.8004,0.0771,
23.605758,0.9691,-2.1333,2.6132,0.7697,0.4808,0.2230,
23.650381,0.9691,-2.1333,2.6132,0.7697,0.4808,0.2230,
23.651397,-1.5001,2.2728,-1.2156,0.7697,0.4808,0.2230,
23.670457,-1.5001,2.2728,-1.2156,0.4838,-0.8471,-0.7095,
23.716846,-1.5001,2.2728,-1.2156,0.4838,-0.8471,-0.7095,
23.718208,-0.6144,3.8321,-2.4293,0.4838,-0.8471,-0.7095,
23.736439,-0.6144,3.8321,-2.4293,0.7524,-0.2865,0.4053,
23.781834,-0.6144,3.8321,-2.4293,0.7524,-0.2865,0.4053,
23.783114,1.8219,1.2618,-0.0617,0.7524,-0.2865,0.4053,
23.801999,1.8219,1.2618,-0.0617,1.0759,0.2030,-0.1907,
23.848925,1.8219,1.2618,-0.0617,1.0759,0.2030,-0.1907,
23.850657,-0.0176,-0.4501,-1.7393,1.0759,0.2030,-0.1907,
23.868613,-0.0176,-0.4501,-1.7393,0.8700,-0.2126,-0.6472,
23.914309,-0.0176,-0.4501,-1.7393,0.8700,-0.2126,-0.6472,
23.916283,-1.5275,-1.4683,-0.6895,0.8700,-0.2126,-0.6472,
23.933592,-1.5275,-1.4683,-0.6895,0.1678,-0.3800,-0.1654,
23.979894,-1.5275,-1.4683,-0.6895,0.1678,-0.3800,-0.1654,
23.981861,0.0366,-1.4036,0.3611,0.1678,-0.3800,-0.1654,
24.000083,0.0366,-1.4036,0.3611,-0.0221,-0.7882,0.0249,
24.044826,0.0366,-1.4036,0.3611,-0.0221,-0.7882,0.0249,
24.045551,2.0706,-1.2908,0.2106,-0.0221,-0.7882,0.0249,
24.063757,2.0706,-1.2908,0.2106,-0.2755,-0.3377,-0.0298,
24.110751,2.0706,-1.2908,0.2106,-0.2755,-0.3377,-0.0298,
24.111452,1.6982,-0.7587,1.2560,-0.2755,-0.3377,-0.0298,
24.129624,1.6982,-0.7587,1.2560,-0.5027,-0.0118,0.0845,
24.176798,1.6982,-0.7587,1.2560,-0.5027,-0.0118,0.0845,
24.177531,1.3386,-0.2073,1.1056,-0.5027,-0.0118,0.0845,
24.196944,1.3386,-0.2073,1.1056,-0.5015,0.1671,0.4096,
24.241345,1.3386,-0.2073,1.1056,-0.5015,0.1671,0.4096,
24.242727,-1.7941,2.5674,-2.4241,-0.5015,0.1671,0.4096,
24.261103,-1.7941,2.5674,-2.4241,-0.9294,-0.1049,0.7799,
24.307616,-1.7941,2.5674,-2.4241,-0.9294,-0.1049,0.7799,
24.309514,-1.3465,2.2000,-1.1127,-0.9294,-0.1049,0.7799,
24.326370,-1.3465,2.2000,-1.1127,-1.0925,-0.2746,0.7523,
24.372396,-1.3465,2.2000,-1.1127,-1.0925,-0.2746,0.7523,
24.374090,2.6654,-0.6732,-1.8423,-1.0925,-0.2746,0.7523,
24.392773,2.6654,-0.6732,-1.8423,-0.4811,2.1018,-0.0258,
24.438161,2.6654,-0.6732,-1.8423,-0.4811,2.1018,-0.0258,
24.440054,-1.4578,0.4629,-1.1443,-0.4811,2.1018,-0.0258,
24.457997,-1.4578,0.4629,-1.1443,-0.5870,1.9074,-0.1477,
24.503560,-1.4578,0.4629,-1.1443,-0.5870,1.9074,-0.1477,
24.505470,-3.7286,-0.8590,-0.7139,-0.5870,1.9074,-0.1477,
24.523166,-3.7286,-0.8590,-0.7139,-0.6005,0.5463,0.2227,
24.569633,-3.7286,-0.8590,-0.7139,-0.6005,0.5463,0.2227,
24.570312,-1.5448,-1.3530,0.1322,-0.6005,0.5463,0.2227,
24.587440,-1.5448,-1.3530,0.1322,-0.3215,-0.0209,0.1486,
24.635041,-1.5448,-1.3530,0.1322,-0.3215,-0.0209,0.1486,
24.637236,0.6084,-0.8536,0.4113,-0.3215,-0.0209,0.1486,
24.654036,0.6084,-0.8536,0.4113,0.1037,0.2111,0.0631,
24.698888,0.6084,-0.8536,0.4113,0.1037,0.2111,0.0631,
24.700563,0.0419,-1.3599,0.9475,0.1037,0.2111,0.0631,
24.720035,0.0419,-1.3599,0.9475,0.3293,0.3662,0.0429,
24.765881,0.0419,-1.3599,0.9475,0.3293,0.3662,0.0429,
24.767598,-0.7324,-1.5676,1.5300,0.3293,0.3662,0.0429,
24.784064,-0.7324,-1.5676,1.5300,0.5055,0.2975,0.1654,
24.829865,-0.7324,-1.5676,1.5300,0.5055,0.2975,0.1654,
24.831713,-0.7656,-1.7516,1.7528,0.5055,0.2975,0.1654,
24.850724,-0.7656,-1.7516,1.7528,0.5820,0.3057,-0.0104,
24.895542,-0.7656,-1.7516,1.7528,0.5820,0.3057,-0.0104,
24.897598,-1.3587,10.0003,-0.0428,0.5820,0.3057,-0.0104,
24.915577,-1.3587,10.0003,-0.0428,1.1220,-0.8467,-0.2240,
24.961916,-1.3587,10.0003,-0.0428,1.1220,-0.8467,-0.2240,
24.963518,0.2300,0.2168,-1.8119,1.1220,-0.8467,-0.2240,
24.980655,0.2300,0.2168,-1.8119,0.9995,0.0799,0.3684,
25.028501,0.2300,0.2168,-1.8119,0.9995,0.0799,0.3684,
25.030246,1.0135,-1.7886,-1.4019,0.9995,0.0799,0.3684,
25.047411,1.0135,-1.7886,-1.4019,1.4453,-0.1419,0.1310,
25.093010,1.0135,-1.7886,-1.4019,1.4453,-0.1419,0.1310,
25.093807,-0.3028,-0.6739,-2.0587,1.4453,-0.1419,0.1310,
25.112878,-0.3028,-0.6739,-2.0587,0.6871,-0.1625,-0.1828,
25.157887,-0.3028,-0.6739,-2.0587,0.6871,-0.1625,-0.1828,
25.158891,-0.0497,-0.4059,-1.0141,0.6871,-0.1625,-0.1828,
25.177531,-0.0497,-0.4059,-1.0141,0.4673,0.0144,-0.1407,
25.224744,-0.0497,-0.4059,-1.0141,0.4673,0.0144,-0.1407,
25.225794,0.5838,0.0377,-1.0869,0.4673,0.0144,-0.1407,
25.242964,0.5838,0.0377,-1.0869,0.3787,0.0247,-0.1859,
25.289541,0.5838,0.0377,-1.0869,0.3787,0.0247,-0.1859,
25.291319,0.3097,0.1826,-0.3967,0.3787,0.0247,-0.1859,
25.309089,0.3097,0.1826,-0.3967,0.2410,-0.0828,-0.0078,
25.354337,0.3097,0.1826,-0.3967,0.2410,-0.0828,-0.0078,
25.355028,0.8643,-0.0999,0.0463,0.2410,-0.0828,-0.0078,
25.374524,0.8643,-0.0999,0.0463,0.1596,-0.1568,-0.0197,
25.421254,0.8643,-0.0999,0.0463,0.1596,-0.1568,-0.0197,
25.422605,0.4186,-0.0306,-0.1613,0.1596,-0.1568,-0.0197,
25.438817,0.4186,-0.0306,-0.1613,0.0541,-0.1184,-0.0773,
25.485886,0.4186,-0.0306,-0.1613,0.0541,-0.1184,-0.0773,
25.486957,0.8476,-0.3169,-0.2619,0.0541,-0.1184,-0.0773,
25.504419,0.8476,-0.3169,-0.2619,-0.0110,-0.0295,-0.0965,
25.550174,0.8476,-0.3169,-0.2619,-0.0110,-0.0295,-0.0965,
25.550765,1.0319,-0.1617,-0.0248,-0.0110,-0.0295,-0.0965,
25.569773,1.0319,-0.1617,-0.0248,-0.1381,-0.1150,-0.0783,
25.615837,1.0319,-0.1617,-0.0248,-0.1381,-0.1150,-0.0783,
25.617417,1.3244,-0.1842,-0.0741,-0.1381,-0.1150,-0.0783,
25.635364,1.3244,-0.1842,-0.0741,-0.2482,-0.2291,-0.1106,
25.683181,1.3244,-0.1842,-0.0741,-0.2482,-0.2291,-0.1106,
25.685347,1.6623,-0.2500,-0.1945,-0.2482,-0.2291,-0.1106,
25.701071,1.6623,-0.2500,-0.1945,-0.2828,-0.3563,-0.0651,
25.747331,1.6623,-0.2500,-0.1945,-0.2828,-0.3563,-0.0651,
25.749688,1.7355,-0.2618,-0.0363,-0.2828,-0.3563,-0.0651,
25.766399,1.7355,-0.2618,-0.0363,-0.3917,-0.4239,0.0064,
25.812558,1.7355,-0.2618,-0.0363,-0.3917,-0.4239,0.0064,
25.814255,0.7231,0.6790,-0.9222,-0.3917,-0.4239,0.0064,
25.833133,0.7231,0.6790,-0.9222,-0.4065,-0.1211,0.2611,
25.876675,0.7231,0.6790,-0.9222,-0.4065,-0.1211,0.2611,
25.877761,0.4155,1.7259,-0.6891,-0.4065,-0.1211,0.2611,
25.896743,0.4155,1.7259,-0.6891,-0.3137,0.0163,0.2801,
25.943262,0.4155,1.7259,-0.6891,-0.3137,0.0163,0.2801,
25.945075,-0.3066,-0.4229,-0.8402,-0.3137,0.0163,0.2801,
25.966712,-0.3066,-0.4229,-0.8402,-0.7427,0.3674,0.1348,
26.009070,-0.3066,-0.4229,-0.8402,-0.7427,0.3674,0.1348,
26.010499,-1.0510,-0.9203,0.2146,-0.7427,0.3674,0.1348,
26.029614,-1.0510,-0.9203,0.2146,-0.4974,1.0528,0.2051,
26.074839,-1.0510,-0.9203,0.2146,-0.4974,1.0528,0.2051,
26.075956,-0.9643,1.2611,-0.3490,-0.4974,1.0528,0.2051,
26.094781,-0.9643,1.2611,-0.3490,-0.4242,1.1939,0.1042,
26.140302,-0.9643,1.2611,-0.3490,-0.4242,1.1939,0.1042,
26.141835,-1.4084,-0.4178,-0.4212,-0.4242,1.1939,0.1042,
26.159237,-1.4084,-0.4178,-0.4212,-0.4624,0.8097,0.0973,
26.205960,-1.4084,-0.4178,-0.4212,-0.4624,0.8097,0.0973,
26.208319,-1.0116,-0.1315,0.0699,-0.4624,0.8097,0.0973,
26.224502,-1.0116,-0.1315,0.0699,-0.4572,0.7422,0.2082,
26.270895,-1.0116,-0.1315,0.0699,-0.4572,0.7422,0.2082,
26.273157,-0.3541,-0.1877,0.2955,-0.4572,0.7422,0.2082,
26.290128,-0.3541,-0.1877,0.2955,-0.3129,0.7207,0.1965,
26.337417,-0.3541,-0.1877,0.2955,-0.3129,0.7207,0.1965,
26.339606,-0.5097,-0.6896,0.5051,-0.3129,0.7207,0.1965,
26.355613,-0.5097,-0.6896,0.5051,-0.1987,0.5191,0.1518,
26.402623,-0.5097,-0.6896,0.5051,-0.1987,0.5191,0.1518,
26.403934,0.1948,-0.5920,0.7160,-0.1987,0.5191,0.1518,
26.421450,0.1948,-0.5920,0.7160,-0.0040,0.5570,0.1031,
26.468049,0.1948,-0.5920,0.7160,-0.0040,0.5570,0.1031,
26.469642,0.3324,-0.5516,0.8637,-0.0040,0.5570,0.1031,
26.486437,0.3324,-0.5516,0.8637,0.0037,0.6015,-0.0899,
26.533457,0.3324,-0.5516,0.8637,0.0037,0.6015,-0.0899,
26.534825,-0.3673,-0.9163,1.5614,0.0037,0.6015,-0.0899,
26.553217,-0.3673,-0.9163,1.5614,0.0832,0.4562,-0.1553,
26.599721,-0.3673,-0.9163,1.5614,0.0832,0.4562,-0.1553,
26.601541,-0.6720,-0.8982,1.5402,0.0832,0.4562,-0.1553,
26.619695,-0.6720,-0.8982,1.5402,0.0889,0.2173,-0.1234,
26.663273,-0.6720,-0.8982,1.5402,0.0889,0.2173,-0.1234,
26.665127,-0.3640,-1.1389,1.6806,0.0889,0.2173,-0.1234,
26.684414,-0.3640,-1.1389,1.6806,0.0076,-0.1359,0.0699,
26.728547,-0.3640,-1.1389,1.6806,0.0076,-0.1359,0.0699,
26.730122,-0.6226,-2.8499,-0.2412,0.0076,-0.1359,0.0699,
26.748826,-0.6226,-2.8499,-0.2412,0.2569,-0.1359,-0.2531,
26.796397,-0.6226,-2.8499,-0.2412,0.2569,-0.1359,-0.2531,
26.798160,-2.3192,5.8687,-1.9706,0.2569,-0.1359,-0.2531,
26.815098,-2.3192,5.8687,-1.9706,0.9227,-0.7735,0.3407,
26.859665,-2.3192,5.8687,-1.9706,0.9227,-0.7735,0.3407,
26.862118,2.4217,2.0697,-1.5089,0.9227,-0.7735,0.3407,
26.879570,2.4217,2.0697,-1.5089,0.9160,-0.2008,0.0373,
26.926433,2.4217,2.0697,-1.5089,0.9160,-0.2008,0.0373,
26.928111,0.5933,1.1111,-0.9345,0.9160,-0.2008,0.0373,
26.946449,0.5933,1.1111,-0.9345,1.0521,-0.0402,-0.1550,
26.992456,0.5933,1.1111,-0.9345,1.0521,-0.0402,-0.1550,
26.993743,0.0779,-1.4663,-0.5850,1.0521,-0.0402,-0.1550,
27.010614,0.0779,-1.4663,-0.5850,0.8351,0.3531,0.0661,
27.057806,0.0779,-1.4663,-0.5850,0.8351,0.3531,0.0661,
27.059148,-0.0956,-1.7834,-0.9574,0.8351,0.3531,0.0661,
27.076720,-0.0956,-1.7834,-0.9574,0.3476,0.3496,-0.0762,
27.121592,-0.0956,-1.7834,-0.9574,0.3476,0.3496,-0.0762,
27.123328,-0.5461,-0.4530,-0.8540,0.3476,0.3496,-0.0762,
27.143181,-0.5461,-0.4530,-0.8540,0.0295,-0.0194,0.0745,
27.190065,-0.5461,-0.4530,-0.8540,0.0295,-0.0194,0.0745,
27.192018,0.2640,-0.2091,-0.8015,0.0295,-0.0194,0.0745,
27.208382,0.2640,-0.2091,-0.8015,-0.0063,-0.0429,0.1739,
27.254298,0.2640,-0.2091,-0.8015,-0.0063,-0.0429,0.1739,
27.256030,0.7282,-0.2524,-1.0173,-0.0063,-0.0429,0.1739,
27.272975,0.7282,-0.2524,-1.0173,-0.0599,-0.0634,0.0092,
27.317954,0.7282,-0.2524,-1.0173,-0.0599,-0.0634,0.0092,
27.319223,0.6060,-0.5145,-0.5597,-0.0599,-0.0634,0.0092,
27.337894,0.6060,-0.5145,-0.5597,-0.0609,-0.2295,-0.0886,
27.384981,0.6060,-0.5145,-0.5597,-0.0609,-0.2295,-0.0886,
27.386673,0.9080,-0.4129,-0.6791,-0.0609,-0.2295,-0.0886,
27.403512,0.9080,-0.4129,-0.6791,-0.1655,-0.3241,-0.1681,
27.449912,0.9080,-0.4129,-0.6791,-0.1655,-0.3241,-0.1681,
27.452754,1.5387,-0.3730,-0.3503,-0.1655,-0.3241,-0.1681,
27.470009,1.5387,-0.3730,-0.3503,-0.1712,-0.2863,-0.2130,
27.517471,1.5387,-0.3730,-0.3503,-0.1712,-0.2863,-0.2130,
27.519337,1.5910,-0.0544,-0.4894,-0.1712,-0.2863,-0.2130,
27.535364,1.5910,-0.0544,-0.4894,-0.3045,-0.1967,-0.1837,
27.582173,1.5910,-0.0544,-0.4894,-0.3045,-0.1967,-0.1837,
27.583243,0.7441,1.7376,-0.4739,-0.3045,-0.1967,-0.1837,
27.605063,0.7441,1.7376,-0.4739,-0.4389,0.0713,0.1452,
27.646108,0.7441,1.7376,-0.4739,-0.4389,0.0713,0.1452,
27.647924,-0.0472,0.8348,-0.5986,-0.4389,0.0713,0.1452,
27.667858,-0.0472,0.8348,-0.5986,-0.3960,-0.0396,0.0183,
27.713786,-0.0472,0.8348,-0.5986,-0.3960,-0.0396,0.0183,
27.716652,-1.2433,-1.3060,-0.9253,-0.3960,-0.0396,0.0183,
27.731988,-1.2433,-1.3060,-0.9253,-0.6159,0.2208,-0.0035,
27.779485,-1.2433,-1.3060,-0.9253,-0.6159,0.2208,-0.0035,
27.780969,-2.5756,0.0878,0.4757,-0.6159,0.2208,-0.0035,
27.799494,-2.5756,0.0878,0.4757,-0.5316,0.1402,0.3864,
27.842490,-2.5756,0.0878,0.4757,-0.5316,0.1402,0.3864,
27.843608,-1.1882,1.0445,0.5796,-0.5316,0.1402,0.3864,
27.862490,-1.1882,1.0445,0.5796,-0.4505,0.0220,0.3147,
27.908308,-1.1882,1.0445,0.5796,-0.4505,0.0220,0.3147,
27.909471,-0.2015,-0.1875,0.1716,-0.4505,0.0220,0.3147,
27.927363,-0.2015,-0.1875,0.1716,-0.4041,0.4467,-0.0150,
27.974620,-0.2015,-0.1875,0.1716,-0.4041,0.4467,-0.0150,
27.976890,-0.6984,-0.5599,0.2651,-0.4041,0.4467,-0.0150,
27.992828,-0.6984,-0.5599,0.2651,-0.2950,0.5085,0.1156,
28.039196,-0.6984,-0.5599,0.2651,-0.2950,0.5085,0.1156,
28.039870,-0.4389,-0.2836,0.4028,-0.2950,0.5085,0.1156,
28.058682,-0.4389,-0.2836,0.4028,-0.2639,0.3201,0.0829,
28.104075,-0.4389,-0.2836,0.4028,-0.2639,0.3201,0.0829,
28.105190,-0.3303,-0.5023,0.5110,-0.2639,0.3201,0.0829,
28.123385,-0.3303,-0.5023,0.5110,-0.1796,0.3027,0.0382,
28.169739,-0.3303,-0.5023,0.5110,-0.1796,0.3027,0.0382,
28.171043,-0.0788,-0.2735,0.7688,-0.1796,0.3027,0.0382,
28.189150,-0.0788,-0.2735,0.7688,-0.1477,0.3352,0.0535,
28.234972,-0.0788,-0.2735,0.7688,-0.1477,0.3352,0.0535,
28.236575,0.0984,-0.3156,0.7427,-0.1477,0.3352,0.0535,
28.254266,0.0984,-0.3156,0.7427,-0.0557,0.5218,0.0730,
28.300523,0.0984,-0.3156,0.7427,-0.0557,0.5218,0.0730,
28.302432,-0.3052,-0.7235,0.9552,-0.0557,0.5218,0.0730,
28.319788,-0.3052,-0.7235,0.9552,0.0023,0.5802,-0.0116,
28.367326,-0.3052,-0.7235,0.9552,0.0023,0.5802,-0.0116,
28.369184,-0.5814,-0.7903,1.1170,0.0023,0.5802,-0.0116,
28.387550,-0.5814,-0.7903,1.1170,0.0666,0.4073,-0.0183,
28.431166,-0.5814,-0.7903,1.1170,0.0666,0.4073,-0.0183,
28.432407,-0.3463,-1.2178,1.4474,0.0666,0.4073,-0.0183,
28.450208,-0.3463,-1.2178,1.4474,0.1526,0.2899,-0.0348,
28.497040,-0.3463,-1.2178,1.4474,0.1526,0.2899,-0.0348,
28.499027,-0.0310,-1.7717,1.8089,0.1526,0.2899,-0.0348,
28.517347,-0.0310,-1.7717,1.8089,0.2918,0.2842,-0.0893,
28.562168,-0.0310,-1.7717,1.8089,0.2918,0.2842,-0.0893,
28.563376,0.1528,-2.3302,2.2285,0.2918,0.2842,-0.0893,
28.582015,0.1528,-2.3302,2.2285,0.4940,0.3699,-0.0646,
28.627682,0.1528,-2.3302,2.2285,0.4940,0.3699,-0.0646,
28.629205,-1.6526,3.7248,-0.3790,0.4940,0.3699,-0.0646,
28.646874,-1.6526,3.7248,-0.3790,-0.0964,-0.4705,-0.0192,
28.693504,-1.6526,3.7248,-0.3790,-0.0964,-0.4705,-0.0192,
28.694706,-0.2461,1.0681,-2.3994,-0.0964,-0.4705,-0.0192,
28.714917,-0.2461,1.0681,-2.3994,0.6261,-0.2498,0.1639,
28.760203,-0.2461,1.0681,-2.3994,0.6261,-0.2498,0.1639,
28.762157,0.8696,3.0034,-1.9103,0.6261,-0.2498,0.1639,
28.779460,0.8696,3.0034,-1.9103,0.8253,-0.5421,-0.0440,
28.826168,0.8696,3.0034,-1.9103,0.8253,-0.5421,-0.0440,
28.827788,0.3362,2.2066,-1.9452,0.8253,-0.5421,-0.0440,
28.845029,0.3362,2.2066,-1.9452,0.7572,-0.3180,-0.0374,
28.889270,0.3362,2.2066,-1.9452,0.7572,-0.3180,-0.0374,
28.891038,0.1930,-0.6153,-1.0732,0.7572,-0.3180,-0.0374,
28.909565,0.1930,-0.6153,-1.0732,0.6843,-0.1660,-0.0605,
28.956753,0.1930,-0.6153,-1.0732,0.6843,-0.1660,-0.0605,
28.957568,-0.2048,-1.3235,-1.3340,0.6843,-0.1660,-0.0605,
28.975538,-0.2048,-1.3235,-1.3340,0.4528,-0.1249,0.0191,
29.022090,-0.2048,-1.3235,-1.3340,0.4528,-0.1249,0.0191,
29.023134,-0.6788,-1.3426,-0.3594,0.4528,-0.1249,0.0191,
29.040575,-0.6788,-1.3426,-0.3594,0.1741,-0.4572,0.2501,
29.087994,-0.6788,-1.3426,-0.3594,0.1741,-0.4572,0.2501,
29.088709,-0.2605,-0.2907,-0.7816,0.1741,-0.4572,0.2501,
29.105959,-0.2605,-0.2907,-0.7816,0.1075,-0.6921,0.2497,
29.152932,-0.2605,-0.2907,-0.7816,0.1075,-0.6921,0.2497,
29.153923,0.2135,-0.4669,-1.1467,0.1075,-0.6921,0.2497,
29.170924,0.2135,-0.4669,-1.1467,0.0431,-0.5815,0.0782,
29.217154,0.2135,-0.4669,-1.1467,0.0431,-0.5815,0.0782,
29.218148,-0.2239,-0.2309,-0.5962,0.0431,-0.5815,0.0782,
29.238504,-0.2239,-0.2309,-0.5962,-0.0799,-0.8525,0.0941,
29.283684,-0.2239,-0.2309,-0.5962,-0.0799,-0.8525,0.0941,
29.284862,0.8206,-0.1524,-0.4976,-0.0799,-0.8525,0.0941,
29.303990,0.8206,-0.1524,-0.4976,-0.1266,-0.8193,0.0208,
29.348015,0.8206,-0.1524,-0.4976,-0.1266,-0.8193,0.0208,
29.349388,1.4062,0.0379,-0.5180,-0.1266,-0.8193,0.0208,
29.367826,1.4062,0.0379,-0.5180,-0.2385,-0.6228,-0.1118,
29.413693,1.4062,0.0379,-0.5180,-0.2385,-0.6228,-0.1118,
29.415176,1.2068,-0.0692,-0.0796,-0.2385,-0.6228,-0.1118,
29.433529,1.2068,-0.0692,-0.0796,-0.2999,-0.5179,-0.1445,
29.479321,1.2068,-0.0692,-0.0796,-0.2999,-0.5179,-0.1445,
29.481356,1.1813,0.3204,-0.3074,-0.2999,-0.5179,-0.1445,
29.499534,1.1813,0.3204,-0.3074,-0.3647,-0.4714,-0.0849,
29.544432,1.1813,0.3204,-0.3074,-0.3647,-0.4714,-0.0849,
29.545817,0.5914,0.6702,-0.4808,-0.3647,-0.4714,-0.0849,
29.564651,0.5914,0.6702,-0.4808,-0.3279,-0.2126,-0.0719,
29.610891,0.5914,0.6702,-0.4808,-0.3279,-0.2126,-0.0719,
29.613838,-0.2055,-0.1086,-0.4583,-0.3279,-0.2126,-0.0719,
29.630005,-0.2055,-0.1086,-0.4583,-0.3852,-0.1213,-0.1208,
29.675384,-0.2055,-0.1086,-0.4583,-0.3852,-0.1213,-0.1208,
29.677033,-0.6066,-0.4119,-0.2250,-0.3852,-0.1213,-0.1208,
29.694969,-0.6066,-0.4119,-0.2250,-0.5415,0.0559,0.0014,
29.740526,-0.6066,-0.4119,-0.2250,-0.5415,0.0559,0.0014,
29.742564,-1.0995,-0.2713,0.2385,-0.5415,0.0559,0.0014,
29.760316,-1.0995,-0.2713,0.2385,-0.6015,0.0753,0.1932,
29.807413,-1.0995,-0.2713,0.2385,-0.6015,0.0753,0.1932,
29.809257,-0.4768,0.3366,0.7718,-0.6015,0.0753,0.1932,
29.826920,-0.4768,0.3366,0.7718,-0.5539,0.0704,0.1671,
29.871866,-0.4768,0.3366,0.7718,-0.5539,0.0704,0.1671,
29.873261,0.3058,0.1737,0.3753,-0.5539,0.0704,0.1671,
29.893221,0.3058,0.1737,0.3753,-0.4119,0.3920,0.0580,
29.939829,0.3058,0.1737,0.3753,-0.4119,0.3920,0.0580,
29.941979,0.0149,-0.4102,0.5133,-0.4119,0.3920,0.0580,
29.957114,0.0149,-0.4102,0.5133,-0.2717,0.5195,0.0649,
30.006098,0.0149,-0.4102,0.5133,-0.2717,0.5195,0.0649,
30.008618,-0.5199,-0.3484,0.4341,-0.2717,0.5195,0.0649,
30.024553,-0.5199,-0.3484,0.4341,-0.2498,0.3722,0.0533,
30.069537,-0.5199,-0.3484,0.4341,-0.2498,0.3722,0.0533,
30.071100,-0.1520,-0.3932,0.3878,-0.2498,0.3722,0.0533,
30.087964,-0.1520,-0.3932,0.3878,-0.2219,0.3714,0.1184,
30.134025,-0.1520,-0.3932,0.3878,-0.2219,0.3714,0.1184,
30.135569,0.1934,-0.1156,0.7091,-0.2219,0.3714,0.1184,
30.152936,0.1934,-0.1156,0.7091,-0.2231,0.4432,0.1492,
30.198977,0.1934,-0.1156,0.7091,-0.2231,0.4432,0.1492,
30.200791,0.2849,-0.2295,0.7580,-0.2231,0.4432,0.1492,
30.218965,0.2849,-0.2295,0.7580,-0.1550,0.5812,0.1135,
30.265014,0.2849,-0.2295,0.7580,-0.1550,0.5812,0.1135,
30.266537,0.0372,-0.6160,0.7941,-0.1550,0.5812,0.1135,
30.284609,0.0372,-0.6160,0.7941,-0.0791,0.6886,0.0046,
30.329957,0.0372,-0.6160,0.7941,-0.0791,0.6886,0.0046,
30.331425,-0.1091,-0.9088,0.8063,-0.0791,0.6886,0.0046,
30.350850,-0.1091,-0.9088,0.8063,0.0076,0.6596,-0.0220,
30.396410,-0.1091,-0.9088,0.8063,0.0076,0.6596,-0.0220,
30.397406,-0.2311,-1.0545,1.0542,0.0076,0.6596,-0.0220,
30.415950,-0.2311,-1.0545,1.0542,0.1321,0.5672,-0.0043,
30.463335,-0.2311,-1.0545,1.0542,0.1321,0.5672,-0.0043,
30.464694,-0.2018,-1.6939,1.5189,0.1321,0.5672,-0.0043,
30.481291,-0.2018,-1.6939,1.5189,0.2833,0.3986,0.0301,
30.528602,-0.2018,-1.6939,1.5189,0.2833,0.3986,0.0301,
30.530328,0.7295,-1.9067,2.3949,0.2833,0.3986,0.0301,
30.548333,0.7295,-1.9067,2.3949,0.4963,0.2031,0.1539,
30.592506,0.7295,-1.9067,2.3949,0.4963,0.2031,0.1539,
30.593552,0.4070,8.9843,1.4060,0.4963,0.2031,0.1539,
30.612747,0.4070,8.9843,1.4060,1.1871,-0.4461,-0.7921,
30.658237,0.4070,8.9843,1.4060,1.1871,-0.4461,-0.7921,
30.659987,0.2302,1.6877,-1.7232,1.1871,-0.4461,-0.7921,
30.678143,0.2302,1.6877,-1.7232,0.8164,0.6103,0.2952,
30.723343,0.2302,1.6877,-1.7232,0.8164,0.6103,0.2952,
30.725205,1.4457,-1.6693,-1.8802,0.8164,0.6103,0.2952,
30.743214,1.4457,-1.6693,-1.8802,1.2558,0.7873,0.1399,
30.792403,1.4457,-1.6693,-1.8802,1.2558,0.7873,0.1399,
30.794116,-0.8056,-2.7307,-1.8018,1.2558,0.7873,0.1399,
30.808694,-0.8056,-2.7307,-1.8018,0.5733,0.3459,0.0535,
30.855394,-0.8056,-2.7307,-1.8018,0.5733,0.3459,0.0535,
30.857644,-0.4132,-0.6553,-1.7214,0.5733,0.3459,0.0535,
30.875001,-0.4132,-0.6553,-1.7214,0.4058,0.4728,0.1319,
30.919591,-0.4132,-0.6553,-1.7214,0.4058,0.4728,0.1319,
30.921669,0.3948,0.9236,-0.9888,0.4058,0.4728,0.1319,
30.940033,0.3948,0.9236,-0.9888,0.3044,0.3719,0.1261,
30.985752,0.3948,0.9236,-0.9888,0.3044,0.3719,0.1261,
30.987815,-0.8896,-0.2157,0.1080,0.3044,0.3719,0.1261,
31.004467,-0.8896,-0.2157,0.1080,0.2601,-0.2320,0.1419,
31.051152,-0.8896,-0.2157,0.1080,0.2601,-0.2320,0.1419,
31.053141,0.2998,-0.5639,-0.1914,0.2601,-0.2320,0.1419,
31.070650,0.2998,-0.5639,-0.1914,0.1698,-0.6582,0.0189,
31.116485,0.2998,-0.5639,-0.1914,0.1698,-0.6582,0.0189,
31.117787,1.3355,0.0272,-0.3188,0.1698,-0.6582,0.0189,
31.135892,1.3355,0.0272,-0.3188,0.0440,-0.5432,0.0006,
31.182280,1.3355,0.0272,-0.3188,0.0440,-0.5432,0.0006,
31.183393,1.7657,-0.4738,0.0761,0.0440,-0.5432,0.0006,
31.201165,1.7657,-0.4738,0.0761,-0.1005,-0.3378,0.0098,
31.246672,1.7657,-0.4738,0.0761,-0.1005,-0.3378,0.0098,
31.247913,1.8359,-0.1329,0.1373,-0.1005,-0.3378,0.0098,
31.265660,1.8359,-0.1329,0.1373,-0.2337,-0.1988,-0.1701,
31.311978,1.8359,-0.1329,0.1373,-0.2337,-0.1988,-0.1701,
31.315388,1.5531,0.0057,0.1377,-0.2337,-0.1988,-0.1701,
31.334365,1.5531,0.0057,0.1377,-0.3922,-0.1313,-0.2671,
31.378233,1.5531,0.0057,0.1377,-0.3922,-0.1313,-0.2671,
31.379790,-0.1702,2.5030,-0.7809,-0.3922,-0.1313,-0.2671,
31.398105,-0.1702,2.5030,-0.7809,-0.3183,0.0570,-0.0243,
31.443145,-0.1702,2.5030,-0.7809,-0.3183,0.0570,-0.0243,
31.445197,-1.0271,0.2065,-1.6379,-0.3183,0.0570,-0.0243,
31.463839,-1.0271,0.2065,-1.6379,-0.7098,-0.3671,0.0716,
31.510047,-1.0271,0.2065,-1.6379,-0.7098,-0.3671,0.0716,
31.511284,-0.7200,-1.9784,-0.6744,-0.7098,-0.3671,0.0716,
31.529478,-0.7200,-1.9784,-0.6744,-0.5750,0.4696,0.1052,
31.575072,-0.7200,-1.9784,-0.6744,-0.5750,0.4696,0.1052,
31.577058,-1.0982,1.2264,0.5559,-0.5750,0.4696,0.1052,
31.595635,-1.0982,1.2264,0.5559,-0.5098,0.4563,0.0996,
31.641854,-1.0982,1.2264,0.5559,-0.5098,0.4563,0.0996,
31.643283,-0.7826,0.0909,-0.3597,-0.5098,0.4563,0.0996,
31.659528,-0.7826,0.0909,-0.3597,-0.5689,0.3161,0.1213,
31.705438,-0.7826,0.0909,-0.3597,-0.5689,0.3161,0.1213,
31.706958,-0.4019,-0.6537,0.0631,-0.5689,0.3161,0.1213,
31.725445,-0.4019,-0.6537,0.0631,-0.3861,0.6089,0.0808,
31.771148,-0.4019,-0.6537,0.0631,-0.3861,0.6089,0.0808,
31.773651,-0.4285,0.1474,0.4224,-0.3861,0.6089,0.0808,
31.790672,-0.4285,0.1474,0.4224,-0.4198,0.4966,0.2150,
31.837155,-0.4285,0.1474,0.4224,-0.4198,0.4966,0.2150,
31.838217,0.0729,-0.8982,0.2942,-0.4198,0.4966,0.2150,
31.857489,0.0729,-0.8982,0.2942,-0.3346,0.6403,0.2753,
31.903934,0.0729,-0.8982,0.2942,-0.3346,0.6403,0.2753,
31.905897,0.3743,0.0574,0.4334,-0.3346,0.6403,0.2753,
31.921484,0.3743,0.0574,0.4334,-0.2466,0.8305,0.2827,
31.967230,0.3743,0.0574,0.4334,-0.2466,0.8305,0.2827,
31.969078,0.0209,-0.4371,0.4497,-0.2466,0.8305,0.2827,
31.986662,0.0209,-0.4371,0.4497,-0.1657,0.9015,0.2217,
32.032526,0.0209,-0.4371,0.4497,-0.1657,0.9015,0.2217,
32.033625,-0.3096,-0.5309,0.6828,-0.1657,0.9015,0.2217,
32.053491,-0.3096,-0.5309,0.6828,0.0344,0.8638,0.1416,
32.099407,-0.3096,-0.5309,0.6828,0.0344,0.8638,0.1416,
32.101276,-0.4665,-1.0029,0.7586,0.0344,0.8638,0.1416,
32.118598,-0.4665,-1.0029,0.7586,0.1669,0.6933,0.1352,
32.163970,-0.4665,-1.0029,0.7586,0.1669,0.6933,0.1352,
32.165996,-0.4770,-1.8311,1.1176,0.1669,0.6933,0.1352,
32.184104,-0.4770,-1.8311,1.1176,0.3198,0.4861,0.0896,
32.228312,-0.4770,-1.8311,1.1176,0.3198,0.4861,0.0896,
32.228885,0.1445,-2.4585,1.2908,0.3198,0.4861,0.0896,
32.248524,0.1445,-2.4585,1.2908,0.5308,0.5472,0.0312,
32.294966,0.1445,-2.4585,1.2908,0.5308,0.5472,0.0312,
32.296746,-0.6720,6.9913,-1.1263,0.5308,0.5472,0.0312,
32.314939,-0.6720,6.9913,-1.1263,0.5780,-0.2728,-0.4873,
32.361065,-0.6720,6.9913,-1.1263,0.5780,-0.2728,-0.4873,
32.362477,-1.3097,1.3644,-2.0602,0.5780,-0.2728,-0.4873,
32.380847,-1.3097,1.3644,-2.0602,1.0205,0.1225,0.1000,
32.426761,-1.3097,1.3644,-2.0602,1.0205,0.1225,0.1000,
32.428896,1.5142,0.3024,-0.0126,1.0205,0.1225,0.1000,
32.445816,1.5142,0.3024,-0.0126,1.3060,-0.0215,-0.0635,
32.492931,1.5142,0.3024,-0.0126,1.3060,-0.0215,-0.0635,
32.494872,0.9838,-1.3957,-1.1756,1.3060,-0.0215,-0.0635,
32.512105,0.9838,-1.3957,-1.1756,0.7245,0.2135,-0.4455,
32.558492,0.9838,-1.3957,-1.1756,0.7245,0.2135,-0.4455,
32.560823,-0.3667,-0.8416,-0.0631,0.7245,0.2135,-0.4455,
32.577132,-0.3667,-0.8416,-0.0631,0.4717,0.2173,-0.0722,
32.622852,-0.3667,-0.8416,-0.0631,0.4717,0.2173,-0.0722,
32.624369,0.2770,0.2775,-1.2077,0.4717,0.2173,-0.0722,
32.641733,0.2770,0.2775,-1.2077,0.3288,0.1704,-0.0417,
32.688409,0.2770,0.2775,-1.2077,0.3288,0.1704,-0.0417,
32.689581,0.2073,-0.5940,-0.3485,0.3288,0.1704,-0.0417,
32.707690,0.2073,-0.5940,-0.3485,0.2564,0.1455,0.1403,
32.754415,0.2073,-0.5940,-0.3485,0.2564,0.1455,0.1403,
32.755608,0.4169,-0.0392,-0.3770,0.2564,0.1455,0.1403,
32.774157,0.4169,-0.0392,-0.3770,0.1801,0.0035,0.1529,
32.818578,0.4169,-0.0392,-0.3770,0.1801,0.0035,0.1529,
32.819663,0.1458,0.0226,-0.0675,0.1801,0.0035,0.1529,
32.838008,0.1458,0.0226,-0.0675,-0.0310,-0.1513,0.1695,
32.884547,0.1458,0.0226,-0.0675,-0.0310,-0.1513,0.1695,
32.886901,0.1802,-0.0123,-0.1149,-0.0310,-0.1513,0.1695,
32.904512,0.1802,-0.0123,-0.1149,-0.0403,-0.3479,0.2141,
32.948626,0.1802,-0.0123,-0.1149,-0.0403,-0.3479,0.2141,
32.949892,0.6651,-0.1051,-0.5652,-0.0403,-0.3479,0.2141,
32.969639,0.6651,-0.1051,-0.5652,-0.0727,-0.3622,0.1336,
33.015331,0.6651,-0.1051,-0.5652,-0.0727,-0.3622,0.1336,
33.017236,0.9386,-0.2219,-0.4915,-0.0727,-0.3622,0.1336,
33.035325,0.9386,-0.2219,-0.4915,-0.0893,-0.2883,0.0727,
33.081211,0.9386,-0.2219,-0.4915,-0.0893,-0.2883,0.0727,
33.082917,0.9965,-0.1036,-0.4051,-0.0893,-0.2883,0.0727,
33.100927,0.9965,-0.1036,-0.4051,-0.1032,-0.2341,-0.0305,
33.145239,0.9965,-0.1036,-0.4051,-0.1032,-0.2341,-0.0305,
33.145860,1.0021,-0.1338,-0.2857,-0.1032,-0.2341,-0.0305,
33.166080,1.0021,-0.1338,-0.2857,-0.1914,-0.3571,-0.1147,
33.212801,1.0021,-0.1338,-0.2857,-0.1914,-0.3571,-0.1147,
33.218476,1.2561,-0.2446,-0.0362,-0.1914,-0.3571,-0.1147,
33.233796,1.2561,-0.2446,-0.0362,-0.3632,-0.4439,-0.1281,
33.278292,1.2561,-0.2446,-0.0362,-0.3632,-0.4439,-0.1281,
33.279879,0.9399,0.8903,-0.3757,-0.3632,-0.4439,-0.1281,
33.298133,0.9399,0.8903,-0.3757,-0.3870,-0.2103,0.0081,
33.342618,0.9399,0.8903,-0.3757,-0.3870,-0.2103,0.0081,
33.343744,0.1296,0.4047,-0.7293,-0.3870,-0.2103,0.0081,
33.363241,0.1296,0.4047,-0.7293,-0.2995,-0.0020,-0.0522,
33.407926,0.1296,0.4047,-0.7293,-0.2995,-0.0020,-0.0522,
33.409658,-1.2771,-0.5924,-0.6198,-0.2995,-0.0020,-0.0522,
33.428297,-1.2771,-0.5924,-0.6198,-0.5255,-0.1717,0.0096,
33.474028,-1.2771,-0.5924,-0.6198,-0.5255,-0.1717,0.0096,
33.475704,-1.2851,-0.3916,0.0257,-0.5255,-0.1717,0.0096,
33.493077,-1.2851,-0.3916,0.0257,-0.5728,0.1967,0.2700,
33.539211,-1.2851,-0.3916,0.0257,-0.5728,0.1967,0.2700,
33.540943,-0.1788,0.7699,0.0848,-0.5728,0.1967,0.2700,
33.558310,-0.1788,0.7699,0.0848,-0.4433,0.6164,0.2585,
33.603568,-0.1788,0.7699,0.0848,-0.4433,0.6164,0.2585,
33.604846,-0.2049,-0.0624,-0.2076,-0.4433,0.6164,0.2585,
33.625176,-0.2049,-0.0624,-0.2076,-0.4479,0.7756,0.1660,
33.670283,-0.2049,-0.0624,-0.2076,-0.4479,0.7756,0.1660,
33.673186,-0.5410,-0.3286,0.0875,-0.4479,0.7756,0.1660,
33.689135,-0.5410,-0.3286,0.0875,-0.3871,0.8125,0.1532,
33.734857,-0.5410,-0.3286,0.0875,-0.3871,0.8125,0.1532,
33.736030,-0.6230,0.0468,0.1389,-0.3871,0.8125,0.1532,
33.754714,-0.6230,0.0468,0.1389,-0.3684,0.5899,0.2260,
33.801780,-0.6230,0.0468,0.1389,-0.3684,0.5899,0.2260,
33.803375,-0.5419,-0.3122,0.3256,-0.3684,0.5899,0.2260,
33.820470,-0.5419,-0.3122,0.3256,-0.2928,0.4291,0.2225,
33.865311,-0.5419,-0.3122,0.3256,-0.2928,0.4291,0.2225,
33.865795,0.0906,-0.3196,0.4465,-0.2928,0.4291,0.2225,
33.886018,0.0906,-0.3196,0.4465,-0.1359,0.5631,0.1668,
33.932359,0.0906,-0.3196,0.4465,-0.1359,0.5631,0.1668,
33.933537,0.0593,-0.3615,0.5363,-0.1359,0.5631,0.1668,
33.952442,0.0593,-0.3615,0.5363,-0.0347,0.6434,0.1162,
33.997532,0.0593,-0.3615,0.5363,-0.0347,0.6434,0.1162,
33.998743,0.2192,-0.4939,0.4558,-0.0347,0.6434,0.1162,
34.017589,0.2192,-0.4939,0.4558,0.0826,0.7297,0.0499,
34.062827,0.2192,-0.4939,0.4558,0.0826,0.7297,0.0499,
34.063917,-0.2588,-0.3852,0.5952,0.0826,0.7297,0.0499,
34.083140,-0.2588,-0.3852,0.5952,0.1507,0.6148,-0.0284,
34.127823,-0.2588,-0.3852,0.5952,0.1507,0.6148,-0.0284,
34.129720,-0.5478,-0.5844,0.8733,0.1507,0.6148,-0.0284,
34.147760,-0.5478,-0.5844,0.8733,0.2007,0.3152,-0.0817,
34.195058,-0.5478,-0.5844,0.8733,0.2007,0.3152,-0.0817,
34.196923,-0.1004,-0.6685,1.1470,0.2007,0.3152,-0.0817,
34.214742,-0.1004,-0.6685,1.1470,0.3508,0.1932,-0.1184,
34.260452,-0.1004,-0.6685,1.1470,0.3508,0.1932,-0.1184,
34.261443,0.1807,-1.1635,1.4423,0.3508,0.1932,-0.1184,
34.278883,0.1807,-1.1635,1.4423,0.4490,0.0814,-0.0107,
34.324384,0.1807,-1.1635,1.4423,0.4490,0.0814,-0.0107,
34.326246,-0.0614,1.3006,-0.3678,0.4490,0.0814,-0.0107,
34.345080,-0.0614,1.3006,-0.3678,0.0420,-0.0944,-0.3722,
34.391311,-0.0614,1.3006,-0.3678,0.0420,-0.0944,-0.3722,
34.392469,-0.4448,1.5266,-1.2888,0.0420,-0.0944,-0.3722,
34.411548,-0.4448,1.5266,-1.2888,0.8257,-0.1237,-0.1454,
34.455450,-0.4448,1.5266,-1.2888,0.8257,-0.1237,-0.1454,
34.457208,0.2809,1.2331,-0.6324,0.8257,-0.1237,-0.1454,
34.475512,0.2809,1.2331,-0.6324,0.9664,0.0771,0.0254,
34.521751,0.2809,1.2331,-0.6324,0.9664,0.0771,0.0254,
34.523434,-0.4154,0.1308,-0.9125,0.9664,0.0771,0.0254,
34.541235,-0.4154,0.1308,-0.9125,0.8404,-0.1205,-0.0612,
34.589551,-0.4154,0.1308,-0.9125,0.8404,-0.1205,-0.0612,
34.591227,-0.6427,-1.3717,-0.5793,0.8404,-0.1205,-0.0612,
34.605887,-0.6427,-1.3717,-0.5793,0.4548,-0.2870,0.0057,
34.652418,-0.6427,-1.3717,-0.5793,0.4548,-0.2870,0.0057,
34.654152,-0.2911,-0.9452,-1.0639,0.4548,-0.2870,0.0057,
34.672842,-0.2911,-0.9452,-1.0639,0.2926,-0.2758,0.0079,
34.717677,-0.2911,-0.9452,-1.0639,0.2926,-0.2758,0.0079,
34.719367,0.0082,0.0711,-0.9012,0.2926,-0.2758,0.0079,
34.737753,0.0082,0.0711,-0.9012,0.1093,-0.3348,0.1164,
34.783625,0.0082,0.0711,-0.9012,0.1093,-0.3348,0.1164,
34.785512,-0.1606,-0.1874,-0.7341,0.1093,-0.3348,0.1164,
34.802049,-0.1606,-0.1874,-0.7341,0.1219,-0.4737,0.1509,
34.849298,-0.1606,-0.1874,-0.7341,0.1219,-0.4737,0.1509,
34.851323,0.3277,-0.2335,-0.5715,0.1219,-0.4737,0.1509,
34.869556,0.3277,-0.2335,-0.5715,0.0443,-0.4360,0.1150,
34.913458,0.3277,-0.2335,-0.5715,0.0443,-0.4360,0.1150,
34.913989,0.5407,0.1073,-0.3405,0.0443,-0.4360,0.1150,
34.934168,0.5407,0.1073,-0.3405,-0.0209,-0.3447,0.1087,
34.980431,0.5407,0.1073,-0.3405,-0.0209,-0.3447,0.1087,
34.981620,0.7462,-0.2619,-0.3246,-0.0209,-0.3447,0.1087,
34.999058,0.7462,-0.2619,-0.3246,-0.0786,-0.2657,0.0768,
35.045285,0.7462,-0.2619,-0.3246,-0.0786,-0.2657,0.0768,
35.046999,0.9142,-0.2428,-0.2608,-0.0786,-0.2657,0.0768,
35.065428,0.9142,-0.2428,-0.2608,-0.1472,-0.2320,-0.0519,
35.111211,0.9142,-0.2428,-0.2608,-0.1472,-0.2320,-0.0519,
35.112596,1.3045,-0.2613,-0.3470,-0.1472,-0.2320,-0.0519,
35.131781,1.3045,-0.2613,-0.3470,-0.2401,-0.2329,-0.2379,
35.177208,1.3045,-0.2613,-0.3470,-0.2401,-0.2329,-0.2379,
35.178472,1.3498,-0.3062,-0.1233,-0.2401,-0.2329,-0.2379,
35.196585,1.3498,-0.3062,-0.1233,-0.2590,-0.3549,-0.3833,
35.241257,1.3498,-0.3062,-0.1233,-0.2590,-0.3549,-0.3833,
35.242363,1.2844,1.1023,-0.0645,-0.2590,-0.3549,-0.3833,
35.261628,1.2844,1.1023,-0.0645,-0.2946,-0.3974,-0.1463,
35.306984,1.2844,1.1023,-0.0645,-0.2946,-0.3974,-0.1463,
35.308482,1.0795,0.8239,-0.6669,-0.2946,-0.3974,-0.1463,
35.327316,1.0795,0.8239,-0.6669,-0.1717,0.3465,0.0411,
35.373956,1.0795,0.8239,-0.6669,-0.1717,0.3465,0.0411,
35.375663,-0.6550,0.0178,-0.0695,-0.1717,0.3465,0.0411,
35.392548,-0.6550,0.0178,-0.0695,-0.1590,0.1897,-0.2231,
35.440497,-0.6550,0.0178,-0.0695,-0.1590,0.1897,-0.2231,
35.441965,-0.7728,-1.0237,-0.4185,-0.1590,0.1897,-0.2231,
35.458194,-0.7728,-1.0237,-0.4185,-0.3485,0.2520,-0.1003,
35.503741,-0.7728,-1.0237,-0.4185,-0.3485,0.2520,-0.1003,
35.505169,-1.2364,0.0995,-0.0580,-0.3485,0.2520,-0.1003,
35.523582,-1.2364,0.0995,-0.0580,-0.4661,0.3175,0.2388,
35.568364,-1.2364,0.0995,-0.0580,-0.4661,0.3175,0.2388,
35.570271,-0.9968,0.2824,-0.3562,-0.4661,0.3175,0.2388,
35.588593,-0.9968,0.2824,-0.3562,-0.6982,0.1950,0.3522,
35.635651,-0.9968,0.2824,-0.3562,-0.6982,0.1950,0.3522,
35.637485,-0.5724,-0.2160,0.4484,-0.6982,0.1950,0.3522,
35.654642,-0.5724,-0.2160,0.4484,-0.6292,0.2253,0.3705,
35.698993,-0.5724,-0.2160,0.4484,-0.6292,0.2253,0.3705,
35.699563,0.3464,-0.0852,0.1598,-0.6292,0.2253,0.3705,
35.720286,0.3464,-0.0852,0.1598,-0.4249,0.5705,0.3048,
35.765462,0.3464,-0.0852,0.1598,-0.4249,0.5705,0.3048,
35.766590,0.0818,-0.1197,0.1471,-0.4249,0.5705,0.3048,
35.785320,0.0818,-0.1197,0.1471,-0.3746,0.7336,0.2569,
35.831117,0.0818,-0.1197,0.1471,-0.3746,0.7336,0.2569,
35.833165,-0.4012,-0.0666,0.2436,-0.3746,0.7336,0.2569,
35.850363,-0.4012,-0.0666,0.2436,-0.2862,0.7427,0.2311,
35.897118,-0.4012,-0.0666,0.2436,-0.2862,0.7427,0.2311,
35.898294,-0.3966,-0.0523,0.2321,-0.2862,0.7427,0.2311,
35.915535,-0.3966,-0.0523,0.2321,-0.2599,0.6677,0.2437,
35.961738,-0.3966,-0.0523,0.2321,-0.2599,0.6677,0.2437,
35.963517,-0.2858,-0.1448,0.2721,-0.2599,0.6677,0.2437,
35.983801,-0.2858,-0.1448,0.2721,-0.2242,0.7095,0.2366,
36.029041,-0.2858,-0.1448,0.2721,-0.2242,0.7095,0.2366,
36.030925,-0.4053,-0.2211,0.3644,-0.2242,0.7095,0.2366,
36.047016,-0.4053,-0.2211,0.3644,-0.2274,0.5606,0.2256,
36.093748,-0.4053,-0.2211,0.3644,-0.2274,0.5606,0.2256,
36.095933,-0.3095,-0.5156,0.4222,-0.2274,0.5606,0.2256,
36.113936,-0.3095,-0.5156,0.4222,-0.1019,0.4438,0.2001,
36.159414,-0.3095,-0.5156,0.4222,-0.1019,0.4438,0.2001,
36.162658,-0.0689,-0.6033,0.4964,-0.1019,0.4438,0.2001,
36.179540,-0.0689,-0.6033,0.4964,0.0142,0.4206,0.0786,
36.224591,-0.0689,-0.6033,0.4964,0.0142,0.4206,0.0786,
36.226179,-0.1255,-0.5687,0.7224,0.0142,0.4206,0.0786,
36.243740,-0.1255,-0.5687,0.7224,0.0663,0.3395,0.0162,
36.289421,-0.1255,-0.5687,0.7224,0.0663,0.3395,0.0162,
36.291214,0.0449,-0.5944,1.0742,0.0663,0.3395,0.0162,
36.308872,0.0449,-0.5944,1.0742,0.1964,0.3096,-0.0197,
36.355649,0.0449,-0.5944,1.0742,0.1964,0.3096,-0.0197,
36.357674,-0.0346,-1.0407,1.2580,0.1964,0.3096,-0.0197,
36.377030,-0.0346,-1.0407,1.2580,0.3184,0.3355,-0.1190,
36.419057,-0.0346,-1.0407,1.2580,0.3184,0.3355,-0.1190,
36.421371,-0.0026,-1.4164,1.6613,0.3184,0.3355,-0.1190,
36.440915,-0.0026,-1.4164,1.6613,0.4870,0.3352,-0.1684,
36.485830,-0.0026,-1.4164,1.6613,0.4870,0.3352,-0.1684,
36.489126,-0.0907,1.6182,-0.1576,0.4870,0.3352,-0.1684,
36.505306,-0.0907,1.6182,-0.1576,0.2886,-0.0331,-0.5789,
36.550874,-0.0907,1.6182,-0.1576,0.2886,-0.0331,-0.5789,
36.551573,-0.5581,2.4186,-1.8553,0.2886,-0.0331,-0.5789,
36.570121,-0.5581,2.4186,-1.8553,1.1281,-0.0144,-0.2679,
36.616240,-0.5581,2.4186,-1.8553,1.1281,-0.0144,-0.2679,
36.616973,0.9189,-0.2169,-0.4470,1.1281,-0.0144,-0.2679,
36.635949,0.9189,-0.2169,-0.4470,1.1608,0.5857,0.2195,
36.681723,0.9189,-0.2169,-0.4470,1.1608,0.5857,0.2195,
36.682364,-0.1864,-1.1834,-0.9633,1.1608,0.5857,0.2195,
36.700888,-0.1864,-1.1834,-0.9633,0.8256,0.1901,-0.3204,
36.746857,-0.1864,-1.1834,-0.9633,0.8256,0.1901,-0.3204,
36.747775,-0.7366,-0.7798,-0.2342,0.8256,0.1901,-0.3204,
36.767133,-0.7366,-0.7798,-0.2342,0.2028,-0.1086,0.1260,
36.813765,-0.7366,-0.7798,-0.2342,0.2028,-0.1086,0.1260,
36.814591,0.6133,-0.3898,-1.1524,0.2028,-0.1086,0.1260,
36.831391,0.6133,-0.3898,-1.1524,0.2746,-0.1139,0.1185,
36.878864,0.6133,-0.3898,-1.1524,0.2746,-0.1139,0.1185,
36.879652,0.2565,-0.0784,-1.0871,0.2746,-0.1139,0.1185,
36.898291,0.2565,-0.0784,-1.0871,0.1691,-0.1576,0.1399,
36.944612,0.2565,-0.0784,-1.0871,0.1691,-0.1576,0.1399,
36.945732,-0.2986,-0.4469,-0.5213,0.1691,-0.1576,0.1399,
36.964530,-0.2986,-0.4469,-0.5213,0.1628,-0.4197,0.1622,
37.009869,-0.2986,-0.4469,-0.5213,0.1628,-0.4197,0.1622,
37.010969,0.5067,0.1620,-0.6898,0.1628,-0.4197,0.1622,
37.028004,0.5067,0.1620,-0.6898,0.0284,-0.3346,0.0421,
37.075121,0.5067,0.1620,-0.6898,0.0284,-0.3346,0.0421,
37.076112,0.4784,-0.2967,-0.2379,0.0284,-0.3346,0.0421,
37.094878,0.4784,-0.2967,-0.2379,0.0037,-0.2998,-0.0455,
37.140356,0.4784,-0.2967,-0.2379,0.0037,-0.2998,-0.0455,
37.142006,0.4273,0.0610,0.0052,0.0037,-0.2998,-0.0455,
37.160897,0.4273,0.0610,0.0052,-0.0298,-0.5330,0.0874,
37.205572,0.4273,0.0610,0.0052,-0.0298,-0.5330,0.0874,
37.206673,1.2739,-0.0558,-0.1994,-0.0298,-0.5330,0.0874,
37.225412,1.2739,-0.0558,-0.1994,-0.0657,-0.5145,0.0559,
37.272550,1.2739,-0.0558,-0.1994,-0.0657,-0.5145,0.0559,
37.273712,1.4057,-0.3781,-0.1894,-0.0657,-0.5145,0.0559,
37.291378,1.4057,-0.3781,-0.1894,-0.2469,-0.4711,-0.0854,
37.335938,1.4057,-0.3781,-0.1894,-0.2469,-0.4711,-0.0854,
37.336588,1.5117,0.0441,0.2114,-0.2469,-0.4711,-0.0854,
37.357056,1.5117,0.0441,0.2114,-0.5333,-0.4213,-0.1136,
37.401608,1.5117,0.0441,0.2114,-0.5333,-0.4213,-0.1136,
37.402709,1.4880,0.9368,-0.8607,-0.5333,-0.4213,-0.1136,
37.423973,1.4880,0.9368,-0.8607,-0.5928,0.0863,0.1009,
37.468923,1.4880,0.9368,-0.8607,-0.5928,0.0863,0.1009,
37.470706,-0.6409,0.9910,-1.1782,-0.5928,0.0863,0.1009,
37.488042,-0.6409,0.9910,-1.1782,-0.7544,0.5163,0.0612,
37.532851,-0.6409,0.9910,-1.1782,-0.7544,0.5163,0.0612,
37.534600,-1.9196,-0.3880,-0.2031,-0.7544,0.5163,0.0612,
37.552522,-1.9196,-0.3880,-0.2031,-0.8598,0.1678,0.0903,
37.598830,-1.9196,-0.3880,-0.2031,-0.8598,0.1678,0.0903,
37.600505,-0.3773,0.3878,-0.2945,-0.8598,0.1678,0.0903,
37.618255,-0.3773,0.3878,-0.2945,-0.5967,0.6350,-0.0069,
37.664890,-0.3773,0.3878,-0.2945,-0.5967,0.6350,-0.0069,
37.666815,-0.7995,-0.1533,-0.4948,-0.5967,0.6350,-0.0069,
37.683290,-0.7995,-0.1533,-0.4948,-0.5160,0.8309,0.0988,
37.730601,-0.7995,-0.1533,-0.4948,-0.5160,0.8309,0.0988,
37.732427,-0.9235,-0.8417,-0.5008,-0.5160,0.8309,0.0988,
37.749193,-0.9235,-0.8417,-0.5008,-0.5414,0.5953,0.1845,
37.795964,-0.9235,-0.8417,-0.5008,-0.5414,0.5953,0.1845,
37.797602,-1.4233,-0.3670,0.1920,-0.5414,0.5953,0.1845,
37.817173,-1.4233,-0.3670,0.1920,-0.4297,0.1432,0.2364,
37.862045,-1.4233,-0.3670,0.1920,-0.4297,0.1432,0.2364,
37.863773,-0.6664,-0.0130,-0.0078,-0.4297,0.1432,0.2364,
37.881214,-0.6664,-0.0130,-0.0078,-0.4146,-0.1220,0.3378,
37.927761,-0.6664,-0.0130,-0.0078,-0.4146,-0.1220,0.3378,
37.930083,-0.1035,-0.2253,0.1973,-0.4146,-0.1220,0.3378,
37.945386,-0.1035,-0.2253,0.1973,-0.2763,0.0461,0.2288,
37.991226,-0.1035,-0.2253,0.1973,-0.2763,0.0461,0.2288,
37.993061,0.0312,0.0390,0.3824,-0.2763,0.0461,0.2288,
38.011861,0.0312,0.0390,0.3824,-0.2211,0.1220,0.1202,
38.057519,0.0312,0.0390,0.3824,-0.2211,0.1220,0.1202,
38.059118,-0.0962,-0.1330,0.2181,-0.2211,0.1220,0.1202,
38.076652,-0.0962,-0.1330,0.2181,-0.2569,0.1410,0.1087,
38.122815,-0.0962,-0.1330,0.2181,-0.2569,0.1410,0.1087,
38.124596,-0.1247,-0.4921,0.2884,-0.2569,0.1410,0.1087,
38.142317,-0.1247,-0.4921,0.2884,-0.1892,0.1272,0.0626,
38.188058,-0.1247,-0.4921,0.2884,-0.1892,0.1272,0.0626,
38.189962,0.1176,-0.6329,0.5205,-0.1892,0.1272,0.0626,
38.207443,0.1176,-0.6329,0.5205,-0.1396,0.0959,0.0003,
38.254299,0.1176,-0.6329,0.5205,-0.1396,0.0959,0.0003,
38.255464,0.1926,-0.5218,0.6847,-0.1396,0.0959,0.0003,
38.272927,0.1926,-0.5218,0.6847,-0.0345,0.1649,0.0099,
38.318250,0.1926,-0.5218,0.6847,-0.0345,0.1649,0.0099,
38.319978,0.0513,-0.7578,0.8070,-0.0345,0.1649,0.0099,
38.339140,0.0513,-0.7578,0.8070,-0.0092,0.1510,0.0163,
38.385160,0.0513,-0.7578,0.8070,-0.0092,0.1510,0.0163,
38.386759,0.4426,-1.1353,1.5386,-0.0092,0.1510,0.0163,
38.403833,0.4426,-1.1353,1.5386,0.2230,0.2100,-0.0057,
38.450305,0.4426,-1.1353,1.5386,0.2230,0.2100,-0.0057,
38.452533,0.7209,-1.7630,1.8788,0.2230,0.2100,-0.0057,
38.468698,0.7209,-1.7630,1.8788,0.6045,0.6257,-0.0872,
38.515544,0.7209,-1.7630,1.8788,0.6045,0.6257,-0.0872,
38.517160,0.4215,-1.5909,2.0245,0.6045,0.6257,-0.0872,
38.535143,0.4215,-1.5909,2.0245,0.5191,0.6080,-0.0118,
38.581672,0.4215,-1.5909,2.0245,0.5191,0.6080,-0.0118,
38.583297,-1.3736,2.8723,-1.1143,0.5191,0.6080,-0.0118,
38.600525,-1.3736,2.8723,-1.1143,-0.3621,-0.3204,-0.3596,
38.646358,-1.3736,2.8723,-1.1143,-0.3621,-0.3204,-0.3596,
38.648394,-0.8836,2.5178,-1.8848,-0.3621,-0.3204,-0.3596,
38.666055,-0.8836,2.5178,-1.8848,0.5446,-0.2124,0.1240,
38.712657,-0.8836,2.5178,-1.8848,0.5446,-0.2124,0.1240,
38.714276,1.2856,0.6254,-0.3732,0.5446,-0.2124,0.1240,
38.732408,1.2856,0.6254,-0.3732,1.0466,-0.1497,-0.3041,
38.778533,1.2856,0.6254,-0.3732,1.0466,-0.1497,-0.3041,
38.780310,-0.5998,0.5114,-1.4101,1.0466,-0.1497,-0.3041,
38.799156,-0.5998,0.5114,-1.4101,0.6800,-0.5759,-0.2963,
38.843184,-0.5998,0.5114,-1.4101,0.6800,-0.5759,-0.2963,
38.845218,-0.6385,-0.7882,-0.5289,0.6800,-0.5759,-0.2963,
38.862478,-0.6385,-0.7882,-0.5289,0.4835,-0.6367,0.2543,
38.908641,-0.6385,-0.7882,-0.5289,0.4835,-0.6367,0.2543,
38.910607,0.4425,-1.1060,-1.3106,0.4835,-0.6367,0.2543,
38.927459,0.4425,-1.1060,-1.3106,0.4042,-0.3951,0.0360,
38.974174,0.4425,-1.1060,-1.3106,0.4042,-0.3951,0.0360,
38.975851,-0.1168,-0.7256,-0.8330,0.4042,-0.3951,0.0360,
38.995393,-0.1168,-0.7256,-0.8330,0.1958,-0.2166,0.0974,
39.039601,-0.1168,-0.7256,-0.8330,0.1958,-0.2166,0.0974,
39.041348,-0.1581,0.3079,-0.8409,0.1958,-0.2166,0.0974,
39.061032,-0.1581,0.3079,-0.8409,-0.0005,-0.3713,0.2204,
39.105100,-0.1581,0.3079,-0.8409,-0.0005,-0.3713,0.2204,
39.106910,0.1183,-0.1741,-0.4681,-0.0005,-0.3713,0.2204,
39.124289,0.1183,-0.1741,-0.4681,-0.1040,-0.5620,0.1294,
39.169939,0.1183,-0.1741,-0.4681,-0.1040,-0.5620,0.1294,
39.172897,0.7440,-0.2144,-0.1810,-0.1040,-0.5620,0.1294,
39.189820,0.7440,-0.2144,-0.1810,-0.2378,-0.6185,0.1119,
39.237226,0.7440,-0.2144,-0.1810,-0.2378,-0.6185,0.1119,
39.239119,1.3257,-0.9462,-0.1076,-0.2378,-0.6185,0.1119,
39.256632,1.3257,-0.9462,-0.1076,-0.3610,-0.3239,0.0571,
39.302000,1.3257,-0.9462,-0.1076,-0.3610,-0.3239,0.0571,
39.303195,1.1391,-0.9559,-0.5937,-0.3610,-0.3239,0.0571,
39.321823,1.1391,-0.9559,-0.5937,-0.4088,0.0603,-0.0228,
39.369283,1.1391,-0.9559,-0.5937,-0.4088,0.0603,-0.0228,
39.371228,-2.1863,2.8489,-0.7035,-0.4088,0.0603,-0.0228,
39.385928,-2.1863,2.8489,-0.7035,-0.7330,-0.3070,0.2888,
39.433739,-2.1863,2.8489,-0.7035,-0.7330,-0.3070,0.2888,
39.436497,-1.7240,-0.0080,-1.6412,-0.7330,-0.3070,0.2888,
39.451191,-1.7240,-0.0080,-1.6412,-1.2300,-1.0475,0.3476,
39.499077,-1.7240,-0.0080,-1.6412,-1.2300,-1.0475,0.3476,
39.501335,0.2013,-0.2044,0.6560,-1.2300,-1.0475,0.3476,
39.518105,0.2013,-0.2044,0.6560,-0.6562,-0.4633,0.0693,
39.563033,0.2013,-0.2044,0.6560,-0.6562,-0.4633,0.0693,
39.564769,0.8715,0.4696,-0.2497,-0.6562,-0.4633,0.0693,
39.583910,0.8715,0.4696,-0.2497,-0.5162,0.2737,-0.1941,
39.629960,0.8715,0.4696,-0.2497,-0.5162,0.2737,-0.1941,
39.631765,-0.6734,-0.7043,0.2833,-0.5162,0.2737,-0.1941,
39.649941,-0.6734,-0.7043,0.2833,-0.3021,0.4087,-0.0903,
39.693418,-0.6734,-0.7043,0.2833,-0.3021,0.4087,-0.0903,
39.694098,-0.4212,-0.5103,0.1904,-0.3021,0.4087,-0.0903,
39.717446,-0.4212,-0.5103,0.1904,-0.1527,0.4420,-0.0241,
39.760925,-0.4212,-0.5103,0.1904,-0.1527,0.4420,-0.0241,
39.762674,-0.2372,-0.0416,0.0671,-0.1527,0.4420,-0.0241,
39.780377,-0.2372,-0.0416,0.0671,-0.1875,0.3821,0.0385,
39.827872,-0.2372,-0.0416,0.0671,-0.1875,0.3821,0.0385,
39.830264,-0.0163,-0.7067,0.2156,-0.1875,0.3821,0.0385,
39.844965,-0.0163,-0.7067,0.2156,0.0515,0.6045,0.0188,
39.891605,-0.0163,-0.7067,0.2156,0.0515,0.6045,0.0188,
39.893078,-0.3098,-0.1027,0.2018,0.0515,0.6045,0.0188,
39.913027,-0.3098,-0.1027,0.2018,0.0889,0.5678,0.0692,
39.955405,-0.3098,-0.1027,0.2018,0.0889,0.5678,0.0692,
39.956527,-0.8012,-0.2789,0.2769,0.0889,0.5678,0.0692,
39.976523,-0.8012,-0.2789,0.2769,0.0417,0.4302,0.0718,
40.023763,-0.8012,-0.2789,0.2769,0.0417,0.4302,0.0718,
40.025699,-0.6542,-0.3344,0.5497,0.0417,0.4302,0.0718,
40.041355,-0.6542,-0.3344,0.5497,0.0302,0.1788,0.0903,
40.087953,-0.6542,-0.3344,0.5497,0.0302,0.1788,0.0903,
40.089907,0.0704,-0.6086,0.8678,0.0302,0.1788,0.0903,
40.107293,0.0704,-0.6086,0.8678,0.2460,0.1804,-0.0913,
40.152009,0.0704,-0.6086,0.8678,0.2460,0.1804,-0.0913,
40.153608,0.3838,-1.4510,1.1817,0.2460,0.1804,-0.0913,
40.172296,0.3838,-1.4510,1.1817,0.4713,0.2495,-0.2589,
40.217084,0.3838,-1.4510,1.1817,0.4713,0.2495,-0.2589,
40.218242,-0.0474,-1.3538,1.5736,0.4713,0.2495,-0.2589,
40.237649,-0.0474,-1.3538,1.5736,0.6735,0.2228,-0.3795,
40.284503,-0.0474,-1.3538,1.5736,0.6735,0.2228,-0.3795,
40.286420,-0.0762,-0.7366,1.8634,0.6735,0.2228,-0.3795,
40.301796,-0.0762,-0.7366,1.8634,0.5536,-0.0304,-0.4244,
40.348103,-0.0762,-0.7366,1.8634,0.5536,-0.0304,-0.4244,
40.349999,1.8244,-0.2900,3.0753,0.5536,-0.0304,-0.4244,
40.368583,1.8244,-0.2900,3.0753,0.1862,0.1927,-0.1138,
40.414328,1.8244,-0.2900,3.0753,0.1862,0.1927,-0.1138,
40.416453,0.4758,3.6166,1.7216,0.1862,0.1927,-0.1138,
40.434369,0.4758,3.6166,1.7216,0.9018,-0.0834,-0.4534,
40.479213,0.4758,3.6166,1.7216,0.9018,-0.0834,-0.4534,
40.480021,-0.5675,2.9860,-1.0152,0.9018,-0.0834,-0.4534,
40.499714,-0.5675,2.9860,-1.0152,0.9018,0.1436,0.3656,
40.545645,-0.5675,2.9860,-1.0152,0.9018,0.1436,0.3656,
40.547247,0.5245,1.1285,-2.2740,0.9018,0.1436,0.3656,
40.567670,0.5245,1.1285,-2.2740,0.7077,0.1920,0.2329,
40.611649,0.5245,1.1285,-2.2740,0.7077,0.1920,0.2329,
40.612772,-1.6585,0.4314,-2.4959,0.7077,0.1920,0.2329,
40.632515,-1.6585,0.4314,-2.4959,-0.4424,-0.0802,-0.3074,
40.678740,-1.6585,0.4314,-2.4959,-0.4424,-0.0802,-0.3074,
40.681259,-1.7538,-2.7920,-1.5509,-0.4424,-0.0802,-0.3074,
40.696873,-1.7538,-2.7920,-1.5509,-1.1377,-0.3076,0.2848,
40.744728,-1.7538,-2.7920,-1.5509,-1.1377,-0.3076,0.2848,
40.746817,-0.7486,-7.5413,-0.6979,-1.1377,-0.3076,0.2848,
40.763220,-0.7486,-7.5413,-0.6979,-1.5757,-0.2888,0.8850,
40.807497,-0.7486,-7.5413,-0.6979,-1.5757,-0.2888,0.8850,
40.809083,-0.6472,8.0415,5.7222,-1.5757,-0.2888,0.8850,
40.826745,-0.6472,8.0415,5.7222,0.1326,-1.7036,0.8934,
40.872928,-0.6472,8.0415,5.7222,0.1326,-1.7036,0.8934,
40.875095,2.2787,0.6538,-0.4639,0.1326,-1.7036,0.8934,
40.892651,2.2787,0.6538,-0.4639,-0.3122,-0.7691,0.2967,
40.939790,2.2787,0.6538,-0.4639,-0.3122,-0.7691,0.2967,
40.942548,3.0510,-2.2266,-0.1185,-0.3122,-0.7691,0.2967,
40.958059,3.0510,-2.2266,-0.1185,-0.0163,1.6515,-0.4232,
41.003552,3.0510,-2.2266,-0.1185,-0.0163,1.6515,-0.4232,
41.005414,-1.9237,0.4195,1.1228,-0.0163,1.6515,-0.4232,
41.025409,-1.9237,0.4195,1.1228,-0.8787,1.2304,0.2842,
41.071609,-1.9237,0.4195,1.1228,-0.8787,1.2304,0.2842,
41.074206,-1.3311,-2.8696,2.1875,-0.8787,1.2304,0.2842,
41.088319,-1.3311,-2.8696,2.1875,-0.1145,0.4049,0.1686,
41.134617,-1.3311,-2.8696,2.1875,-0.1145,0.4049,0.1686,
41.136530,-1.3282,-3.0060,-0.3233,-0.1145,0.4049,0.1686,
41.153335,-1.3282,-3.0060,-0.3233,0.3001,0.0034,-1.1377,
41.200448,-1.3282,-3.0060,-0.3233,0.3001,0.0034,-1.1377,
41.202220,0.1391,5.6244,-5.9085,0.3001,0.0034,-1.1377,
41.220712,0.1391,5.6244,-5.9085,-0.0250,0.1860,0.4552,
41.268915,0.1391,5.6244,-5.9085,-0.0250,0.1860,0.4552,
41.270838,-0.9468,-3.6361,-0.6110,-0.0250,0.1860,0.4552,
41.285448,-0.9468,-3.6361,-0.6110,1.0667,0.0838,-0.4117,
41.331420,-0.9468,-3.6361,-0.6110,1.0667,0.0838,-0.4117,
41.332552,-1.0146,-1.6081,-2.7547,1.0667,0.0838,-0.4117,
41.352721,-1.0146,-1.6081,-2.7547,0.6000,-1.2226,-0.1109,
41.396626,-1.0146,-1.6081,-2.7547,0.6000,-1.2226,-0.1109,
41.398659,1.0511,0.4206,-0.3116,0.6000,-1.2226,-0.1109,
41.417932,1.0511,0.4206,-0.3116,0.6216,-0.7515,-0.1426,
41.462198,1.0511,0.4206,-0.3116,0.6216,-0.7515,-0.1426,
41.464381,1.5776,0.6274,0.4372,0.6216,-0.7515,-0.1426,
41.482011,1.5776,0.6274,0.4372,0.8288,-0.7563,-0.2792,
41.527448,1.5776,0.6274,0.4372,0.8288,-0.7563,-0.2792,
41.530148,1.3859,0.0733,-0.4931,0.8288,-0.7563,-0.2792,
41.547824,1.3859,0.0733,-0.4931,0.9027,-0.3483,-0.3653,
41.594171,1.3859,0.0733,-0.4931,0.9027,-0.3483,-0.3653,
41.595876,0.5578,0.4323,0.1193,0.9027,-0.3483,-0.3653,
41.613145,0.5578,0.4323,0.1193,0.5226,-0.2175,-0.0394,
41.660446,0.5578,0.4323,0.1193,0.5226,-0.2175,-0.0394,
41.662664,0.9953,0.1562,-0.0755,0.5226,-0.2175,-0.0394,
41.678849,0.9953,0.1562,-0.0755,0.4166,-0.1295,-0.1009,
41.724503,0.9953,0.1562,-0.0755,0.4166,-0.1295,-0.1009,
41.725607,0.8624,-0.0971,-0.5522,0.4166,-0.1295,-0.1009,
41.744528,0.8624,-0.0971,-0.5522,0.2356,0.3251,-0.1063,
41.789278,0.8624,-0.0971,-0.5522,0.2356,0.3251,-0.1063,
41.790774,0.5964,0.1768,-0.5121,0.2356,0.3251,-0.1063,
41.808086,0.5964,0.1768,-0.5121,0.1625,0.5457,-0.0632,
41.854494,0.5964,0.1768,-0.5121,0.1625,0.5457,-0.0632,
41.855478,0.0745,-0.0224,-0.0628,0.1625,0.5457,-0.0632,
41.873935,0.0745,-0.0224,-0.0628,0.0594,0.4403,-0.0641,
41.921508,0.0745,-0.0224,-0.0628,0.0594,0.4403,-0.0641,
41.922936,-0.3269,0.1680,0.1160,0.0594,0.4403,-0.0641,
41.940559,-0.3269,0.1680,0.1160,-0.1778,-0.0538,-0.0286,
41.985808,-0.3269,0.1680,0.1160,-0.1778,-0.0538,-0.0286,
41.987294,0.3464,-0.2107,0.0849,-0.1778,-0.0538,-0.0286,
42.005938,0.3464,-0.2107,0.0849,-0.2454,-0.4557,0.0489,
42.050611,0.3464,-0.2107,0.0849,-0.2454,-0.4557,0.0489,
42.051578,1.5283,-0.2198,0.0739,-0.2454,-0.4557,0.0489,
42.071391,1.5283,-0.2198,0.0739,-0.2998,-0.5898,0.1061,
42.117646,1.5283,-0.2198,0.0739,-0.2998,-0.5898,0.1061,
42.118928,1.2546,-0.7457,-0.1607,-0.2998,-0.5898,0.1061,
42.136668,1.2546,-0.7457,-0.1607,-0.5693,-0.5893,0.1468,
42.182617,1.2546,-0.7457,-0.1607,-0.5693,-0.5893,0.1468,
42.185162,-1.2717,0.7201,-0.4264,-0.5693,-0.5893,0.1468,
42.202126,-1.2717,0.7201,-0.4264,-0.3745,0.2031,0.4061,
42.247146,-1.2717,0.7201,-0.4264,-0.3745,0.2031,0.4061,
42.247731,-1.2576,2.6310,-0.7284,-0.3745,0.2031,0.4061,
42.266602,-1.2576,2.6310,-0.7284,-0.5467,-0.2390,0.1022,
42.311766,-1.2576,2.6310,-0.7284,-0.5467,-0.2390,0.1022,
42.312977,-0.0082,-0.3918,-0.2735,-0.5467,-0.2390,0.1022,
42.332275,-0.0082,-0.3918,-0.2735,-0.6610,0.3731,0.0163,
42.377698,-0.0082,-0.3918,-0.2735,-0.6610,0.3731,0.0163,
42.378757,0.0677,-1.1961,0.1014,-0.6610,0.3731,0.0163,
42.398529,0.0677,-1.1961,0.1014,-0.3224,0.5487,-0.1552,
42.443367,0.0677,-1.1961,0.1014,-0.3224,0.5487,-0.1552,
42.444448,-1.4063,-0.2769,-0.3170,-0.3224,0.5487,-0.1552,
42.463203,-1.4063,-0.2769,-0.3170,-0.3748,-0.0431,-0.0044,
42.510045,-1.4063,-0.2769,-0.3170,-0.3748,-0.0431,-0.0044,
42.511058,-0.9425,-0.2762,0.2125,-0.3748,-0.0431,-0.0044,
42.529584,-0.9425,-0.2762,0.2125,-0.3951,-0.2301,0.2199,
42.574790,-0.9425,-0.2762,0.2125,-0.3951,-0.2301,0.2199,
42.575851,0.1336,-0.1922,0.1749,-0.3951,-0.2301,0.2199,
42.594424,0.1336,-0.1922,0.1749,-0.3441,-0.0974,0.1834,
42.640730,0.1336,-0.1922,0.1749,-0.3441,-0.0974,0.1834,
42.642209,0.4850,-0.4229,0.2693,-0.3441,-0.0974,0.1834,
42.661486,0.4850,-0.4229,0.2693,-0.2479,0.1486,0.0693,
42.706070,0.4850,-0.4229,0.2693,-0.2479,0.1486,0.0693,
42.708452,0.0249,-0.2816,0.5356,-0.2479,0.1486,0.0693,
42.725608,0.0249,-0.2816,0.5356,-0.1973,0.2037,0.1051,
42.771591,0.0249,-0.2816,0.5356,-0.1973,0.2037,0.1051,
42.773504,-0.3164,-0.5475,0.7020,-0.1973,0.2037,0.1051,
42.790991,-0.3164,-0.5475,0.7020,-0.1443,0.1121,0.1095,
42.837676,-0.3164,-0.5475,0.7020,-0.1443,0.1121,0.1095,
42.839756,0.0731,-0.5575,0.7113,-0.1443,0.1121,0.1095,
42.856277,0.0731,-0.5575,0.7113,-0.0509,0.1694,0.0615,
42.902652,0.0731,-0.5575,0.7113,-0.0509,0.1694,0.0615,
42.904719,0.3261,-0.7762,0.8037,-0.0509,0.1694,0.0615,
42.921935,0.3261,-0.7762,0.8037,0.0458,0.3164,0.0218,
42.967234,0.3261,-0.7762,0.8037,0.0458,0.3164,0.0218,
42.969028,0.2772,-0.5441,0.9961,0.0458,0.3164,0.0218,
42.987366,0.2772,-0.5441,0.9961,-0.0067,0.3520,-0.0527,
43.033063,0.2772,-0.5441,0.9961,-0.0067,0.3520,-0.0527,
43.034069,0.3912,-0.8243,1.3514,-0.0067,0.3520,-0.0527,
43.052536,0.3912,-0.8243,1.3514,0.1707,0.5221,-0.1339,
43.098883,0.3912,-0.8243,1.3514,0.1707,0.5221,-0.1339,
43.100946,0.0176,-1.5717,2.2154,0.1707,0.5221,-0.1339,
43.118393,0.0176,-1.5717,2.2154,0.4508,0.4522,-0.0405,
43.164003,0.0176,-1.5717,2.2154,0.4508,0.4522,-0.0405,
43.166186,0.0859,-2.2559,3.3313,0.4508,0.4522,-0.0405,
43.184586,0.0859,-2.2559,3.3313,0.5145,0.3984,0.0334,
43.231202,0.0859,-2.2559,3.3313,0.5145,0.3984,0.0334,
43.233065,-1.6589,2.5033,-1.7411,0.5145,0.3984,0.0334,
43.251138,-1.6589,2.5033,-1.7411,-0.7631,-0.2043,-0.3960,
43.295358,-1.6589,2.5033,-1.7411,-0.7631,-0.2043,-0.3960,
43.296939,-1.5811,2.5885,-1.1310,-0.7631,-0.2043,-0.3960,
43.315132,-1.5811,2.5885,-1.1310,0.8376,-0.1823,0.3198,
43.360528,-1.5811,2.5885,-1.1310,0.8376,-0.1823,0.3198,
43.362006,1.8825,1.0317,-2.0310,0.8376,-0.1823,0.3198,
43.381018,1.8825,1.0317,-2.0310,0.8997,0.0440,0.0484,
43.426222,1.8825,1.0317,-2.0310,0.8997,0.0440,0.0484,
43.427660,-0.0212,0.0518,-2.3352,0.8997,0.0440,0.0484,
43.446900,-0.0212,0.0518,-2.3352,1.0183,-0.1185,-0.4594,
43.491209,-0.0212,0.0518,-2.3352,1.0183,-0.1185,-0.4594,
43.492757,-0.5583,-0.6445,-1.2667,1.0183,-0.1185,-0.4594,
43.511143,-0.5583,-0.6445,-1.2667,0.7338,-0.2506,-0.0550,
43.558142,-0.5583,-0.6445,-1.2667,0.7338,-0.2506,-0.0550,
43.559130,0.5705,-1.2686,-1.1578,0.7338,-0.2506,-0.0550,
43.576515,0.5705,-1.2686,-1.1578,0.5385,-0.0870,-0.1058,
43.623592,0.5705,-1.2686,-1.1578,0.5385,-0.0870,-0.1058,
43.625390,0.8076,-0.5174,-0.4248,0.5385,-0.0870,-0.1058,
43.642073,0.8076,-0.5174,-0.4248,0.1688,-0.0252,-0.1197,
43.687653,0.8076,-0.5174,-0.4248,0.1688,-0.0252,-0.1197,
43.689601,-0.4259,0.3696,-0.1398,0.1688,-0.0252,-0.1197,
43.707883,-0.4259,0.3696,-0.1398,0.0423,-0.1845,0.0637,
43.753937,-0.4259,0.3696,-0.1398,0.0423,-0.1845,0.0637,
43.755725,-0.1110,0.4590,-0.3270,0.0423,-0.1845,0.0637,
43.775108,-0.1110,0.4590,-0.3270,-0.0444,-0.4612,0.0932,
43.819240,-0.1110,0.4590,-0.3270,-0.0444,-0.4612,0.0932,
43.820525,0.0484,0.0642,-1.0708,-0.0444,-0.4612,0.0932,
43.839080,0.0484,0.0642,-1.0708,-0.1978,-0.6245,0.1167,
43.883518,0.0484,0.0642,-1.0708,-0.1978,-0.6245,0.1167,
43.885110,0.9444,0.2172,-0.9034,-0.1978,-0.6245,0.1167,
43.903840,0.9444,0.2172,-0.9034,-0.2450,-0.4172,0.1874,
43.950828,0.9444,0.2172,-0.9034,-0.2450,-0.4172,0.1874,
43.952104,1.1939,-0.9358,-0.5313,-0.2450,-0.4172,0.1874,
43.969892,1.1939,-0.9358,-0.5313,-0.4604,-0.2598,0.0837,
44.015406,1.1939,-0.9358,-0.5313,-0.4604,-0.2598,0.0837,
44.017054,0.9703,-1.1626,-0.1218,-0.4604,-0.2598,0.0837,
44.035769,0.9703,-1.1626,-0.1218,-0.8806,-0.3865,-0.0254,
44.081629,0.9703,-1.1626,-0.1218,-0.8806,-0.3865,-0.0254,
44.083292,-0.7263,0.0324,-1.8820,-0.8806,-0.3865,-0.0254,
44.100307,-0.7263,0.0324,-1.8820,-1.0261,0.0444,0.4867,
44.147929,-0.7263,0.0324,-1.8820,-1.0261,0.0444,0.4867,
44.149961,-1.1566,2.3166,0.1300,-1.0261,0.0444,0.4867,
44.166915,-1.1566,2.3166,0.1300,-0.6851,-0.5991,0.2498,
44.211381,-1.1566,2.3166,0.1300,-0.6851,-0.5991,0.2498,
44.213039,1.5494,-0.3317,-0.6549,-0.6851,-0.5991,0.2498,
44.231251,1.5494,-0.3317,-0.6549,-0.5745,0.5379,-0.2294,
44.277695,1.5494,-0.3317,-0.6549,-0.5745,0.5379,-0.2294,
44.279404,0.1006,-0.5306,0.0755,-0.5745,0.5379,-0.2294,
44.297289,0.1006,-0.5306,0.0755,-0.5299,0.9719,-0.1637,
44.342796,0.1006,-0.5306,0.0755,-0.5299,0.9719,-0.1637,
44.344658,-1.1831,-0.3839,-0.3738,-0.5299,0.9719,-0.1637,
44.364016,-1.1831,-0.3839,-0.3738,-0.5832,0.6290,0.0255,
44.407380,-1.1831,-0.3839,-0.3738,-0.5832,0.6290,0.0255,
44.408704,-1.0757,-0.2614,-0.1703,-0.5832,0.6290,0.0255,
44.427598,-1.0757,-0.2614,-0.1703,-0.6736,0.2460,0.1338,
44.475229,-1.0757,-0.2614,-0.1703,-0.6736,0.2460,0.1338,
44.477054,0.2111,0.0077,-0.2203,-0.6736,0.2460,0.1338,
44.493124,0.2111,0.0077,-0.2203,-0.5424,0.3949,0.2882,
44.538782,0.2111,0.0077,-0.2203,-0.5424,0.3949,0.2882,
44.540905,0.3654,-0.2934,0.3591,-0.5424,0.3949,0.2882,
44.558923,0.3654,-0.2934,0.3591,-0.4979,0.5256,0.3068,
44.604555,0.3654,-0.2934,0.3591,-0.4979,0.5256,0.3068,
44.606035,0.5428,-0.5605,0.5595,-0.4979,0.5256,0.3068,
44.623579,0.5428,-0.5605,0.5595,-0.3302,0.6680,0.3361,
44.670073,0.5428,-0.5605,0.5595,-0.3302,0.6680,0.3361,
44.671255,0.9802,-1.0511,0.7599,-0.3302,0.6680,0.3361,
44.690138,0.9802,-1.0511,0.7599,-0.0800,0.9792,0.3286,
44.735781,0.9802,-1.0511,0.7599,-0.0800,0.9792,0.3286,
44.737638,1.0828,-0.8674,0.6689,-0.0800,0.9792,0.3286,
44.755634,1.0828,-0.8674,0.6689,0.1425,1.2758,0.2419,
44.802243,1.0828,-0.8674,0.6689,0.1425,1.2758,0.2419,
44.803456,0.5111,-0.7548,0.6631,0.1425,1.2758,0.2419,
44.823001,0.5111,-0.7548,0.6631,0.2610,1.3354,0.2708,
44.868414,0.5111,-0.7548,0.6631,0.2610,1.3354,0.2708,
44.869322,0.4499,-1.0510,0.7921,0.2610,1.3354,0.2708,
44.886295,0.4499,-1.0510,0.7921,0.3354,1.2932,0.2805,
44.931456,0.4499,-1.0510,0.7921,0.3354,1.2932,0.2805,
44.932503,0.6575,-1.8117,1.0724,0.3354,1.2932,0.2805,
44.951422,0.6575,-1.8117,1.0724,0.5956,1.2410,0.3071,
44.997595,0.6575,-1.8117,1.0724,0.5956,1.2410,0.3071,
44.998628,0.4890,-1.1712,1.3450,0.5956,1.2410,0.3071,
45.016675,0.4890,-1.1712,1.3450,0.7303,1.0018,0.3635,
45.063026,0.4890,-1.1712,1.3450,0.7303,1.0018,0.3635,
45.064530,-0.6601,-0.2450,0.6768,0.7303,1.0018,0.3635,
45.082727,-0.6601,-0.2450,0.6768,0.0823,0.7078,-0.4223,
45.128517,-0.6601,-0.2450,0.6768,0.0823,0.7078,-0.4223,
45.130661,-2.9688,3.4427,-1.3344,0.0823,0.7078,-0.4223,
45.151092,-2.9688,3.4427,-1.3344,0.9248,0.0666,0.1307,
45.196005,-2.9688,3.4427,-1.3344,0.9248,0.0666,0.1307,
45.196942,0.9985,-2.2189,0.4165,0.9248,0.0666,0.1307,
45.214953,0.9985,-2.2189,0.4165,1.2188,0.8961,0.4722,
45.261103,0.9985,-2.2189,0.4165,1.2188,0.8961,0.4722,
45.261804,1.8354,-0.0463,-2.3487,1.2188,0.8961,0.4722,
45.279674,1.8354,-0.0463,-2.3487,0.9843,0.6063,-0.1171,
45.326037,1.8354,-0.0463,-2.3487,0.9843,0.6063,-0.1171,
45.326793,-0.8967,-0.3321,-1.1122,0.9843,0.6063,-0.1171,
45.345398,-0.8967,-0.3321,-1.1122,0.2512,0.7679,-0.0615,
45.390803,-0.8967,-0.3321,-1.1122,0.2512,0.7679,-0.0615,
45.391855,-0.6764,-0.9673,-0.9731,0.2512,0.7679,-0.0615,
45.410301,-0.6764,-0.9673,-0.9731,0.2990,0.3603,0.0898,
45.455089,-0.6764,-0.9673,-0.9731,0.2990,0.3603,0.0898,
45.456763,0.9105,-0.0128,-1.0294,0.2990,0.3603,0.0898,
45.475050,0.9105,-0.0128,-1.0294,0.1672,0.4035,-0.0125,
45.520561,0.9105,-0.0128,-1.0294,0.1672,0.4035,-0.0125,
45.521548,-0.0267,-0.0144,-0.1862,0.1672,0.4035,-0.0125,
45.542474,-0.0267,-0.0144,-0.1862,0.0159,0.1147,0.0469,
45.587526,-0.0267,-0.0144,-0.1862,0.0159,0.1147,0.0469,
45.588743,-0.0549,0.0531,-0.3243,0.0159,0.1147,0.0469,
45.607748,-0.0549,0.0531,-0.3243,0.0389,-0.4250,0.0837,
45.653442,-0.0549,0.0531,-0.3243,0.0389,-0.4250,0.0837,
45.654424,0.5885,-0.2570,-0.6114,0.0389,-0.4250,0.0837,
45.672730,0.5885,-0.2570,-0.6114,0.0191,-0.5750,0.1266,
45.718575,0.5885,-0.2570,-0.6114,0.0191,-0.5750,0.1266,
45.719550,1.0032,-0.0913,-0.5378,0.0191,-0.5750,0.1266,
45.738493,1.0032,-0.0913,-0.5378,0.0086,-0.6017,0.0562,
45.783420,1.0032,-0.0913,-0.5378,0.0086,-0.6017,0.0562,
45.784794,1.4246,-0.3502,-0.2603,0.0086,-0.6017,0.0562,
45.803370,1.4246,-0.3502,-0.2603,-0.0478,-0.4296,-0.0228,
45.848762,1.4246,-0.3502,-0.2603,-0.0478,-0.4296,-0.0228,
45.849795,1.2451,-0.1883,0.0775,-0.0478,-0.4296,-0.0228,
45.870301,1.2451,-0.1883,0.0775,-0.1410,-0.3931,-0.1440,
45.914677,1.2451,-0.1883,0.0775,-0.1410,-0.3931,-0.1440,
45.915662,0.9228,0.1958,0.4122,-0.1410,-0.3931,-0.1440,
45.934051,0.9228,0.1958,0.4122,-0.3677,-0.6701,-0.1300,
45.980972,0.9228,0.1958,0.4122,-0.3677,-0.6701,-0.1300,
45.983186,-0.6299,2.5305,-0.5301,-0.3677,-0.6701,-0.1300,
45.999389,-0.6299,2.5305,-0.5301,-0.3480,-0.2115,0.0785,
46.046372,-0.6299,2.5305,-0.5301,-0.3480,-0.2115,0.0785,
46.048789,-1.2768,1.7819,-2.0544,-0.3480,-0.2115,0.0785,
46.064603,-1.2768,1.7819,-2.0544,-0.9867,-0.7734,-0.0147,
46.110874,-1.2768,1.7819,-2.0544,-0.9867,-0.7734,-0.0147,
46.112617,-0.4135,-1.8448,-0.3153,-0.9867,-0.7734,-0.0147,
46.131657,-0.4135,-1.8448,-0.3153,-1.0918,-0.3749,-0.0060,
46.177150,-0.4135,-1.8448,-0.3153,-1.0918,-0.3749,-0.0060,
46.178676,-0.0271,0.2005,0.3199,-1.0918,-0.3749,-0.0060,
46.195926,-0.0271,0.2005,0.3199,-0.8080,-0.0047,-0.0710,
46.243388,-0.0271,0.2005,0.3199,-0.8080,-0.0047,-0.0710,
46.245641,-0.2623,0.0663,-0.3694,-0.8080,-0.0047,-0.0710,
46.261512,-0.2623,0.0663,-0.3694,-0.8318,0.1003,-0.0003,
46.308303,-0.2623,0.0663,-0.3694,-0.8318,0.1003,-0.0003,
46.309572,-0.6504,-0.0517,0.0213,-0.8318,0.1003,-0.0003,
46.325683,-0.6504,-0.0517,0.0213,-0.9381,0.3059,0.1952,
46.372493,-0.6504,-0.0517,0.0213,-0.9381,0.3059,0.1952,
46.373797,0.2960,-0.5454,0.5408,-0.9381,0.3059,0.1952,
46.392543,0.2960,-0.5454,0.5408,-0.7045,0.6127,0.3572,
46.437529,0.2960,-0.5454,0.5408,-0.7045,0.6127,0.3572,
46.439397,0.4536,-0.7330,0.0263,-0.7045,0.6127,0.3572,
46.458175,0.4536,-0.7330,0.0263,-0.4340,0.9194,0.3418,
46.504530,0.4536,-0.7330,0.0263,-0.4340,0.9194,0.3418,
46.506723,0.1674,-0.4604,0.0830,-0.4340,0.9194,0.3418,
46.522769,0.1674,-0.4604,0.0830,-0.2825,0.9332,0.3795,
46.569203,0.1674,-0.4604,0.0830,-0.2825,0.9332,0.3795,
46.570225,0.0051,-0.9321,0.0065,-0.2825,0.9332,0.3795,
46.587983,0.0051,-0.9321,0.0065,-0.0875,0.8457,0.3800,
46.635048,0.0051,-0.9321,0.0065,-0.0875,0.8457,0.3800,
46.635975,0.1751,-1.2366,0.4245,-0.0875,0.8457,0.3800,
46.654456,0.1751,-1.2366,0.4245,0.2074,0.7013,0.3178,
46.700115,0.1751,-1.2366,0.4245,0.2074,0.7013,0.3178,
46.701131,0.5824,-0.8884,0.5371,0.2074,0.7013,0.3178,
46.720452,0.5824,-0.8884,0.5371,0.3998,0.8103,0.2561,
46.766944,0.5824,-0.8884,0.5371,0.3998,0.8103,0.2561,
46.767927,0.7034,-0.5803,0.9849,0.3998,0.8103,0.2561,
46.785439,0.7034,-0.5803,0.9849,0.4611,0.9201,0.2398,
46.831349,0.7034,-0.5803,0.9849,0.4611,0.9201,0.2398,
46.832408,1.0973,-0.9834,1.3010,0.4611,0.9201,0.2398,
46.852254,1.0973,-0.9834,1.3010,0.5660,1.1110,0.2315,
46.897344,1.0973,-0.9834,1.3010,0.5660,1.1110,0.2315,
46.898442,0.9933,-1.7987,1.5910,0.5660,1.1110,0.2315,
46.916765,0.9933,-1.7987,1.5910,0.7958,1.2628,0.2601,
46.961673,0.9933,-1.7987,1.5910,0.7958,1.2628,0.2601,
46.963451,0.6410,-2.4204,2.0327,0.7958,1.2628,0.2601,
