
time,ax,ay,az,wx,wy,wz,
0.027425,0.0000,0.0000,0.0000,-0.0218,-0.0018,0.0516,
0.036192,0.0000,0.0000,0.0000,-0.0206,-0.0018,0.0418,
0.057070,0.0000,0.0000,0.0000,-0.0206,-0.0018,0.0418,
0.102073,0.0000,0.0000,0.0000,-0.0275,-0.0374,0.0269,
0.122182,0.0000,0.0000,0.0000,-0.0275,-0.0374,0.0269,
0.167462,0.0000,0.0000,0.0000,-0.0002,0.0002,-0.0168,
0.187966,0.0000,0.0000,0.0000,-0.0002,0.0002,-0.0168,
0.233285,0.0000,0.0000,0.0000,0.0072,-0.0486,-0.0173,
0.253932,0.0000,0.0000,0.0000,0.0072,-0.0486,-0.0173,
0.298201,0.0000,0.0000,0.0000,0.0003,-0.0588,-0.0139,
0.319649,0.0000,0.0000,0.0000,0.0003,-0.0588,-0.0139,
0.364923,0.0000,0.0000,0.0000,-0.0165,-0.0391,0.0079,
0.385101,0.0000,0.0000,0.0000,-0.0165,-0.0391,0.0079,
0.429264,0.0000,0.0000,0.0000,-0.0029,0.0046,0.0168,
0.450100,0.0000,0.0000,0.0000,-0.0029,0.0046,0.0168,
0.495690,0.0000,0.0000,0.0000,0.0719,0.1381,0.0330,
0.515680,0.0000,0.0000,0.0000,0.0719,0.1381,0.0330,
0.516790,0.0826,-0.0596,0.0032,0.0719,0.1381,0.0330,
0.561341,0.0826,-0.0596,0.0032,0.0925,0.1382,0.0029,
0.581323,0.0826,-0.0596,0.0032,0.0925,0.1382,0.0029,
0.582712,0.1002,-0.1343,0.1738,0.0925,0.1382,0.0029,
0.625668,0.1002,-0.1343,0.1738,0.1289,0.2059,-0.0260,
0.646792,0.1002,-0.1343,0.1738,0.1289,0.2059,-0.0260,
0.647597,-0.1825,0.1580,0.3888,0.1289,0.2059,-0.0260,
0.691357,-0.1825,0.1580,0.3888,0.1416,0.1608,0.0102,
0.713418,-0.1825,0.1580,0.3888,0.1416,0.1608,0.0102,
0.715078,0.0831,0.0025,0.2452,0.1416,0.1608,0.0102,
0.756440,0.0831,0.0025,0.2452,0.1362,0.1379,0.0273,
0.778515,0.0831,0.0025,0.2452,0.1362,0.1379,0.0273,
0.779389,-0.0591,-0.2003,0.1410,0.1362,0.1379,0.0273,
0.821971,-0.0591,-0.2003,0.1410,0.1726,0.3088,-0.0174,
0.845982,-0.0591,-0.2003,0.1410,0.1726,0.3088,-0.0174,
0.847221,0.0313,-0.1882,0.4314,0.1726,0.3088,-0.0174,
0.886886,0.0313,-0.1882,0.4314,0.4488,0.9456,-0.2268,
0.952398,0.0313,-0.1882,0.4314,0.1804,0.2248,0.0000,
0.973021,0.0313,-0.1882,0.4314,0.1804,0.2248,0.0000,
0.973824,0.2178,-0.2450,0.6048,0.1804,0.2248,0.0000,
0.989292,0.2178,-0.2450,0.6048,0.1804,0.2248,0.0000,
1.018089,0.2178,-0.2450,0.6048,0.2028,0.0267,-0.0197,
1.056970,0.2178,-0.2450,0.6048,0.2028,0.0267,-0.0197,
1.057916,0.8435,-0.1171,-0.0762,0.2028,0.0267,-0.0197,
1.084781,0.8435,-0.1171,-0.0762,0.3454,0.2323,-0.1048,
1.121196,0.8435,-0.1171,-0.0762,0.3454,0.2323,-0.1048,
1.122186,0.7210,-0.3348,-0.0509,0.3454,0.2323,-0.1048,
1.149226,0.7210,-0.3348,-0.0509,0.4517,0.3676,-0.2269,
1.187034,0.7210,-0.3348,-0.0509,0.4517,0.3676,-0.2269,
1.187805,0.1159,-0.0066,-0.1904,0.4517,0.3676,-0.2269,
1.214514,0.1159,-0.0066,-0.1904,0.3994,0.3131,-0.2237,
1.252292,0.1159,-0.0066,-0.1904,0.3994,0.3131,-0.2237,
1.254105,-0.2684,0.1756,-0.1839,0.3994,0.3131,-0.2237,
1.280308,-0.2684,0.1756,-0.1839,0.2489,0.1461,-0.1707,
1.317699,-0.2684,0.1756,-0.1839,0.2489,0.1461,-0.1707,
1.318550,-0.3365,0.0952,-0.2209,0.2489,0.1461,-0.1707,
1.346115,-0.3365,0.0952,-0.2209,0.1194,-0.0310,-0.0979,
1.383253,-0.3365,0.0952,-0.2209,0.1194,-0.0310,-0.0979,
1.384298,-0.1336,0.1123,0.0283,0.1194,-0.0310,-0.0979,
1.411061,-0.1336,0.1123,0.0283,0.0040,-0.2072,0.0147,
1.448395,-0.1336,0.1123,0.0283,0.0040,-0.2072,0.0147,
1.449960,0.4778,0.0218,0.1510,0.0040,-0.2072,0.0147,
1.476798,0.4778,0.0218,0.1510,-0.0609,-0.2834,0.0089,
1.513953,0.4778,0.0218,0.1510,-0.0609,-0.2834,0.0089,
1.515087,0.8839,-0.0987,-0.0841,-0.0609,-0.2834,0.0089,
1.542791,0.8839,-0.0987,-0.0841,-0.0609,-0.2491,-0.1162,
1.579724,0.8839,-0.0987,-0.0841,-0.0609,-0.2491,-0.1162,
1.581146,0.8177,-0.1598,-0.1625,-0.0609,-0.2491,-0.1162,
1.608320,0.8177,-0.1598,-0.1625,0.0521,0.0009,-0.1242,
1.644845,0.8177,-0.1598,-0.1625,0.0521,0.0009,-0.1242,
1.646268,0.7015,-0.2471,-0.3789,0.0521,0.0009,-0.1242,
1.673289,0.7015,-0.2471,-0.3789,0.1381,0.1617,-0.1949,
1.713356,0.7015,-0.2471,-0.3789,0.1381,0.1617,-0.1949,
1.714595,-0.0400,-0.0124,-0.1630,0.1381,0.1617,-0.1949,
1.739018,-0.0400,-0.0124,-0.1630,0.0118,0.0854,-0.1828,
1.776088,-0.0400,-0.0124,-0.1630,0.0118,0.0854,-0.1828,
1.776905,0.0980,0.0656,0.0210,0.0118,0.0854,-0.1828,
1.805028,0.0980,0.0656,0.0210,-0.0574,-0.0125,-0.1620,
1.841444,0.0980,0.0656,0.0210,-0.0574,-0.0125,-0.1620,
1.843040,0.4113,-0.0098,-0.0323,-0.0574,-0.0125,-0.1620,
1.869937,0.4113,-0.0098,-0.0323,-0.0417,-0.0405,-0.1778,
1.907098,0.4113,-0.0098,-0.0323,-0.0417,-0.0405,-0.1778,
1.908488,0.2708,-0.1463,-0.1180,-0.0417,-0.0405,-0.1778,
1.934692,0.2708,-0.1463,-0.1180,-0.0145,-0.1144,-0.1495,
1.972555,0.2708,-0.1463,-0.1180,-0.0145,-0.1144,-0.1495,
1.973938,0.2522,-0.1486,-0.0898,-0.0145,-0.1144,-0.1495,
2.001622,0.2522,-0.1486,-0.0898,-0.0086,-0.2245,-0.1162,
2.038252,0.2522,-0.1486,-0.0898,-0.0086,-0.2245,-0.1162,
2.039577,0.3681,-0.1851,-0.0983,-0.0086,-0.2245,-0.1162,
2.066938,0.3681,-0.1851,-0.0983,0.0418,-0.3147,-0.0980,
2.104040,0.3681,-0.1851,-0.0983,0.0418,-0.3147,-0.0980,
2.105787,0.4380,-0.1104,-0.0013,0.0418,-0.3147,-0.0980,
2.131556,0.4380,-0.1104,-0.0013,0.0788,-0.3312,-0.1057,
2.169762,0.4380,-0.1104,-0.0013,0.0788,-0.3312,-0.1057,
2.170504,0.3256,-0.0885,0.0739,0.0788,-0.3312,-0.1057,
2.197214,0.3256,-0.0885,0.0739,0.1046,-0.2952,-0.0574,
2.235928,0.3256,-0.0885,0.0739,0.1046,-0.2952,-0.0574,
2.237984,0.3410,0.0325,0.0458,0.1046,-0.2952,-0.0574,
2.263057,0.3410,0.0325,0.0458,0.0551,-0.1749,-0.0263,
2.300701,0.3410,0.0325,0.0458,0.0551,-0.1749,-0.0263,
2.302678,0.1127,0.6533,0.0641,0.0551,-0.1749,-0.0263,
2.328421,0.1127,0.6533,0.0641,0.0626,0.0032,-0.0194,
2.366477,0.1127,0.6533,0.0641,0.0626,0.0032,-0.0194,
2.368448,-0.0093,1.1032,-0.0627,0.0626,0.0032,-0.0194,
2.393753,-0.0093,1.1032,-0.0627,-0.1449,0.1046,-0.0041,
2.430573,-0.0093,1.1032,-0.0627,-0.1449,0.1046,-0.0041,
2.431402,-0.5590,1.1003,-0.3757,-0.1449,0.1046,-0.0041,
2.459977,-0.5590,1.1003,-0.3757,-0.6672,0.3300,0.0076,
2.495654,-0.5590,1.1003,-0.3757,-0.6672,0.3300,0.0076,
2.496421,-1.4333,0.0418,0.1451,-0.6672,0.3300,0.0076,
2.523892,-1.4333,0.0418,0.1451,-0.6562,0.0863,0.2193,
2.561008,-1.4333,0.0418,0.1451,-0.6562,0.0863,0.2193,
2.561363,-0.7985,-0.9678,0.8847,-0.6562,0.0863,0.2193,
2.589386,-0.7985,-0.9678,0.8847,-0.3838,-0.0793,0.4012,
2.626510,-0.7985,-0.9678,0.8847,-0.3838,-0.0793,0.4012,
2.627293,0.2239,-0.1210,0.3090,-0.3838,-0.0793,0.4012,
2.655180,0.2239,-0.1210,0.3090,-0.2262,-0.1222,-0.0344,
2.692020,0.2239,-0.1210,0.3090,-0.2262,-0.1222,-0.0344,
2.692727,-0.6218,-0.8687,0.5419,-0.2262,-0.1222,-0.0344,
2.720755,-0.6218,-0.8687,0.5419,-0.1788,-0.3780,0.0893,
2.757437,-0.6218,-0.8687,0.5419,-0.1788,-0.3780,0.0893,
2.758318,-0.0473,-0.9884,0.8820,-0.1788,-0.3780,0.0893,
2.786184,-0.0473,-0.9884,0.8820,0.0557,-0.1278,0.1437,
2.823907,-0.0473,-0.9884,0.8820,0.0557,-0.1278,0.1437,
2.824748,0.1945,-1.2490,0.8351,0.0557,-0.1278,0.1437,
2.853138,0.1945,-1.2490,0.8351,0.1797,0.0617,0.2364,
2.888906,0.1945,-1.2490,0.8351,0.1797,0.0617,0.2364,
2.890344,-0.1939,-0.8144,0.8783,0.1797,0.0617,0.2364,
2.917778,-0.1939,-0.8144,0.8783,0.3358,0.0221,0.3571,
2.955263,-0.1939,-0.8144,0.8783,0.3358,0.0221,0.3571,
2.956117,-0.3477,0.0018,0.8249,0.3358,0.0221,0.3571,
2.983187,-0.3477,0.0018,0.8249,0.3366,-0.0501,0.1449,
3.020790,-0.3477,0.0018,0.8249,0.3366,-0.0501,0.1449,
3.021838,-0.6617,1.6711,0.3008,0.3366,-0.0501,0.1449,
3.048164,-0.6617,1.6711,0.3008,0.1046,-0.2335,-0.0706,
3.086302,-0.6617,1.6711,0.3008,0.1046,-0.2335,-0.0706,
3.087623,-0.2053,1.0621,-0.0301,0.1046,-0.2335,-0.0706,
3.113381,-0.2053,1.0621,-0.0301,0.0454,-0.2558,0.1116,
3.152226,-0.2053,1.0621,-0.0301,0.0454,-0.2558,0.1116,
3.153329,-0.0591,-1.0928,1.2002,0.0454,-0.2558,0.1116,
3.180331,-0.0591,-1.0928,1.2002,0.2807,-0.0509,-0.0600,
3.217420,-0.0591,-1.0928,1.2002,0.2807,-0.0509,-0.0600,
3.220679,0.3536,-0.1338,0.2593,0.2807,-0.0509,-0.0600,
3.244592,0.3536,-0.1338,0.2593,0.4504,-0.2700,-0.1944,
3.281814,0.3536,-0.1338,0.2593,0.4504,-0.2700,-0.1944,
3.282887,0.0361,0.1832,-0.9520,0.4504,-0.2700,-0.1944,
3.309933,0.0361,0.1832,-0.9520,0.2706,0.0111,-0.0128,
3.348145,0.0361,0.1832,-0.9520,0.2706,0.0111,-0.0128,
3.349865,0.2390,-0.3106,-0.7593,0.2706,0.0111,-0.0128,
3.375724,0.2390,-0.3106,-0.7593,0.1497,0.1834,0.0041,
3.413146,0.2390,-0.3106,-0.7593,0.1497,0.1834,0.0041,
3.415006,0.5537,-0.0160,-0.6655,0.1497,0.1834,0.0041,
3.441339,0.5537,-0.0160,-0.6655,0.2282,0.1064,-0.0545,
3.478275,0.5537,-0.0160,-0.6655,0.2282,0.1064,-0.0545,
3.479794,0.1256,0.2402,-0.5285,0.2282,0.1064,-0.0545,
3.506567,0.1256,0.2402,-0.5285,0.1988,0.0046,0.0454,
3.544843,0.1256,0.2402,-0.5285,0.1988,0.0046,0.0454,
3.546597,0.3578,-0.3751,-0.3656,0.1988,0.0046,0.0454,
3.573355,0.3578,-0.3751,-0.3656,0.2743,-0.0767,0.0224,
3.608732,0.3578,-0.3751,-0.3656,0.2743,-0.0767,0.0224,
3.609316,0.3697,-0.2663,-0.3764,0.2743,-0.0767,0.0224,
3.637871,0.3697,-0.2663,-0.3764,0.2384,-0.1752,0.0043,
3.675759,0.3697,-0.2663,-0.3764,0.2384,-0.1752,0.0043,
3.677644,0.1027,-0.0258,-0.2914,0.2384,-0.1752,0.0043,
3.703092,0.1027,-0.0258,-0.2914,0.0860,-0.3132,0.0822,
3.741412,0.1027,-0.0258,-0.2914,0.0860,-0.3132,0.0822,
3.743171,0.3343,-0.1115,-0.1121,0.0860,-0.3132,0.0822,
3.770046,0.3343,-0.1115,-0.1121,-0.0502,-0.4603,0.0832,
3.806039,0.3343,-0.1115,-0.1121,-0.0502,-0.4603,0.0832,
3.807633,0.7838,-0.0236,-0.2516,-0.0502,-0.4603,0.0832,
3.834250,0.7838,-0.0236,-0.2516,-0.1298,-0.4685,-0.0153,
3.872837,0.7838,-0.0236,-0.2516,-0.1298,-0.4685,-0.0153,
3.874621,0.8896,-0.1029,-0.3097,-0.1298,-0.4685,-0.0153,
3.899953,0.8896,-0.1029,-0.3097,-0.0431,-0.2923,-0.0980,
3.937205,0.8896,-0.1029,-0.3097,-0.0431,-0.2923,-0.0980,
3.938803,0.9792,-0.2211,-0.1444,-0.0431,-0.2923,-0.0980,
3.965112,0.9792,-0.2211,-0.1444,0.0744,-0.1263,-0.0910,
4.003763,0.9792,-0.2211,-0.1444,0.0744,-0.1263,-0.0910,
4.005451,0.8019,-0.1663,-0.2304,0.0744,-0.1263,-0.0910,
4.031296,0.8019,-0.1663,-0.2304,0.1107,0.0224,-0.1387,
4.070198,0.8019,-0.1663,-0.2304,0.1107,0.0224,-0.1387,
4.071741,0.0998,-0.0714,-0.0878,0.1107,0.0224,-0.1387,
4.098033,0.0998,-0.0714,-0.0878,0.0909,-0.0476,-0.2317,
4.135293,0.0998,-0.0714,-0.0878,0.0909,-0.0476,-0.2317,
4.137835,-0.0638,0.1527,-0.0580,0.0909,-0.0476,-0.2317,
4.161572,-0.0638,0.1527,-0.0580,-0.0249,-0.1350,-0.2048,
4.198983,-0.0638,0.1527,-0.0580,-0.0249,-0.1350,-0.2048,
4.200462,0.7275,0.3675,-0.0410,-0.0249,-0.1350,-0.2048,
4.226558,0.7275,0.3675,-0.0410,-0.0370,-0.0906,-0.1733,
4.266021,0.7275,0.3675,-0.0410,-0.0370,-0.0906,-0.1733,
4.268280,0.9333,0.7989,-0.0356,-0.0370,-0.0906,-0.1733,
4.292450,0.9333,0.7989,-0.0356,-0.0559,0.1150,-0.2682,
4.330462,0.9333,0.7989,-0.0356,-0.0559,0.1150,-0.2682,
4.332747,0.6364,0.7647,-0.2247,-0.0559,0.1150,-0.2682,
4.358789,0.6364,0.7647,-0.2247,-0.2341,0.4114,-0.3309,
4.395970,0.6364,0.7647,-0.2247,-0.2341,0.4114,-0.3309,
4.397760,0.1253,0.6925,-0.3074,-0.2341,0.4114,-0.3309,
4.423308,0.1253,0.6925,-0.3074,-0.4417,0.6973,-0.4233,
4.462319,0.1253,0.6925,-0.3074,-0.4417,0.6973,-0.4233,
4.464250,-1.4606,0.1279,-0.4995,-0.4417,0.6973,-0.4233,
4.489248,-1.4606,0.1279,-0.4995,-0.6266,0.4259,-0.2413,
4.527949,-1.4606,0.1279,-0.4995,-0.6266,0.4259,-0.2413,
4.529314,-1.9515,-1.0012,0.2773,-0.6266,0.4259,-0.2413,
4.556454,-1.9515,-1.0012,0.2773,-0.6590,-0.0728,0.1856,
4.592648,-1.9515,-1.0012,0.2773,-0.6590,-0.0728,0.1856,
4.594178,-0.4052,-0.9651,0.5647,-0.6590,-0.0728,0.1856,
4.621037,-0.4052,-0.9651,0.5647,-0.1793,-0.0924,0.0486,
4.657621,-0.4052,-0.9651,0.5647,-0.1793,-0.0924,0.0486,
4.658545,-0.4344,-1.2578,0.5561,-0.1793,-0.0924,0.0486,
4.685297,-0.4344,-1.2578,0.5561,0.0486,-0.2004,0.0609,
4.722415,-0.4344,-1.2578,0.5561,0.0486,-0.2004,0.0609,
4.723256,-0.3827,-1.2047,0.9756,0.0486,-0.2004,0.0609,
4.751536,-0.3827,-1.2047,0.9756,0.1497,-0.2309,0.1784,
4.788757,-0.3827,-1.2047,0.9756,0.1497,-0.2309,0.1784,
4.790559,-0.0819,-0.4444,1.4934,0.1497,-0.2309,0.1784,
4.816687,-0.0819,-0.4444,1.4934,0.1480,-0.0367,0.4531,
4.854002,-0.0819,-0.4444,1.4934,0.1480,-0.0367,0.4531,
4.855587,0.0918,-0.2088,1.1011,0.1480,-0.0367,0.4531,
4.882129,0.0918,-0.2088,1.1011,0.0812,0.1449,0.5008,
4.919681,0.0918,-0.2088,1.1011,0.0812,0.1449,0.5008,
4.921194,-0.4011,0.3253,1.1121,0.0812,0.1449,0.5008,
4.947368,-0.4011,0.3253,1.1121,-0.0244,0.1439,0.1946,
4.985010,-0.4011,0.3253,1.1121,-0.0244,0.1439,0.1946,
4.986696,-0.8329,3.0839,-0.0478,-0.0244,0.1439,0.1946,
5.013043,-0.8329,3.0839,-0.0478,0.0791,-0.2958,-0.1797,
5.051371,-0.8329,3.0839,-0.0478,0.0791,-0.2958,-0.1797,
5.053042,-0.8811,0.1255,-0.4098,0.0791,-0.2958,-0.1797,
5.078292,-0.8811,0.1255,-0.4098,-0.3027,-0.4552,0.1761,
5.115038,-0.8811,0.1255,-0.4098,-0.3027,-0.4552,0.1761,
5.115883,0.6860,-1.1309,0.0981,-0.3027,-0.4552,0.1761,
5.144028,0.6860,-1.1309,0.0981,0.3138,-0.0489,0.1892,
5.181302,0.6860,-1.1309,0.0981,0.3138,-0.0489,0.1892,
5.182225,1.2219,-0.0331,-1.5983,0.3138,-0.0489,0.1892,
5.208442,1.2219,-0.0331,-1.5983,0.1969,0.0922,-0.2039,
5.246484,1.2219,-0.0331,-1.5983,0.1969,0.0922,-0.2039,
5.247253,-0.1266,-0.7493,-0.6120,0.1969,0.0922,-0.2039,
5.275204,-0.1266,-0.7493,-0.6120,0.2008,0.0617,0.0067,
5.312239,-0.1266,-0.7493,-0.6120,0.2008,0.0617,0.0067,
5.313787,0.0483,-0.0655,-0.2030,0.2008,0.0617,0.0067,
5.340301,0.0483,-0.0655,-0.2030,0.4511,-0.1174,0.1141,
5.377928,0.0483,-0.0655,-0.2030,0.4511,-0.1174,0.1141,
5.379266,0.6670,0.2230,-1.2400,0.4511,-0.1174,0.1141,
5.406831,0.6670,0.2230,-1.2400,0.1953,-0.1035,-0.0040,
5.443569,0.6670,0.2230,-1.2400,0.1953,-0.1035,-0.0040,
5.445280,0.5559,-0.1378,-0.2529,0.1953,-0.1035,-0.0040,
5.471609,0.5559,-0.1378,-0.2529,0.1863,-0.1303,-0.0612,
5.508620,0.5559,-0.1378,-0.2529,0.1863,-0.1303,-0.0612,
5.510439,0.4405,-0.0266,-0.4903,0.1863,-0.1303,-0.0612,
5.538069,0.4405,-0.0266,-0.4903,0.0454,-0.2709,-0.0363,
5.574318,0.4405,-0.0266,-0.4903,0.0454,-0.2709,-0.0363,
5.576021,0.7760,0.0214,-0.0899,0.0454,-0.2709,-0.0363,
5.602160,0.7760,0.0214,-0.0899,-0.0724,-0.2961,-0.0903,
5.639675,0.7760,0.0214,-0.0899,-0.0724,-0.2961,-0.0903,
5.641426,0.7728,0.3184,-0.1256,-0.0724,-0.2961,-0.0903,
5.668394,0.7728,0.3184,-0.1256,-0.2066,-0.3848,-0.0634,
5.705381,0.7728,0.3184,-0.1256,-0.2066,-0.3848,-0.0634,
5.707549,0.9561,-0.0458,-0.0520,-0.2066,-0.3848,-0.0634,
5.733146,0.9561,-0.0458,-0.0520,-0.0406,-0.2476,-0.0150,
5.770077,0.9561,-0.0458,-0.0520,-0.0406,-0.2476,-0.0150,
5.771379,0.4962,-0.4660,-0.1548,-0.0406,-0.2476,-0.0150,
5.798833,0.4962,-0.4660,-0.1548,-0.0912,-0.2601,-0.1550,
5.835886,0.4962,-0.4660,-0.1548,-0.0912,-0.2601,-0.1550,
5.837635,0.0380,-0.0271,-0.2078,-0.0912,-0.2601,-0.1550,
5.864160,0.0380,-0.0271,-0.2078,-0.0631,-0.1371,-0.1264,
5.900634,0.0380,-0.0271,-0.2078,-0.0631,-0.1371,-0.1264,
5.901898,-0.0337,0.9101,-0.4864,-0.0631,-0.1371,-0.1264,
5.928909,-0.0337,0.9101,-0.4864,-0.1252,0.0545,0.0264,
5.966603,-0.0337,0.9101,-0.4864,-0.1252,0.0545,0.0264,
5.967609,-0.0379,1.0527,-0.3611,-0.1252,0.0545,0.0264,
5.994448,-0.0379,1.0527,-0.3611,-0.3377,0.2402,0.1324,
6.032297,-0.0379,1.0527,-0.3611,-0.3377,0.2402,0.1324,
6.034251,-0.4130,0.5865,-0.4148,-0.3377,0.2402,0.1324,
6.060843,-0.4130,0.5865,-0.4148,-0.6577,0.5203,0.1013,
6.098199,-0.4130,0.5865,-0.4148,-0.6577,0.5203,0.1013,
6.100473,-1.2388,-0.4161,-0.1164,-0.6577,0.5203,0.1013,
6.126422,-1.2388,-0.4161,-0.1164,-0.8418,0.2645,0.3080,
6.163852,-1.2388,-0.4161,-0.1164,-0.8418,0.2645,0.3080,
6.165859,-0.6492,-0.6617,0.6042,-0.8418,0.2645,0.3080,
6.191913,-0.6492,-0.6617,0.6042,-0.4577,0.1425,0.2677,
6.228809,-0.6492,-0.6617,0.6042,-0.4577,0.1425,0.2677,
6.230488,-0.4258,-0.3841,0.3912,-0.4577,0.1425,0.2677,
6.256809,-0.4258,-0.3841,0.3912,-0.1717,-0.0295,0.0322,
6.294449,-0.4258,-0.3841,0.3912,-0.1717,-0.0295,0.0322,
6.296091,-1.0004,-0.7359,0.4393,-0.1717,-0.0295,0.0322,
6.322214,-1.0004,-0.7359,0.4393,-0.0499,-0.2219,0.0316,
6.361223,-1.0004,-0.7359,0.4393,-0.0499,-0.2219,0.0316,
6.362681,-0.4652,-1.1864,0.9868,-0.0499,-0.2219,0.0316,
6.387686,-0.4652,-1.1864,0.9868,0.1949,-0.2605,0.0716,
6.425273,-0.4652,-1.1864,0.9868,0.1949,-0.2605,0.0716,
6.426553,0.0430,-0.6922,0.7160,0.1949,-0.2605,0.0716,
6.454185,0.0430,-0.6922,0.7160,0.2899,-0.0389,0.2077,
6.491019,0.0430,-0.6922,0.7160,0.2899,-0.0389,0.2077,
6.492698,0.1033,-0.7428,0.8375,0.2899,-0.0389,0.2077,
6.522370,0.1033,-0.7428,0.8375,0.3039,0.0483,0.2132,
6.556003,0.1033,-0.7428,0.8375,0.3039,0.0483,0.2132,
6.557695,-0.5529,0.1162,0.9527,0.3039,0.0483,0.2132,
6.585276,-0.5529,0.1162,0.9527,0.2925,0.1199,0.1109,
6.622521,-0.5529,0.1162,0.9527,0.2925,0.1199,0.1109,
6.624286,-0.5026,2.1831,0.1238,0.2925,0.1199,0.1109,
6.649596,-0.5026,2.1831,0.1238,0.1802,-0.0959,-0.0712,
6.686989,-0.5026,2.1831,0.1238,0.1802,-0.0959,-0.0712,
6.688245,0.0872,0.6845,-0.1108,0.1802,-0.0959,-0.0712,
6.716236,0.0872,0.6845,-0.1108,0.0570,-0.0771,-0.0953,
6.753419,0.0872,0.6845,-0.1108,0.0570,-0.0771,-0.0953,
6.755557,-0.0533,-1.1201,1.1825,0.0570,-0.0771,-0.0953,
6.780404,-0.0533,-1.1201,1.1825,0.3233,0.0852,-0.0690,
6.818349,-0.0533,-1.1201,1.1825,0.3233,0.0852,-0.0690,
6.819901,0.1424,0.2252,-0.3157,0.3233,0.0852,-0.0690,
6.846003,0.1424,0.2252,-0.3157,0.3954,0.0458,-0.1749,
6.883092,0.1424,0.2252,-0.3157,0.3954,0.0458,-0.1749,
6.885170,0.2799,0.0645,-1.3111,0.3954,0.0458,-0.1749,
6.911539,0.2799,0.0645,-1.3111,0.0551,0.1816,-0.0457,
6.949230,0.2799,0.0645,-1.3111,0.0551,0.1816,-0.0457,
6.951039,-0.0402,-0.3068,-0.6690,0.0551,0.1816,-0.0457,
6.977657,-0.0402,-0.3068,-0.6690,0.1753,-0.0638,0.0099,
7.014665,-0.0402,-0.3068,-0.6690,0.1753,-0.0638,0.0099,
7.016200,-0.1994,-0.1534,-0.7495,0.1753,-0.0638,0.0099,
7.042610,-0.1994,-0.1534,-0.7495,0.1610,-0.3201,0.0643,
7.079801,-0.1994,-0.1534,-0.7495,0.1610,-0.3201,0.0643,
7.080984,0.9711,-0.3973,-0.6610,0.1610,-0.3201,0.0643,
7.108239,0.9711,-0.3973,-0.6610,0.2491,-0.0631,-0.0116,
7.145194,0.9711,-0.3973,-0.6610,0.2491,-0.0631,-0.0116,
7.147012,0.7968,-0.2834,-0.4726,0.2491,-0.0631,-0.0116,
7.172857,0.7968,-0.2834,-0.4726,0.2720,0.0385,-0.0893,
7.210562,0.7968,-0.2834,-0.4726,0.2720,0.0385,-0.0893,
7.212024,0.0363,-0.0872,-0.1111,0.2720,0.0385,-0.0893,
7.239369,0.0363,-0.0872,-0.1111,0.2286,-0.1962,0.0883,
7.276307,0.0363,-0.0872,-0.1111,0.2286,-0.1962,0.0883,
7.277943,0.4043,-0.0384,-0.1003,0.2286,-0.1962,0.0883,
7.305680,0.4043,-0.0384,-0.1003,0.1002,-0.4149,0.1225,
7.342186,0.4043,-0.0384,-0.1003,0.1002,-0.4149,0.1225,
7.343775,0.7338,0.0588,-0.0031,0.1002,-0.4149,0.1225,
7.371366,0.7338,0.0588,-0.0031,-0.0855,-0.5111,0.1211,
7.407949,0.7338,0.0588,-0.0031,-0.0855,-0.5111,0.1211,
7.409873,0.8682,-0.0586,0.1314,-0.0855,-0.5111,0.1211,
7.436430,0.8682,-0.0586,0.1314,-0.1709,-0.4919,0.0625,
7.473693,0.8682,-0.0586,0.1314,-0.1709,-0.4919,0.0625,
7.475483,1.2943,0.0468,-0.1695,-0.1709,-0.4919,0.0625,
7.501116,1.2943,0.0468,-0.1695,-0.0845,-0.3251,-0.0064,
7.538508,1.2943,0.0468,-0.1695,-0.0845,-0.3251,-0.0064,
7.540216,0.9509,-0.2861,-0.4693,-0.0845,-0.3251,-0.0064,
7.566121,0.9509,-0.2861,-0.4693,-0.1437,-0.1701,-0.0176,
7.603650,0.9509,-0.2861,-0.4693,-0.1437,-0.1701,-0.0176,
7.605159,0.0894,-0.2374,-0.0856,-0.1437,-0.1701,-0.0176,
7.631809,0.0894,-0.2374,-0.0856,-0.0906,-0.2660,-0.1536,
7.669018,0.0894,-0.2374,-0.0856,-0.0906,-0.2660,-0.1536,
7.670696,0.3501,0.0337,-0.3792,-0.0906,-0.2660,-0.1536,
7.697605,0.3501,0.0337,-0.3792,-0.0793,-0.1839,-0.2983,
7.735401,0.3501,0.0337,-0.3792,-0.0793,-0.1839,-0.2983,
7.736290,0.1255,0.8005,-0.3909,-0.0793,-0.1839,-0.2983,
7.764106,0.1255,0.8005,-0.3909,-0.1689,-0.0545,-0.2097,
7.801792,0.1255,0.8005,-0.3909,-0.1689,-0.0545,-0.2097,
7.803660,0.1661,0.6220,-0.3181,-0.1689,-0.0545,-0.2097,
7.829245,0.1661,0.6220,-0.3181,-0.2834,0.0687,-0.0646,
7.866711,0.1661,0.6220,-0.3181,-0.2834,0.0687,-0.0646,
7.868376,-0.1718,0.7102,-0.3363,-0.2834,0.0687,-0.0646,
7.895216,-0.1718,0.7102,-0.3363,-0.4548,0.3401,0.0701,
7.931158,-0.1718,0.7102,-0.3363,-0.4548,0.3401,0.0701,
7.933269,-1.2355,0.5990,-0.1246,-0.4548,0.3401,0.0701,
7.959698,-1.2355,0.5990,-0.1246,-0.7136,0.3338,0.2422,
7.996978,-1.2355,0.5990,-0.1246,-0.7136,0.3338,0.2422,
7.998673,-0.8681,-0.4749,0.5158,-0.7136,0.3338,0.2422,
8.025350,-0.8681,-0.4749,0.5158,-0.5490,0.1715,0.2920,
8.062222,-0.8681,-0.4749,0.5158,-0.5490,0.1715,0.2920,
8.063702,-0.0452,-0.5849,0.2948,-0.5490,0.1715,0.2920,
8.090216,-0.0452,-0.5849,0.2948,-0.1998,0.1712,-0.0710,
8.129040,-0.0452,-0.5849,0.2948,-0.1998,0.1712,-0.0710,
8.130699,-1.0152,-0.9086,0.2982,-0.1998,0.1712,-0.0710,
8.156609,-1.0152,-0.9086,0.2982,-0.1472,-0.0629,-0.1078,
8.192821,-1.0152,-0.9086,0.2982,-0.1472,-0.0629,-0.1078,
8.194488,-0.7591,-0.9559,0.5845,-0.1472,-0.0629,-0.1078,
8.222292,-0.7591,-0.9559,0.5845,-0.0321,-0.2369,-0.0140,
8.257827,-0.7591,-0.9559,0.5845,-0.0321,-0.2369,-0.0140,
8.258585,-0.1727,-0.4186,0.8323,-0.0321,-0.2369,-0.0140,
8.286998,-0.1727,-0.4186,0.8323,0.0322,-0.2169,0.0681,
8.326133,-0.1727,-0.4186,0.8323,0.0322,-0.2169,0.0681,
8.328374,0.1292,-0.2650,0.7175,0.0322,-0.2169,0.0681,
8.353077,0.1292,-0.2650,0.7175,0.0473,-0.1008,0.1109,
8.390198,0.1292,-0.2650,0.7175,0.0473,-0.1008,0.1109,
8.392350,-0.1468,-0.0213,0.9410,0.0473,-0.1008,0.1109,
8.418453,-0.1468,-0.0213,0.9410,0.0942,-0.0948,0.1600,
8.455510,-0.1468,-0.0213,0.9410,0.0942,-0.0948,0.1600,
8.456200,0.0992,-0.3188,1.1230,0.0942,-0.0948,0.1600,
8.483851,0.0992,-0.3188,1.1230,0.1226,-0.0247,0.1684,
8.519923,0.0992,-0.3188,1.1230,0.1226,-0.0247,0.1684,
8.520568,0.0780,-0.3626,1.0323,0.1226,-0.0247,0.1684,
8.550313,0.0780,-0.3626,1.0323,0.1889,0.0571,0.0481,
8.587401,0.0780,-0.3626,1.0323,0.1889,0.0571,0.0481,
8.588064,-0.3518,1.6181,0.3866,0.1889,0.0571,0.0481,
8.613600,-0.3518,1.6181,0.3866,0.1180,-0.2382,-0.2830,
8.652265,-0.3518,1.6181,0.3866,0.1180,-0.2382,-0.2830,
8.653032,-0.2383,0.6750,-0.7732,0.1180,-0.2382,-0.2830,
8.680332,-0.2383,0.6750,-0.7732,-0.1581,-0.2541,0.0389,
8.716762,-0.2383,0.6750,-0.7732,-0.1581,-0.2541,0.0389,
8.717412,0.2487,-1.3847,0.0676,-0.1581,-0.2541,0.0389,
8.744927,0.2487,-1.3847,0.0676,0.3766,0.0719,-0.0380,
8.782929,0.2487,-1.3847,0.0676,0.3766,0.0719,-0.0380,
8.784099,0.5928,-0.1385,-1.4776,0.3766,0.0719,-0.0380,
8.810340,0.5928,-0.1385,-1.4776,0.3505,0.1434,-0.2117,
8.848102,0.5928,-0.1385,-1.4776,0.3505,0.1434,-0.2117,
8.849134,-0.3199,0.1243,-1.5122,0.3505,0.1434,-0.2117,
8.876890,-0.3199,0.1243,-1.5122,0.1807,0.3253,-0.1067,
8.913919,-0.3199,0.1243,-1.5122,0.1807,0.3253,-0.1067,
8.915209,-0.3692,0.0079,-0.7272,0.1807,0.3253,-0.1067,
8.943065,-0.3692,0.0079,-0.7272,0.3244,0.0826,-0.0473,
8.979838,-0.3692,0.0079,-0.7272,0.3244,0.0826,-0.0473,
8.980933,-0.2835,0.0253,-0.6610,0.3244,0.0826,-0.0473,
9.008115,-0.2835,0.0253,-0.6610,0.2720,-0.0638,0.0089,
9.044823,-0.2835,0.0253,-0.6610,0.2720,-0.0638,0.0089,
9.046611,0.1574,-0.0477,-0.2457,0.2720,-0.0638,0.0089,
9.073003,0.1574,-0.0477,-0.2457,0.2984,-0.0547,0.0611,
9.111712,0.1574,-0.0477,-0.2457,0.2984,-0.0547,0.0611,
9.114187,0.4102,0.0810,-0.1670,0.2984,-0.0547,0.0611,
9.138565,0.4102,0.0810,-0.1670,0.1972,-0.0512,0.0263,
9.175845,0.4102,0.0810,-0.1670,0.1972,-0.0512,0.0263,
9.177447,0.1582,0.0459,0.0831,0.1972,-0.0512,0.0263,
9.204231,0.1582,0.0459,0.0831,0.1469,-0.1833,0.0339,
9.279376,0.1582,0.0459,0.0831,0.0082,-0.3157,0.0186,
9.320780,0.1582,0.0459,0.0831,0.0082,-0.3157,0.0186,
9.322649,0.1582,0.0459,0.0831,0.0082,-0.3157,0.0186,
9.323886,0.8788,0.0373,0.0483,0.0082,-0.3157,0.0186,
9.361030,0.8788,0.0373,0.0483,-0.0922,-0.2645,-0.0101,
9.400519,0.8788,0.0373,0.0483,-0.0922,-0.2645,-0.0101,
9.402236,1.1249,0.0339,-0.2334,-0.0922,-0.2645,-0.0101,
9.442118,1.1249,0.0339,-0.2334,0.0254,0.0586,-0.0924,
9.443484,1.1249,0.0339,-0.2334,0.0254,0.0586,-0.0924,
9.444535,0.5270,-0.1813,-0.2504,0.0254,0.0586,-0.0924,
9.483156,0.5270,-0.1813,-0.2504,0.0744,0.1367,-0.1217,
9.525000,0.5270,-0.1813,-0.2504,0.0744,0.1367,-0.1217,
9.526806,-0.1103,-0.0792,-0.0708,0.0744,0.1367,-0.1217,
9.566068,-0.1103,-0.0792,-0.0708,0.0657,0.0260,-0.1494,
9.605452,-0.1103,-0.0792,-0.0708,0.0657,0.0260,-0.1494,
9.606556,-0.1103,-0.0792,-0.0708,0.1633,0.0553,-0.2335,
9.608039,0.1313,-0.2071,-0.2520,0.1633,0.0553,-0.2335,
9.645932,0.1313,-0.2071,-0.2520,0.1633,0.0553,-0.2335,
9.646378,-0.3155,-0.1947,-0.1084,0.1633,0.0553,-0.2335,
9.687001,-0.3155,-0.1947,-0.1084,0.1503,-0.0469,-0.1660,
9.728418,-0.3155,-0.1947,-0.1084,0.1503,-0.0469,-0.1660,
9.730269,0.0764,-0.3201,0.1506,0.1503,-0.0469,-0.1660,
9.770302,0.0764,-0.3201,0.1506,0.2045,-0.0976,-0.0716,
9.772407,0.0764,-0.3201,0.1506,0.2045,-0.0976,-0.0716,
9.773453,0.2209,0.1859,-0.0697,0.2045,-0.0976,-0.0716,
9.809445,0.2209,0.1859,-0.0697,0.1161,-0.0454,-0.0586,
9.851412,0.2209,0.1859,-0.0697,0.1161,-0.0454,-0.0586,
9.853848,-0.1401,0.2371,0.0015,0.1161,-0.0454,-0.0586,
9.891021,-0.1401,0.2371,0.0015,0.0565,-0.0460,-0.0414,
9.932571,-0.1401,0.2371,0.0015,0.0565,-0.0460,-0.0414,
9.934404,-0.1401,0.2371,0.0015,-0.1052,-0.2030,-0.0660,
9.935445,-0.4011,0.7228,-0.0334,-0.1052,-0.2030,-0.0660,
9.973744,-0.4011,0.7228,-0.0334,-0.1052,-0.2030,-0.0660,
9.975524,-0.3579,1.1285,-0.1980,-0.1052,-0.2030,-0.0660,
10.016488,-0.3579,1.1285,-0.1980,-0.2981,-0.1756,0.0163,
10.057173,-0.3579,1.1285,-0.1980,-0.2981,-0.1756,0.0163,
10.060173,0.4910,0.6838,-0.3269,-0.2981,-0.1756,0.0163,
10.096017,0.4910,0.6838,-0.3269,-0.4640,0.0104,0.0400,
10.098654,0.4910,0.6838,-0.3269,-0.4640,0.0104,0.0400,
10.099665,0.3032,0.1517,-0.2425,-0.4640,0.0104,0.0400,
10.139052,0.3032,0.1517,-0.2425,-0.5405,0.2879,0.0756,
10.179237,0.3032,0.1517,-0.2425,-0.5405,0.2879,0.0756,
10.181054,-0.2503,-0.3416,-0.2681,-0.5405,0.2879,0.0756,
10.218550,-0.2503,-0.3416,-0.2681,-0.5777,0.3798,0.1365,
10.260409,-0.2503,-0.3416,-0.2681,-0.5777,0.3798,0.1365,
10.261664,-0.2503,-0.3416,-0.2681,-0.5391,0.2027,0.1946,
10.262503,-0.6620,-0.5900,0.1560,-0.5391,0.2027,0.1946,
10.301300,-0.6620,-0.5900,0.1560,-0.5391,0.2027,0.1946,
10.302582,-0.3088,-0.2364,-0.1007,-0.5391,0.2027,0.1946,
10.341885,-0.3088,-0.2364,-0.1007,-0.3697,0.0670,0.1011,
10.382609,-0.3088,-0.2364,-0.1007,-0.3697,0.0670,0.1011,
10.383839,-0.3088,-0.2364,-0.1007,-0.2300,-0.1008,0.0692,
10.384812,-0.4370,-0.6761,0.0086,-0.2300,-0.1008,0.0692,
10.419508,-0.4370,-0.6761,0.0086,-0.2300,-0.1008,0.0692,
10.420586,-0.3272,-0.5400,0.1247,-0.2300,-0.1008,0.0692,
10.448393,-0.3272,-0.5400,0.1247,-0.0843,-0.1538,0.0675,
10.484382,-0.3272,-0.5400,0.1247,-0.0843,-0.1538,0.0675,
10.486428,-0.1853,-0.3370,0.2534,-0.0843,-0.1538,0.0675,
10.514315,-0.1853,-0.3370,0.2534,-0.0118,-0.1921,0.1371,
10.551663,-0.1853,-0.3370,0.2534,-0.0118,-0.1921,0.1371,
10.553290,-0.1871,-0.0728,0.1800,-0.0118,-0.1921,0.1371,
10.580250,-0.1871,-0.0728,0.1800,-0.0519,-0.1584,0.2077,
10.616351,-0.1871,-0.0728,0.1800,-0.0519,-0.1584,0.2077,
10.618181,-0.1518,-0.5850,0.3477,-0.0519,-0.1584,0.2077,
10.644823,-0.1518,-0.5850,0.3477,-0.0394,-0.1023,0.2167,
10.682212,-0.1518,-0.5850,0.3477,-0.0394,-0.1023,0.2167,
10.683698,0.0105,-0.7163,0.5911,-0.0394,-0.1023,0.2167,
10.709588,0.0105,-0.7163,0.5911,0.1185,0.0232,0.2440,
10.748738,0.0105,-0.7163,0.5911,0.1185,0.0232,0.2440,
10.750783,0.2732,-0.3291,0.6265,0.1185,0.0232,0.2440,
10.775800,0.2732,-0.3291,0.6265,0.1078,0.1742,0.1504,
10.812667,0.2732,-0.3291,0.6265,0.1078,0.1742,0.1504,
10.814573,-0.3254,0.1327,0.6915,0.1078,0.1742,0.1504,
10.841397,-0.3254,0.1327,0.6915,0.2036,0.0163,0.0473,
10.878022,-0.3254,0.1327,0.6915,0.2036,0.0163,0.0473,
10.880308,-1.0601,0.5939,0.2864,0.2036,0.0163,0.0473,
10.906014,-1.0601,0.5939,0.2864,-0.0058,-0.2784,0.0295,
10.943517,-1.0601,0.5939,0.2864,-0.0058,-0.2784,0.0295,
10.945525,-0.4880,1.7978,0.1867,-0.0058,-0.2784,0.0295,
10.971281,-0.4880,1.7978,0.1867,0.0418,-0.4556,-0.0104,
11.037968,-0.4880,1.7978,0.1867,-0.0032,-0.2060,-0.0646,
11.060244,-0.4880,1.7978,0.1867,-0.0032,-0.2060,-0.0646,
11.061856,0.2782,-0.9825,0.9117,-0.0032,-0.2060,-0.0646,
11.074105,0.2782,-0.9825,0.9117,-0.0032,-0.2060,-0.0646,
11.102669,0.2782,-0.9825,0.9117,0.2789,-0.1494,-0.1046,
11.142013,0.2782,-0.9825,0.9117,0.2789,-0.1494,-0.1046,
11.143302,0.4838,0.1696,-0.0809,0.2789,-0.1494,-0.1046,
11.167910,0.4838,0.1696,-0.0809,0.2526,-0.1194,-0.1035,
11.204582,0.4838,0.1696,-0.0809,0.2526,-0.1194,-0.1035,
11.205946,0.9211,-0.3552,-0.5771,0.2526,-0.1194,-0.1035,
11.233365,0.9211,-0.3552,-0.5771,0.2303,0.2877,-0.2245,
11.270758,0.9211,-0.3552,-0.5771,0.2303,0.2877,-0.2245,
11.271877,0.3335,-0.1582,-0.8662,0.2303,0.2877,-0.2245,
11.298988,0.3335,-0.1582,-0.8662,0.2282,0.3593,-0.2459,
11.336232,0.3335,-0.1582,-0.8662,0.2282,0.3593,-0.2459,
11.338003,-0.2232,0.0363,-0.6228,0.2282,0.3593,-0.2459,
11.364911,-0.2232,0.0363,-0.6228,0.3176,0.1758,-0.0321,
11.401740,-0.2232,0.0363,-0.6228,0.3176,0.1758,-0.0321,
11.403626,0.4049,-0.2080,-0.6685,0.3176,0.1758,-0.0321,
11.433090,0.4049,-0.2080,-0.6685,0.4317,0.0919,-0.1168,
11.469776,0.4049,-0.2080,-0.6685,0.4317,0.0919,-0.1168,
11.471365,0.0793,-0.2230,-0.4797,0.4317,0.0919,-0.1168,
11.496592,0.0793,-0.2230,-0.4797,0.3879,-0.0234,-0.1035,
11.534138,0.0793,-0.2230,-0.4797,0.3879,-0.0234,-0.1035,
11.535821,0.1633,-0.0138,-0.2135,0.3879,-0.0234,-0.1035,
11.561686,0.1633,-0.0138,-0.2135,0.3114,-0.1811,0.0460,
11.598399,0.1633,-0.0138,-0.2135,0.3114,-0.1811,0.0460,
11.600151,0.6739,0.1105,-0.0243,0.3114,-0.1811,0.0460,
11.627799,0.6739,0.1105,-0.0243,0.1736,-0.2246,0.0336,
11.665292,0.6739,0.1105,-0.0243,0.1736,-0.2246,0.0336,
11.667616,0.6707,-0.0433,0.2615,0.1736,-0.2246,0.0336,
11.692113,0.6707,-0.0433,0.2615,0.0099,-0.3218,-0.0008,
11.729124,0.6707,-0.0433,0.2615,0.0099,-0.3218,-0.0008,
11.730371,1.1094,0.1140,0.0702,0.0099,-0.3218,-0.0008,
11.757081,1.1094,0.1140,0.0702,-0.0264,-0.2384,-0.0304,
11.794698,1.1094,0.1140,0.0702,-0.0264,-0.2384,-0.0304,
11.795468,1.0196,-0.0514,-0.1537,-0.0264,-0.2384,-0.0304,
11.822530,1.0196,-0.0514,-0.1537,0.0111,-0.0455,-0.0338,
11.860731,1.0196,-0.0514,-0.1537,0.0111,-0.0455,-0.0338,
11.862491,0.9381,-0.1653,-0.2340,0.0111,-0.0455,-0.0338,
11.887997,0.9381,-0.1653,-0.2340,0.0223,0.0834,-0.0796,
11.926051,0.9381,-0.1653,-0.2340,0.0223,0.0834,-0.0796,
11.927594,0.4185,0.1213,-0.0709,0.0223,0.0834,-0.0796,
11.954909,0.4185,0.1213,-0.0709,-0.0498,-0.0391,-0.1681,
11.992438,0.4185,0.1213,-0.0709,-0.0498,-0.0391,-0.1681,
11.994341,0.6112,0.5364,-0.3372,-0.0498,-0.0391,-0.1681,
12.019673,0.6112,0.5364,-0.3372,-0.1539,0.1361,-0.2448,
12.056878,0.6112,0.5364,-0.3372,-0.1539,0.1361,-0.2448,
12.059229,0.1405,0.8726,-0.1574,-0.1539,0.1361,-0.2448,
12.086821,0.1405,0.8726,-0.1574,-0.2080,0.2213,-0.1891,
12.123014,0.1405,0.8726,-0.1574,-0.2080,0.2213,-0.1891,
12.124854,0.0852,0.4997,-0.2059,-0.2080,0.2213,-0.1891,
12.151141,0.0852,0.4997,-0.2059,-0.3737,0.3522,-0.0932,
12.188975,0.0852,0.4997,-0.2059,-0.3737,0.3522,-0.0932,
12.191052,-0.4222,0.1991,-0.2716,-0.3737,0.3522,-0.0932,
12.215627,-0.4222,0.1991,-0.2716,-0.5136,0.5797,0.0742,
12.252913,-0.4222,0.1991,-0.2716,-0.5136,0.5797,0.0742,
12.254715,-1.0238,-0.3870,0.0499,-0.5136,0.5797,0.0742,
12.281957,-1.0238,-0.3870,0.0499,-0.5279,0.3549,0.2579,
12.318928,-1.0238,-0.3870,0.0499,-0.5279,0.3549,0.2579,
12.321169,-0.8536,-0.4686,0.2652,-0.5279,0.3549,0.2579,
12.346724,-0.8536,-0.4686,0.2652,-0.4290,0.2014,0.1639,
12.385211,-0.8536,-0.4686,0.2652,-0.4290,0.2014,0.1639,
12.386954,-0.6185,0.0445,0.2945,-0.4290,0.2014,0.1639,
12.412346,-0.6185,0.0445,0.2945,-0.3230,0.0246,0.0110,
12.449622,-0.6185,0.0445,0.2945,-0.3230,0.0246,0.0110,
12.450613,-0.6459,-0.8989,0.6474,-0.3230,0.0246,0.0110,
12.477312,-0.6459,-0.8989,0.6474,-0.1649,-0.0176,0.0505,
12.515619,-0.6459,-0.8989,0.6474,-0.1649,-0.0176,0.0505,
12.516732,-0.1550,-1.1295,0.8362,-0.1649,-0.0176,0.0505,
12.543341,-0.1550,-1.1295,0.8362,0.0267,-0.0365,-0.0014,
12.581071,-0.1550,-1.1295,0.8362,0.0267,-0.0365,-0.0014,
12.582274,0.0897,-0.9617,0.9407,0.0267,-0.0365,-0.0014,
12.608305,0.0897,-0.9617,0.9407,0.0927,0.0292,0.0790,
12.645573,0.0897,-0.9617,0.9407,0.0927,0.0292,0.0790,
12.646789,0.0969,-0.4082,1.0247,0.0927,0.0292,0.0790,
12.675091,0.0969,-0.4082,1.0247,0.1000,0.1194,0.2155,
12.711799,0.0969,-0.4082,1.0247,0.1000,0.1194,0.2155,
12.712964,0.2211,-0.0899,1.5007,0.1000,0.1194,0.2155,
12.739963,0.2211,-0.0899,1.5007,0.0574,0.1092,0.3490,
12.777115,0.2211,-0.0899,1.5007,0.0574,0.1092,0.3490,
12.778723,-0.2553,3.3704,0.2625,0.0574,0.1092,0.3490,
12.804204,-0.2553,3.3704,0.2625,0.1568,-0.2314,-0.2031,
12.842429,-0.2553,3.3704,0.2625,0.1568,-0.2314,-0.2031,
12.844052,-0.2100,-0.1912,-1.5140,0.1568,-0.2314,-0.2031,
12.871559,-0.2100,-0.1912,-1.5140,-0.0334,0.2158,-0.0493,
12.907874,-0.2100,-0.1912,-1.5140,-0.0334,0.2158,-0.0493,
12.908941,-0.1617,-0.8375,-0.7678,-0.0334,0.2158,-0.0493,
12.935868,-0.1617,-0.8375,-0.7678,0.3625,0.3105,-0.2027,
12.973128,-0.1617,-0.8375,-0.7678,0.3625,0.3105,-0.2027,
12.974881,-0.8403,-0.0374,-1.5032,0.3625,0.3105,-0.2027,
13.001639,-0.8403,-0.0374,-1.5032,0.1730,-0.0428,-0.0153,
13.038626,-0.8403,-0.0374,-1.5032,0.1730,-0.0428,-0.0153,
13.040263,-0.3746,-0.0806,-1.0028,0.1730,-0.0428,-0.0153,
13.067514,-0.3746,-0.0806,-1.0028,0.1701,0.0644,0.1930,
13.104530,-0.3746,-0.0806,-1.0028,0.1701,0.0644,0.1930,
13.106575,0.5501,-0.2616,-0.7277,0.1701,0.0644,0.1930,
13.134164,0.5501,-0.2616,-0.7277,0.2834,0.1523,-0.0087,
13.169741,0.5501,-0.2616,-0.7277,0.2834,0.1523,-0.0087,
13.171247,-0.0229,0.0869,-0.6187,0.2834,0.1523,-0.0087,
13.199203,-0.0229,0.0869,-0.6187,0.2370,0.1684,0.0180,
13.235791,-0.0229,0.0869,-0.6187,0.2370,0.1684,0.0180,
13.238297,-0.1257,0.0875,-0.2628,0.2370,0.1684,0.0180,
13.263566,-0.1257,0.0875,-0.2628,0.1918,0.0396,0.1081,
13.300788,-0.1257,0.0875,-0.2628,0.1918,0.0396,0.1081,
13.302293,0.2350,0.0189,-0.1264,0.1918,0.0396,0.1081,
13.329195,0.2350,0.0189,-0.1264,0.1448,-0.0939,0.0432,
13.366211,0.2350,0.0189,-0.1264,0.1448,-0.0939,0.0432,
13.367739,0.2979,-0.0576,0.1053,0.1448,-0.0939,0.0432,
13.394541,0.2979,-0.0576,0.1053,0.0325,-0.1961,0.0350,
13.433217,0.2979,-0.0576,0.1053,0.0325,-0.1961,0.0350,
13.434076,0.4893,0.0116,0.2632,0.0325,-0.1961,0.0350,
13.461821,0.4893,0.0116,0.2632,0.0414,-0.2983,-0.0110,
13.499002,0.4893,0.0116,0.2632,0.0414,-0.2983,-0.0110,
13.499778,0.6920,-0.0604,0.1165,0.0414,-0.2983,-0.0110,
13.526329,0.6920,-0.0604,0.1165,-0.0383,-0.2851,-0.0922,
13.562752,0.6920,-0.0604,0.1165,-0.0383,-0.2851,-0.0922,
13.563846,0.8153,-0.0691,0.0867,-0.0383,-0.2851,-0.0922,
13.590823,0.8153,-0.0691,0.0867,-0.0058,-0.1631,-0.1309,
13.626865,0.8153,-0.0691,0.0867,-0.0058,-0.1631,-0.1309,
13.628112,0.4609,-0.0940,0.0385,-0.0058,-0.1631,-0.1309,
13.656208,0.4609,-0.0940,0.0385,0.0489,-0.2485,-0.0924,
13.694427,0.4609,-0.0940,0.0385,0.0489,-0.2485,-0.0924,
13.696199,0.7905,-0.1890,-0.1522,0.0489,-0.2485,-0.0924,
13.722236,0.7905,-0.1890,-0.1522,0.0657,-0.1350,-0.0887,
13.760044,0.7905,-0.1890,-0.1522,0.0657,-0.1350,-0.0887,
13.761858,0.7625,0.0708,-0.1091,0.0657,-0.1350,-0.0887,
13.787382,0.7625,0.0708,-0.1091,0.0391,-0.0774,-0.1174,
13.824599,0.7625,0.0708,-0.1091,0.0391,-0.0774,-0.1174,
13.826434,0.2220,0.6645,-0.1118,0.0391,-0.0774,-0.1174,
13.853736,0.2220,0.6645,-0.1118,-0.0626,-0.1266,-0.0785,
13.889657,0.2220,0.6645,-0.1118,-0.0626,-0.1266,-0.0785,
13.890778,0.1833,0.6770,-0.1903,-0.0626,-0.1266,-0.0785,
13.918613,0.1833,0.6770,-0.1903,-0.1512,-0.0240,-0.0467,
13.954560,0.1833,0.6770,-0.1903,-0.1512,-0.0240,-0.0467,
13.956046,0.1523,0.5967,0.0008,-0.1512,-0.0240,-0.0467,
13.983807,0.1523,0.5967,0.0008,-0.2969,0.1510,-0.0246,
14.021036,0.1523,0.5967,0.0008,-0.2969,0.1510,-0.0246,
14.023023,-0.1639,0.0912,-0.2170,-0.2969,0.1510,-0.0246,
14.050011,-0.1639,0.0912,-0.2170,-0.4545,0.4455,0.0402,
14.086428,-0.1639,0.0912,-0.2170,-0.4545,0.4455,0.0402,
14.088332,-0.7625,-0.4864,-0.2188,-0.4545,0.4455,0.0402,
14.114155,-0.7625,-0.4864,-0.2188,-0.5223,0.4200,0.1216,
14.152592,-0.7625,-0.4864,-0.2188,-0.5223,0.4200,0.1216,
14.154701,-1.0187,-0.4727,0.4010,-0.5223,0.4200,0.1216,
14.180921,-1.0187,-0.4727,0.4010,-0.3920,0.1129,0.0854,
14.218042,-1.0187,-0.4727,0.4010,-0.3920,0.1129,0.0854,
14.219737,-0.8268,0.0405,0.2643,-0.3920,0.1129,0.0854,
14.247261,-0.8268,0.0405,0.2643,-0.2540,-0.1268,-0.0108,
14.283220,-0.8268,0.0405,0.2643,-0.2540,-0.1268,-0.0108,
14.285317,-0.6456,-0.6790,0.4662,-0.2540,-0.1268,-0.0108,
14.313088,-0.6456,-0.6790,0.4662,-0.1778,-0.2135,0.0530,
14.349878,-0.6456,-0.6790,0.4662,-0.1778,-0.2135,0.0530,
14.351789,-0.2024,-0.8968,0.7734,-0.1778,-0.2135,0.0530,
14.377041,-0.2024,-0.8968,0.7734,0.0258,-0.2636,0.0421,
14.414503,-0.2024,-0.8968,0.7734,0.0258,-0.2636,0.0421,
14.416076,-0.1493,-0.9589,0.8219,0.0258,-0.2636,0.0421,
14.441951,-0.1493,-0.9589,0.8219,0.1480,-0.2071,0.1151,
14.478445,-0.1493,-0.9589,0.8219,0.1480,-0.2071,0.1151,
14.479616,-0.1445,-0.3971,0.8683,0.1480,-0.2071,0.1151,
14.507828,-0.1445,-0.3971,0.8683,0.0889,-0.1761,0.2427,
14.544013,-0.1445,-0.3971,0.8683,0.0889,-0.1761,0.2427,
14.545405,0.3547,-0.4470,1.0453,0.0889,-0.1761,0.2427,
14.573864,0.3547,-0.4470,1.0453,0.1631,-0.1242,0.4326,
14.610235,0.3547,-0.4470,1.0453,0.1631,-0.1242,0.4326,
14.611818,0.2245,0.5062,1.2136,0.1631,-0.1242,0.4326,
14.638347,0.2245,0.5062,1.2136,-0.1107,-0.1776,-0.1348,
14.675486,0.2245,0.5062,1.2136,-0.1107,-0.1776,-0.1348,
14.677030,-0.6452,1.5713,-0.8848,-0.1107,-0.1776,-0.1348,
14.706533,-0.6452,1.5713,-0.8848,0.0564,-0.2834,-0.1529,
14.741181,-0.6452,1.5713,-0.8848,0.0564,-0.2834,-0.1529,
14.743608,-0.1735,-1.3065,-0.7682,0.0564,-0.2834,-0.1529,
14.771628,-0.1735,-1.3065,-0.7682,0.1049,0.3271,-0.0350,
14.807861,-0.1735,-1.3065,-0.7682,0.1049,0.3271,-0.0350,
14.809441,-0.4875,-0.2163,-1.1588,0.1049,0.3271,-0.0350,
14.835158,-0.4875,-0.2163,-1.1588,0.4126,-0.1602,-0.0777,
14.872582,-0.4875,-0.2163,-1.1588,0.4126,-0.1602,-0.0777,
14.874413,-1.1259,0.4213,-1.5005,0.4126,-0.1602,-0.0777,
14.900461,-1.1259,0.4213,-1.5005,0.0593,-0.4157,0.1660,
14.937722,-1.1259,0.4213,-1.5005,0.0593,-0.4157,0.1660,
14.939597,-0.0443,-0.4105,-0.5256,0.0593,-0.4157,0.1660,
14.965852,-0.0443,-0.4105,-0.5256,0.2618,-0.4884,0.1260,
15.003902,-0.0443,-0.4105,-0.5256,0.2618,-0.4884,0.1260,
15.006066,0.1907,-0.0544,-0.6428,0.2618,-0.4884,0.1260,
15.031667,0.1907,-0.0544,-0.6428,0.2706,-0.4659,0.0000,
15.068807,0.1907,-0.0544,-0.6428,0.2706,-0.4659,0.0000,
15.069990,-0.3154,0.0298,-0.2098,0.2706,-0.4659,0.0000,
15.097140,-0.3154,0.0298,-0.2098,0.2363,-0.5502,0.1214,
15.133342,-0.3154,0.0298,-0.2098,0.2363,-0.5502,0.1214,
15.133881,-0.0814,0.1635,-0.2269,0.2363,-0.5502,0.1214,
15.163018,-0.0814,0.1635,-0.2269,0.1941,-0.6869,0.1115,
15.200100,-0.0814,0.1635,-0.2269,0.1941,-0.6869,0.1115,
15.201112,-0.1335,-0.1385,-0.1320,0.1941,-0.6869,0.1115,
15.228142,-0.1335,-0.1385,-0.1320,0.0611,-0.8506,0.1796,
15.264633,-0.1335,-0.1385,-0.1320,0.0611,-0.8506,0.1796,
15.265246,0.4554,-0.2048,-0.0350,0.0611,-0.8506,0.1796,
15.292865,0.4554,-0.2048,-0.0350,-0.0020,-0.9450,0.1915,
15.330070,0.4554,-0.2048,-0.0350,-0.0020,-0.9450,0.1915,
15.330608,0.9912,-0.0304,-0.2356,-0.0020,-0.9450,0.1915,
15.358881,0.9912,-0.0304,-0.2356,-0.0431,-0.7802,0.1242,
15.396404,0.9912,-0.0304,-0.2356,-0.0431,-0.7802,0.1242,
15.397066,1.1510,-0.1158,-0.3647,-0.0431,-0.7802,0.1242,
15.424216,1.1510,-0.1158,-0.3647,-0.0322,-0.5504,-0.0281,
15.460472,1.1510,-0.1158,-0.3647,-0.0322,-0.5504,-0.0281,
15.461301,0.6119,0.0488,-0.3813,-0.0322,-0.5504,-0.0281,
15.489822,0.6119,0.0488,-0.3813,0.0205,-0.4626,-0.0903,
15.526439,0.6119,0.0488,-0.3813,0.0205,-0.4626,-0.0903,
15.527184,0.4052,0.0199,-0.2453,0.0205,-0.4626,-0.0903,
15.554729,0.4052,0.0199,-0.2453,0.0481,-0.4456,-0.1017,
15.591520,0.4052,0.0199,-0.2453,0.0481,-0.4456,-0.1017,
15.592308,0.6127,-0.1006,-0.3169,0.0481,-0.4456,-0.1017,
15.620445,0.6127,-0.1006,-0.3169,0.0031,-0.4215,-0.1492,
15.657108,0.6127,-0.1006,-0.3169,0.0031,-0.4215,-0.1492,
15.658309,0.1395,0.3167,-0.1290,0.0031,-0.4215,-0.1492,
15.685649,0.1395,0.3167,-0.1290,-0.0438,-0.4591,-0.0182,
15.723475,0.1395,0.3167,-0.1290,-0.0438,-0.4591,-0.0182,
15.724362,0.0330,0.3580,-0.0964,-0.0438,-0.4591,-0.0182,
15.751965,0.0330,0.3580,-0.0964,-0.1698,-0.3761,0.0699,
15.789018,0.0330,0.3580,-0.0964,-0.1698,-0.3761,0.0699,
15.790746,0.5372,0.5385,0.2402,-0.1698,-0.3761,0.0699,
15.817935,0.5372,0.5385,0.2402,-0.2552,-0.2124,-0.0826,
15.854386,0.5372,0.5385,0.2402,-0.2552,-0.2124,-0.0826,
15.855336,0.1725,0.4279,0.3226,-0.2552,-0.2124,-0.0826,
15.882866,0.1725,0.4279,0.3226,-0.2831,-0.0119,-0.0956,
15.920043,0.1725,0.4279,0.3226,-0.2831,-0.0119,-0.0956,
15.921685,-0.4320,-0.1119,0.1130,-0.2831,-0.0119,-0.0956,
15.949370,-0.4320,-0.1119,0.1130,-0.4200,0.1139,0.0145,
15.986316,-0.4320,-0.1119,0.1130,-0.4200,0.1139,0.0145,
15.987969,-0.9428,-0.1152,0.1107,-0.4200,0.1139,0.0145,
16.014324,-0.9428,-0.1152,0.1107,-0.4885,0.1150,0.1097,
16.051757,-0.9428,-0.1152,0.1107,-0.4885,0.1150,0.1097,
16.053867,-1.1165,-0.3079,-0.3269,-0.4885,0.1150,0.1097,
16.079644,-1.1165,-0.3079,-0.3269,-0.5481,0.0457,0.1746,
16.116258,-1.1165,-0.3079,-0.3269,-0.5481,0.0457,0.1746,
16.117235,-0.7153,-0.7531,0.1696,-0.5481,0.0457,0.1746,
16.146741,-0.7153,-0.7531,0.1696,-0.4001,-0.0476,0.2023,
16.180733,-0.7153,-0.7531,0.1696,-0.4001,-0.0476,0.2023,
16.181317,-0.3737,-0.3967,0.2105,-0.4001,-0.0476,0.2023,
16.210371,-0.3737,-0.3967,0.2105,-0.2220,-0.1895,0.1648,
16.247117,-0.3737,-0.3967,0.2105,-0.2220,-0.1895,0.1648,
16.247675,-0.5692,-0.2607,0.4216,-0.2220,-0.1895,0.1648,
16.275440,-0.5692,-0.2607,0.4216,-0.1097,-0.4281,0.1848,
16.313360,-0.5692,-0.2607,0.4216,-0.1097,-0.4281,0.1848,
16.314978,-0.1468,-0.4716,0.5689,-0.1097,-0.4281,0.1848,
16.341384,-0.1468,-0.4716,0.5689,0.0701,-0.4572,0.0909,
16.378103,-0.1468,-0.4716,0.5689,0.0701,-0.4572,0.0909,
16.379664,-0.2131,-0.2815,0.6814,0.0701,-0.4572,0.0909,
16.405795,-0.2131,-0.2815,0.6814,0.1312,-0.4226,0.0959,
16.444538,-0.2131,-0.2815,0.6814,0.1312,-0.4226,0.0959,
16.447375,-0.2400,-0.2562,0.8223,0.1312,-0.4226,0.0959,
16.473207,-0.2400,-0.2562,0.8223,0.1035,-0.4716,0.2013,
16.510873,-0.2400,-0.2562,0.8223,0.1035,-0.4716,0.2013,
16.512767,-0.1378,-0.2600,0.9796,0.1035,-0.4716,0.2013,
16.538162,-0.1378,-0.2600,0.9796,0.0440,-0.5020,0.2966,
16.574359,-0.1378,-0.2600,0.9796,0.0440,-0.5020,0.2966,
16.575412,0.2886,-0.5502,1.0672,0.0440,-0.5020,0.2966,
16.601792,0.2886,-0.5502,1.0672,0.0797,-0.3519,0.2818,
16.639559,0.2886,-0.5502,1.0672,0.0797,-0.3519,0.2818,
16.640500,-0.2769,2.5925,0.7867,0.0797,-0.3519,0.2818,
16.668323,-0.2769,2.5925,0.7867,-0.0089,-0.5150,-0.0872,
16.705009,-0.2769,2.5925,0.7867,-0.0089,-0.5150,-0.0872,
16.706204,-0.0421,-0.1054,-0.8575,-0.0089,-0.5150,-0.0872,
16.733640,-0.0421,-0.1054,-0.8575,-0.1138,-0.6260,-0.0125,
16.770904,-0.0421,-0.1054,-0.8575,-0.1138,-0.6260,-0.0125,
16.771928,-0.5839,-1.2144,-0.2229,-0.1138,-0.6260,-0.0125,
16.799516,-0.5839,-1.2144,-0.2229,0.0771,-0.3639,-0.0260,
16.836058,-0.5839,-1.2144,-0.2229,0.0771,-0.3639,-0.0260,
16.838395,-0.1447,0.3049,-1.2959,0.0771,-0.3639,-0.0260,
16.864336,-0.1447,0.3049,-1.2959,0.2130,-0.3522,0.0066,
16.902942,-0.1447,0.3049,-1.2959,0.2130,-0.3522,0.0066,
16.904765,-0.3557,0.1318,-1.1574,0.2130,-0.3522,0.0066,
16.931045,-0.3557,0.1318,-1.1574,0.0328,-0.2424,0.0428,
16.968175,-0.3557,0.1318,-1.1574,0.0328,-0.2424,0.0428,
16.970138,0.0072,0.0449,-0.3629,0.0328,-0.2424,0.0428,
16.995856,0.0072,0.0449,-0.3629,0.2321,-0.3981,0.0113,
17.032719,0.0072,0.0449,-0.3629,0.2321,-0.3981,0.0113,
17.033351,-0.0466,0.1596,-0.6657,0.2321,-0.3981,0.0113,
17.060504,-0.0466,0.1596,-0.6657,0.1610,-0.4795,-0.0176,
17.097037,-0.0466,0.1596,-0.6657,0.1610,-0.4795,-0.0176,
17.097866,-0.1116,-0.2460,-0.3771,0.1610,-0.4795,-0.0176,
17.125857,-0.1116,-0.2460,-0.3771,0.1573,-0.6153,0.0133,
17.163948,-0.1116,-0.2460,-0.3771,0.1573,-0.6153,0.0133,
17.165919,0.1332,-0.0591,-0.2390,0.1573,-0.6153,0.0133,
17.191983,0.1332,-0.0591,-0.2390,0.1185,-0.7172,0.0489,
17.229364,0.1332,-0.0591,-0.2390,0.1185,-0.7172,0.0489,
17.230074,0.2452,-0.0032,-0.1895,0.1185,-0.7172,0.0489,
17.258065,0.2452,-0.0032,-0.1895,0.0689,-0.7902,0.0683,
17.295171,0.2452,-0.0032,-0.1895,0.0689,-0.7902,0.0683,
17.296705,0.6228,-0.1023,-0.0387,0.0689,-0.7902,0.0683,
17.324659,0.6228,-0.1023,-0.0387,0.0399,-0.7758,0.0738,
17.361352,0.6228,-0.1023,-0.0387,0.0399,-0.7758,0.0738,
17.362456,1.0469,-0.1243,0.0183,0.0399,-0.7758,0.0738,
17.388493,1.0469,-0.1243,0.0183,0.0226,-0.6591,0.0115,
17.425989,1.0469,-0.1243,0.0183,0.0226,-0.6591,0.0115,
17.426645,1.2844,-0.1678,-0.1142,0.0226,-0.6591,0.0115,
17.454476,1.2844,-0.1678,-0.1142,0.0049,-0.4209,-0.0878,
17.492799,1.2844,-0.1678,-0.1142,0.0049,-0.4209,-0.0878,
17.494766,1.0970,-0.0126,-0.0041,0.0049,-0.4209,-0.0878,
17.520382,1.0970,-0.0126,-0.0041,0.0991,-0.2318,-0.1547,
17.557427,1.0970,-0.0126,-0.0041,0.0991,-0.2318,-0.1547,
17.559142,0.6728,0.0138,-0.1542,0.0991,-0.2318,-0.1547,
17.585824,0.6728,0.0138,-0.1542,0.1084,-0.1222,-0.1732,
17.622520,0.6728,0.0138,-0.1542,0.1084,-0.1222,-0.1732,
17.624951,0.4209,0.0705,-0.0418,0.1084,-0.1222,-0.1732,
17.650883,0.4209,0.0705,-0.0418,0.0443,-0.0518,-0.1571,
17.687389,0.4209,0.0705,-0.0418,0.0443,-0.0518,-0.1571,
17.688705,0.4510,0.5966,-0.1924,0.0443,-0.0518,-0.1571,
17.719799,0.4510,0.5966,-0.1924,-0.0144,0.1097,-0.0748,
17.755073,0.4510,0.5966,-0.1924,-0.0144,0.1097,-0.0748,
17.758256,0.2008,0.7829,-0.3947,-0.0144,0.1097,-0.0748,
17.783503,0.2008,0.7829,-0.3947,-0.1865,0.1912,-0.0954,
17.817936,0.2008,0.7829,-0.3947,-0.1865,0.1912,-0.0954,
17.819622,-0.4360,0.7383,0.0825,-0.1865,0.1912,-0.0954,
17.846487,-0.4360,0.7383,0.0825,-0.3549,0.3181,-0.0313,
17.883912,-0.4360,0.7383,0.0825,-0.3549,0.3181,-0.0313,
17.885804,-0.5595,-0.1069,-0.0942,-0.3549,0.3181,-0.0313,
17.911769,-0.5595,-0.1069,-0.0942,-0.4844,0.5179,-0.0000,
17.949695,-0.5595,-0.1069,-0.0942,-0.4844,0.5179,-0.0000,
17.951993,-1.3413,-0.4024,0.0290,-0.4844,0.5179,-0.0000,
17.977832,-1.3413,-0.4024,0.0290,-0.5840,0.3642,0.1513,
18.014292,-1.3413,-0.4024,0.0290,-0.5840,0.3642,0.1513,
18.014916,-0.9322,-0.6954,0.3453,-0.5840,0.3642,0.1513,
18.043365,-0.9322,-0.6954,0.3453,-0.4236,0.1695,0.1848,
18.080369,-0.9322,-0.6954,0.3453,-0.4236,0.1695,0.1848,
18.080923,-0.4125,-0.0174,0.4386,-0.4236,0.1695,0.1848,
18.109203,-0.4125,-0.0174,0.4386,-0.1319,-0.0544,0.0082,
18.146891,-0.4125,-0.0174,0.4386,-0.1319,-0.0544,0.0082,
18.150003,-0.7135,-0.8081,0.3185,-0.1319,-0.0544,0.0082,
18.174265,-0.7135,-0.8081,0.3185,0.0153,-0.0857,-0.0837,
18.211261,-0.7135,-0.8081,0.3185,0.0153,-0.0857,-0.0837,
18.212876,-0.4471,-1.4643,0.6671,0.0153,-0.0857,-0.0837,
18.241963,-0.4471,-1.4643,0.6671,0.2117,-0.0516,-0.0669,
18.278827,-0.4471,-1.4643,0.6671,0.2117,-0.0516,-0.0669,
18.280563,-0.5903,-0.2324,0.6387,0.2117,-0.0516,-0.0669,
18.304874,-0.5903,-0.2324,0.6387,0.2083,-0.1109,0.1211,
18.342636,-0.5903,-0.2324,0.6387,0.2083,-0.1109,0.1211,
18.344318,-0.3431,-0.0186,0.7586,0.2083,-0.1109,0.1211,
18.370283,-0.3431,-0.0186,0.7586,0.2356,-0.1394,0.1973,
18.406929,-0.3431,-0.0186,0.7586,0.2356,-0.1394,0.1973,
18.408899,-0.3523,-0.8410,0.7815,0.2356,-0.1394,0.1973,
18.435886,-0.3523,-0.8410,0.7815,0.0958,0.0867,0.1058,
18.473843,-0.3523,-0.8410,0.7815,0.0958,0.0867,0.1058,
18.475862,-0.5987,0.4605,1.2514,0.0958,0.0867,0.1058,
18.502332,-0.5987,0.4605,1.2514,-0.0205,-0.0574,-0.1243,
18.538603,-0.5987,0.4605,1.2514,-0.0205,-0.0574,-0.1243,
18.539705,-0.4052,1.7887,-0.9581,-0.0205,-0.0574,-0.1243,
18.567459,-0.4052,1.7887,-0.9581,0.1788,-0.1721,0.0142,
18.604682,-0.4052,1.7887,-0.9581,0.1788,-0.1721,0.0142,
18.606497,-0.0065,-1.1785,0.4366,0.1788,-0.1721,0.0142,
18.632370,-0.0065,-1.1785,0.4366,0.2240,0.1839,-0.0038,
18.669723,-0.0065,-1.1785,0.4366,0.2240,0.1839,-0.0038,
18.671351,1.2080,-0.3725,-0.8583,0.2240,0.1839,-0.0038,
18.699391,1.2080,-0.3725,-0.8583,0.6347,0.1935,-0.2874,
18.735327,1.2080,-0.3725,-0.8583,0.6347,0.1935,-0.2874,
18.736885,-0.7189,0.2648,-1.3801,0.6347,0.1935,-0.2874,
18.763047,-0.7189,0.2648,-1.3801,0.2217,0.1274,0.0370,
18.800929,-0.7189,0.2648,-1.3801,0.2217,0.1274,0.0370,
18.802512,-0.3733,-0.1387,-0.1467,0.2217,0.1274,0.0370,
18.828270,-0.3733,-0.1387,-0.1467,0.3270,-0.2639,0.1397,
18.865142,-0.3733,-0.1387,-0.1467,0.3270,-0.2639,0.1397,
18.866666,0.2454,-0.0358,-0.4629,0.3270,-0.2639,0.1397,
18.893316,0.2454,-0.0358,-0.4629,0.2615,-0.3265,0.0258,
18.930367,0.2454,-0.0358,-0.4629,0.2615,-0.3265,0.0258,
18.931123,0.4564,0.0021,-0.2958,0.2615,-0.3265,0.0258,
18.959364,0.4564,0.0021,-0.2958,0.3170,-0.1784,0.0564,
18.996739,0.4564,0.0021,-0.2958,0.3170,-0.1784,0.0564,
18.997338,0.4057,-0.0308,-0.1699,0.3170,-0.1784,0.0564,
19.025554,0.4057,-0.0308,-0.1699,0.2972,-0.1826,0.0140,
19.061841,0.4057,-0.0308,-0.1699,0.2972,-0.1826,0.0140,
19.062885,0.0302,0.0079,-0.1195,0.2972,-0.1826,0.0140,
19.091750,0.0302,0.0079,-0.1195,0.2191,-0.2740,0.0608,
19.127214,0.0302,0.0079,-0.1195,0.2191,-0.2740,0.0608,
19.129351,0.3000,-0.0447,-0.0115,0.2191,-0.2740,0.0608,
19.156472,0.3000,-0.0447,-0.0115,0.1257,-0.3781,0.0447,
19.192545,0.3000,-0.0447,-0.0115,0.1257,-0.3781,0.0447,
19.194049,0.5132,-0.0189,0.0361,0.1257,-0.3781,0.0447,
19.221013,0.5132,-0.0189,0.0361,0.0887,-0.3601,0.0405,
19.258914,0.5132,-0.0189,0.0361,0.0887,-0.3601,0.0405,
19.260306,0.6169,-0.1044,-0.0788,0.0887,-0.3601,0.0405,
19.286728,0.6169,-0.1044,-0.0788,0.0535,-0.2587,-0.0654,
19.324176,0.6169,-0.1044,-0.0788,0.0535,-0.2587,-0.0654,
19.325348,0.5503,-0.0627,-0.0292,0.0535,-0.2587,-0.0654,
19.352493,0.5503,-0.0627,-0.0292,0.0072,-0.2005,-0.1321,
19.389813,0.5503,-0.0627,-0.0292,0.0072,-0.2005,-0.1321,
19.391676,0.5748,-0.0433,-0.2411,0.0072,-0.2005,-0.1321,
19.419974,0.5748,-0.0433,-0.2411,-0.0440,-0.1529,-0.1530,
19.455808,0.5748,-0.0433,-0.2411,-0.0440,-0.1529,-0.1530,
19.457432,0.3729,0.0607,-0.2578,-0.0440,-0.1529,-0.1530,
19.483886,0.3729,0.0607,-0.2578,-0.1141,-0.2088,-0.0921,
19.521171,0.3729,0.0607,-0.2578,-0.1141,-0.2088,-0.0921,
19.523158,0.5698,0.1202,-0.2864,-0.1141,-0.2088,-0.0921,
19.550475,0.5698,0.1202,-0.2864,-0.1513,-0.2608,-0.0142,
19.587297,0.5698,0.1202,-0.2864,-0.1513,-0.2608,-0.0142,
19.588697,1.0261,0.2788,-0.2260,-0.1513,-0.2608,-0.0142,
19.615299,1.0261,0.2788,-0.2260,-0.1578,-0.1736,-0.0564,
19.652631,1.0261,0.2788,-0.2260,-0.1578,-0.1736,-0.0564,
19.654719,0.9711,0.2936,-0.2049,-0.1578,-0.1736,-0.0564,
19.681584,0.9711,0.2936,-0.2049,-0.2326,-0.0693,-0.0730,
19.718774,0.9711,0.2936,-0.2049,-0.2326,-0.0693,-0.0730,
19.720922,0.5783,0.4472,-0.0932,-0.2326,-0.0693,-0.0730,
19.746069,0.5783,0.4472,-0.0932,-0.3642,-0.0312,0.0182,
19.783755,0.5783,0.4472,-0.0932,-0.3642,-0.0312,0.0182,
19.784699,0.1573,0.3011,-0.0864,-0.3642,-0.0312,0.0182,
19.811534,0.1573,0.3011,-0.0864,-0.4394,0.1219,0.0373,
19.849190,0.1573,0.3011,-0.0864,-0.4394,0.1219,0.0373,
19.850979,-0.3410,0.3226,-0.3599,-0.4394,0.1219,0.0373,
19.877019,-0.3410,0.3226,-0.3599,-0.6614,0.3653,-0.0064,
19.915316,-0.3410,0.3226,-0.3599,-0.6614,0.3653,-0.0064,
19.916950,-1.2321,0.0100,-0.2127,-0.6614,0.3653,-0.0064,
19.941383,-1.2321,0.0100,-0.2127,-0.7176,0.3792,0.1738,
19.980057,-1.2321,0.0100,-0.2127,-0.7176,0.3792,0.1738,
19.981852,-1.4458,-0.5613,0.1244,-0.7176,0.3792,0.1738,
20.007960,-1.4458,-0.5613,0.1244,-0.6403,0.2813,0.2094,
20.045446,-1.4458,-0.5613,0.1244,-0.6403,0.2813,0.2094,
20.047313,-0.6021,-0.0526,0.3951,-0.6403,0.2813,0.2094,
20.072600,-0.6021,-0.0526,0.3951,-0.3540,-0.0116,0.0405,
20.111006,-0.6021,-0.0526,0.3951,-0.3540,-0.0116,0.0405,
20.112443,-0.8859,-0.4626,0.0488,-0.3540,-0.0116,0.0405,
20.138830,-0.8859,-0.4626,0.0488,-0.2526,-0.1547,0.0235,
20.176400,-0.8859,-0.4626,0.0488,-0.2526,-0.1547,0.0235,
20.178068,-0.7311,-1.1980,0.6777,-0.2526,-0.1547,0.0235,
20.204261,-0.7311,-1.1980,0.6777,-0.0475,-0.3004,-0.0432,
20.242047,-0.7311,-1.1980,0.6777,-0.0475,-0.3004,-0.0432,
20.243592,-0.3265,-0.9536,0.8303,-0.0475,-0.3004,-0.0432,
20.269814,-0.3265,-0.9536,0.8303,0.1173,-0.2921,0.0609,
20.306634,-0.3265,-0.9536,0.8303,0.1173,-0.2921,0.0609,
20.308570,0.0708,-0.7291,0.8503,0.1173,-0.2921,0.0609,
20.337266,0.0708,-0.7291,0.8503,0.1819,-0.0823,0.2367,
20.373235,0.0708,-0.7291,0.8503,0.1819,-0.0823,0.2367,
20.375950,-0.0289,-0.4203,1.1249,0.1819,-0.0823,0.2367,
20.400750,-0.0289,-0.4203,1.1249,0.1862,0.0956,0.2769,
20.438013,-0.0289,-0.4203,1.1249,0.1862,0.0956,0.2769,
20.439486,-0.4614,-0.8323,1.1155,0.1862,0.0956,0.2769,
20.466333,-0.4614,-0.8323,1.1155,0.1431,0.1875,0.2520,
20.503681,-0.4614,-0.8323,1.1155,0.1431,0.1875,0.2520,
20.505248,-0.8042,1.6944,0.6297,0.1431,0.1875,0.2520,
20.533334,-0.8042,1.6944,0.6297,-0.0215,-0.3523,-0.2805,
20.569672,-0.8042,1.6944,0.6297,-0.0215,-0.3523,-0.2805,
20.572191,-0.0054,0.9582,-1.8889,-0.0215,-0.3523,-0.2805,
20.598523,-0.0054,0.9582,-1.8889,0.1093,-0.1570,0.0003,
20.633321,-0.0054,0.9582,-1.8889,0.1093,-0.1570,0.0003,
20.635651,0.2912,-1.4865,-0.3649,0.1093,-0.1570,0.0003,
20.663570,0.2912,-1.4865,-0.3649,0.2715,0.4516,-0.0099,
20.700602,0.2912,-1.4865,-0.3649,0.2715,0.4516,-0.0099,
20.702495,-0.3744,0.3758,-0.8119,0.2715,0.4516,-0.0099,
20.729728,-0.3744,0.3758,-0.8119,0.3334,-0.1962,-0.0084,
20.765396,-0.3744,0.3758,-0.8119,0.3334,-0.1962,-0.0084,
20.767176,-0.3636,0.2983,-0.9521,0.3334,-0.1962,-0.0084,
20.794772,-0.3636,0.2983,-0.9521,0.1692,-0.2250,0.1978,
20.832956,-0.3636,0.2983,-0.9521,0.1692,-0.2250,0.1978,
20.834787,0.8823,-0.3937,-0.7530,0.1692,-0.2250,0.1978,
20.857977,0.8823,-0.3937,-0.7530,0.2906,-0.1429,0.0696,
20.896824,0.8823,-0.3937,-0.7530,0.2906,-0.1429,0.0696,
20.898626,0.5577,0.0427,-0.7106,0.2906,-0.1429,0.0696,
20.924083,0.5577,0.0427,-0.7106,0.2779,-0.0476,-0.0011,
20.960527,0.5577,0.0427,-0.7106,0.2779,-0.0476,-0.0011,
20.962045,-0.0939,-0.1480,-0.4014,0.2779,-0.0476,-0.0011,
20.990516,-0.0939,-0.1480,-0.4014,0.2563,-0.1581,0.0895,
21.026962,-0.0939,-0.1480,-0.4014,0.2563,-0.1581,0.0895,
21.028016,0.1497,-0.2715,-0.3699,0.2563,-0.1581,0.0895,
21.054363,0.1497,-0.2715,-0.3699,0.1936,-0.2422,0.0732,
21.092330,0.1497,-0.2715,-0.3699,0.1936,-0.2422,0.0732,
21.093620,0.4699,-0.1125,-0.1529,0.1936,-0.2422,0.0732,
21.121360,0.4699,-0.1125,-0.1529,0.1591,-0.2147,0.0907,
21.158054,0.4699,-0.1125,-0.1529,0.1591,-0.2147,0.0907,
21.159795,0.5466,-0.0756,-0.1208,0.1591,-0.2147,0.0907,
21.185813,0.5466,-0.0756,-0.1208,0.0415,-0.1914,0.0380,
21.223532,0.5466,-0.0756,-0.1208,0.0415,-0.1914,0.0380,
21.224707,0.5587,-0.0380,0.0727,0.0415,-0.1914,0.0380,
21.251075,0.5587,-0.0380,0.0727,-0.0211,-0.2370,-0.0486,
21.288928,0.5587,-0.0380,0.0727,-0.0211,-0.2370,-0.0486,
21.290513,0.7184,0.1680,-0.0174,-0.0211,-0.2370,-0.0486,
21.317920,0.7184,0.1680,-0.0174,-0.0421,-0.2879,-0.1358,
21.354982,0.7184,0.1680,-0.0174,-0.0421,-0.2879,-0.1358,
21.356733,0.7006,0.0342,0.0373,-0.0421,-0.2879,-0.1358,
21.382964,0.7006,0.0342,0.0373,-0.0310,-0.3690,-0.1715,
21.419378,0.7006,0.0342,0.0373,-0.0310,-0.3690,-0.1715,
21.420962,0.9291,-0.0791,-0.1078,-0.0310,-0.3690,-0.1715,
21.447503,0.9291,-0.0791,-0.1078,0.0052,-0.2932,-0.2314,
21.485124,0.9291,-0.0791,-0.1078,0.0052,-0.2932,-0.2314,
21.486840,0.7803,0.6479,-0.2626,0.0052,-0.2932,-0.2314,
21.512833,0.7803,0.6479,-0.2626,-0.1562,-0.1733,-0.2326,
21.550794,0.7803,0.6479,-0.2626,-0.1562,-0.1733,-0.2326,
21.552369,0.5202,1.0058,-0.3612,-0.1562,-0.1733,-0.2326,
21.578668,0.5202,1.0058,-0.3612,-0.3616,0.0177,-0.1486,
21.616431,0.5202,1.0058,-0.3612,-0.3616,0.0177,-0.1486,
21.618903,0.0169,0.9164,-0.2843,-0.3616,0.0177,-0.1486,
21.643787,0.0169,0.9164,-0.2843,-0.5353,0.2240,-0.1008,
21.680885,0.0169,0.9164,-0.2843,-0.5353,0.2240,-0.1008,
21.682274,-0.5167,0.4719,-0.1557,-0.5353,0.2240,-0.1008,
21.709314,-0.5167,0.4719,-0.1557,-0.6121,0.3638,-0.0315,
21.746658,-0.5167,0.4719,-0.1557,-0.6121,0.3638,-0.0315,
21.748087,-0.6655,-0.5007,-0.0946,-0.6121,0.3638,-0.0315,
21.774408,-0.6655,-0.5007,-0.0946,-0.5570,0.4291,-0.0223,
21.812561,-0.6655,-0.5007,-0.0946,-0.5570,0.4291,-0.0223,
21.814236,-0.4782,-1.0056,0.1216,-0.5570,0.4291,-0.0223,
21.840265,-0.4782,-1.0056,0.1216,-0.4281,0.4346,-0.1295,
21.877672,-0.4782,-1.0056,0.1216,-0.4281,0.4346,-0.1295,
21.879210,-0.7977,-0.1191,0.3446,-0.4281,0.4346,-0.1295,
21.906250,-0.7977,-0.1191,0.3446,-0.2926,0.1390,-0.0961,
21.943912,-0.7977,-0.1191,0.3446,-0.2926,0.1390,-0.0961,
21.945314,-0.9616,-0.9409,0.5376,-0.2926,0.1390,-0.0961,
21.971204,-0.9616,-0.9409,0.5376,-0.1570,0.0206,0.0371,
22.008965,-0.9616,-0.9409,0.5376,-0.1570,0.0206,0.0371,
22.010514,-0.0703,-1.3080,0.6569,-0.1570,0.0206,0.0371,
22.037622,-0.0703,-1.3080,0.6569,0.0284,0.0538,-0.0011,
22.074536,-0.0703,-1.3080,0.6569,0.0284,0.0538,-0.0011,
22.077168,-0.0386,-0.9851,0.8866,0.0284,0.0538,-0.0011,
22.102771,-0.0386,-0.9851,0.8866,0.2193,0.0819,0.0579,
22.139590,-0.0386,-0.9851,0.8866,0.2193,0.0819,0.0579,
22.141176,-0.1226,-0.3184,0.6853,0.2193,0.0819,0.0579,
22.169448,-0.1226,-0.3184,0.6853,0.0507,0.1585,0.1556,
22.205114,-0.1226,-0.3184,0.6853,0.0507,0.1585,0.1556,
22.207157,-0.4072,-0.5495,1.0363,0.0507,0.1585,0.1556,
22.232841,-0.4072,-0.5495,1.0363,0.1159,0.0838,0.3989,
22.270639,-0.4072,-0.5495,1.0363,0.1159,0.0838,0.3989,
22.271585,0.2698,-1.8298,1.4719,0.1159,0.0838,0.3989,
22.299046,0.2698,-1.8298,1.4719,0.3277,0.0855,0.4998,
22.337922,0.2698,-1.8298,1.4719,0.3277,0.0855,0.4998,
22.339023,0.5284,6.2537,0.3748,0.3277,0.0855,0.4998,
22.365759,0.5284,6.2537,0.3748,0.5046,-0.4030,-0.2995,
22.403007,0.5284,6.2537,0.3748,0.5046,-0.4030,-0.2995,
22.404190,-0.0936,1.0087,-2.7510,0.5046,-0.4030,-0.2995,
22.430194,-0.0936,1.0087,-2.7510,-0.0921,0.4815,0.2422,
22.469229,-0.0936,1.0087,-2.7510,-0.0921,0.4815,0.2422,
22.471179,-0.4305,-2.5530,0.2398,-0.0921,0.4815,0.2422,
22.496420,-0.4305,-2.5530,0.2398,0.6245,0.5124,-0.0298,
22.532483,-0.4305,-2.5530,0.2398,0.6245,0.5124,-0.0298,
22.533715,-0.3165,0.2032,-2.0617,0.6245,0.5124,-0.0298,
22.560780,-0.3165,0.2032,-2.0617,0.4111,-0.0971,-0.1374,
22.598062,-0.3165,0.2032,-2.0617,0.4111,-0.0971,-0.1374,
22.599212,-1.0935,0.4758,-1.0441,0.4111,-0.0971,-0.1374,
22.626929,-1.0935,0.4758,-1.0441,0.1689,0.0000,0.2460,
22.664001,-1.0935,0.4758,-1.0441,0.1689,0.0000,0.2460,
22.664478,0.0330,-0.6178,-0.3487,0.1689,0.0000,0.2460,
22.692413,0.0330,-0.6178,-0.3487,0.3696,-0.2404,0.1000,
22.729025,0.0330,-0.6178,-0.3487,0.3696,-0.2404,0.1000,
22.729576,0.3162,0.1785,-0.6203,0.3696,-0.2404,0.1000,
22.758552,0.3162,0.1785,-0.6203,0.3245,-0.1239,0.0162,
22.793906,0.3162,0.1785,-0.6203,0.3245,-0.1239,0.0162,
22.794514,0.2005,-0.1170,-0.2038,0.3245,-0.1239,0.0162,
22.822872,0.2005,-0.1170,-0.2038,0.3612,-0.1129,0.0183,
22.861695,0.2005,-0.1170,-0.2038,0.3612,-0.1129,0.0183,
22.863173,0.2148,-0.0086,-0.2647,0.3612,-0.1129,0.0183,
22.887984,0.2148,-0.0086,-0.2647,0.2998,-0.1022,0.0429,
22.926801,0.2148,-0.0086,-0.2647,0.2998,-0.1022,0.0429,
22.928664,0.2488,0.0939,0.0040,0.2998,-0.1022,0.0429,
22.954737,0.2488,0.0939,0.0040,0.2608,-0.1604,0.0832,
22.992112,0.2488,0.0939,0.0040,0.2608,-0.1604,0.0832,
22.993273,0.3055,-0.1507,0.0459,0.2608,-0.1604,0.0832,
23.020572,0.3055,-0.1507,0.0459,0.1556,-0.2017,0.0574,
23.056781,0.3055,-0.1507,0.0459,0.1556,-0.2017,0.0574,
23.058484,0.3348,-0.0289,0.0060,0.1556,-0.2017,0.0574,
23.084418,0.3348,-0.0289,0.0060,0.0081,-0.2265,0.0724,
23.122835,0.3348,-0.0289,0.0060,0.0081,-0.2265,0.0724,
23.124440,0.8108,-0.1434,0.0472,0.0081,-0.2265,0.0724,
23.149765,0.8108,-0.1434,0.0472,-0.0402,-0.1660,-0.0018,
23.188061,0.8108,-0.1434,0.0472,-0.0402,-0.1660,-0.0018,
23.189610,0.8195,0.0037,-0.0005,-0.0402,-0.1660,-0.0018,
23.215182,0.8195,0.0037,-0.0005,-0.0889,-0.1565,-0.1327,
23.254576,0.8195,0.0037,-0.0005,-0.0889,-0.1565,-0.1327,
23.256631,0.6291,0.1607,-0.2108,-0.0889,-0.1565,-0.1327,
23.280989,0.6291,0.1607,-0.2108,-0.0562,-0.1657,-0.1793,
23.318543,0.6291,0.1607,-0.2108,-0.0562,-0.1657,-0.1793,
23.320066,0.4723,0.3710,-0.4150,-0.0562,-0.1657,-0.1793,
23.348199,0.4723,0.3710,-0.4150,-0.0192,-0.0925,-0.1205,
23.384922,0.4723,0.3710,-0.4150,-0.0192,-0.0925,-0.1205,
23.386521,0.4765,0.3931,-0.0960,-0.0192,-0.0925,-0.1205,
23.411505,0.4765,0.3931,-0.0960,-0.1625,-0.2001,-0.0325,
23.449142,0.4765,0.3931,-0.0960,-0.1625,-0.2001,-0.0325,
23.451085,0.7777,0.4021,-0.0160,-0.1625,-0.2001,-0.0325,
23.479023,0.7777,0.4021,-0.0160,-0.1614,-0.2184,-0.0199,
23.516934,0.7777,0.4021,-0.0160,-0.1614,-0.2184,-0.0199,
23.519494,0.1299,0.5092,-0.1678,-0.1614,-0.2184,-0.0199,
23.542639,0.1299,0.5092,-0.1678,-0.2314,-0.1637,-0.0835,
23.580613,0.1299,0.5092,-0.1678,-0.2314,-0.1637,-0.0835,
23.582125,-0.0193,0.3029,0.1856,-0.2314,-0.1637,-0.0835,
23.610323,-0.0193,0.3029,0.1856,-0.3450,-0.0942,-0.1374,
23.646546,-0.0193,0.3029,0.1856,-0.3450,-0.0942,-0.1374,
23.647994,-0.2290,-0.0944,0.1099,-0.3450,-0.0942,-0.1374,
23.674574,-0.2290,-0.0944,0.1099,-0.4175,0.2059,-0.1122,
23.712027,-0.2290,-0.0944,0.1099,-0.4175,0.2059,-0.1122,
23.712570,-0.9720,-0.6771,-0.2757,-0.4175,0.2059,-0.1122,
23.739025,-0.9720,-0.6771,-0.2757,-0.5032,0.3125,0.0564,
23.778115,-0.9720,-0.6771,-0.2757,-0.5032,0.3125,0.0564,
23.778618,-1.3265,-0.6083,0.2325,-0.5032,0.3125,0.0564,
23.805228,-1.3265,-0.6083,0.2325,-0.4478,0.2640,0.1512,
23.843054,-1.3265,-0.6083,0.2325,-0.4478,0.2640,0.1512,
23.844584,-0.0114,0.2833,0.2658,-0.4478,0.2640,0.1512,
23.871198,-0.0114,0.2833,0.2658,-0.2376,0.2107,-0.0617,
23.910927,-0.0114,0.2833,0.2658,-0.2376,0.2107,-0.0617,
23.912893,-0.2075,-0.4267,0.1273,-0.2376,0.2107,-0.0617,
23.936840,-0.2075,-0.4267,0.1273,-0.1190,0.3022,-0.0974,
23.975583,-0.2075,-0.4267,0.1273,-0.1190,0.3022,-0.0974,
23.977879,-0.5784,-0.4720,0.5437,-0.1190,0.3022,-0.0974,
24.002547,-0.5784,-0.4720,0.5437,-0.0733,0.1889,-0.0623,
24.039621,-0.5784,-0.4720,0.5437,-0.0733,0.1889,-0.0623,
24.041301,-0.4268,-0.5423,0.6281,-0.0733,0.1889,-0.0623,
24.070135,-0.4268,-0.5423,0.6281,0.0396,0.1578,-0.0021,
24.105586,-0.4268,-0.5423,0.6281,0.0396,0.1578,-0.0021,
24.108593,-0.3320,-0.5865,0.8131,0.0396,0.1578,-0.0021,
24.133165,-0.3320,-0.5865,0.8131,0.0877,0.1187,0.0896,
24.169732,-0.3320,-0.5865,0.8131,0.0877,0.1187,0.0896,
24.171251,-0.2383,-0.4765,1.0249,0.0877,0.1187,0.0896,
24.198168,-0.2383,-0.4765,1.0249,0.1613,0.1098,0.1793,
24.235639,-0.2383,-0.4765,1.0249,0.1613,0.1098,0.1793,
24.237366,-0.2526,-1.1102,0.5628,0.1613,0.1098,0.1793,
24.263441,-0.2526,-1.1102,0.5628,0.1865,0.1101,0.1923,
24.301392,-0.2526,-1.1102,0.5628,0.1865,0.1101,0.1923,
24.302267,-0.4407,-2.1712,1.4111,0.1865,0.1101,0.1923,
24.330234,-0.4407,-2.1712,1.4111,-0.0276,-0.0163,0.0318,
24.366945,-0.4407,-2.1712,1.4111,-0.0276,-0.0163,0.0318,
24.367653,-0.9703,4.1372,-0.9059,-0.0276,-0.0163,0.0318,
24.394571,-0.9703,4.1372,-0.9059,0.9675,-0.1988,-0.1558,
24.431550,-0.9703,4.1372,-0.9059,0.9675,-0.1988,-0.1558,
24.433235,0.5909,-0.1218,-1.4052,0.9675,-0.1988,-0.1558,
24.460064,0.5909,-0.1218,-1.4052,0.0831,1.0666,0.3387,
24.498057,0.5909,-0.1218,-1.4052,0.0831,1.0666,0.3387,
24.499857,1.2065,-0.6599,0.2967,0.0831,1.0666,0.3387,
24.525250,1.2065,-0.6599,0.2967,0.8604,0.3965,-0.2892,
24.563407,1.2065,-0.6599,0.2967,0.8604,0.3965,-0.2892,
24.564096,-1.1906,0.7009,-1.4501,0.8604,0.3965,-0.2892,
24.591646,-1.1906,0.7009,-1.4501,0.4023,0.3198,0.0458,
24.628369,-1.1906,0.7009,-1.4501,0.4023,0.3198,0.0458,
24.629421,-0.5358,-0.1817,-0.5139,0.4023,0.3198,0.0458,
24.656693,-0.5358,-0.1817,-0.5139,0.2746,-0.0454,0.1993,
24.695758,-0.5358,-0.1817,-0.5139,0.2746,-0.0454,0.1993,
24.696594,0.5303,-0.1677,-0.3359,0.2746,-0.0454,0.1993,
24.723504,0.5303,-0.1677,-0.3359,0.3845,-0.0858,0.0064,
24.759326,0.5303,-0.1677,-0.3359,0.3845,-0.0858,0.0064,
24.760067,0.2971,0.0029,-0.4634,0.3845,-0.0858,0.0064,
24.787462,0.2971,0.0029,-0.4634,0.1756,0.0368,0.0721,
24.825622,0.2971,0.0029,-0.4634,0.1756,0.0368,0.0721,
24.827260,0.2263,-0.2052,-0.1330,0.1756,0.0368,0.0721,
24.853896,0.2263,-0.2052,-0.1330,0.2017,-0.0689,0.0214,
24.891247,0.2263,-0.2052,-0.1330,0.2017,-0.0689,0.0214,
24.892245,0.1033,-0.0818,-0.3711,0.2017,-0.0689,0.0214,
24.918354,0.1033,-0.0818,-0.3711,0.0182,-0.0848,0.1037,
24.955442,0.1033,-0.0818,-0.3711,0.0182,-0.0848,0.1037,
24.957090,0.5039,-0.2161,-0.1072,0.0182,-0.0848,0.1037,
24.983926,0.5039,-0.2161,-0.1072,-0.0003,-0.1119,0.0881,
25.020883,0.5039,-0.2161,-0.1072,-0.0003,-0.1119,0.0881,
25.022904,0.5172,-0.1292,-0.2870,-0.0003,-0.1119,0.0881,
25.049327,0.5172,-0.1292,-0.2870,-0.0333,-0.0733,0.0156,
25.086393,0.5172,-0.1292,-0.2870,-0.0333,-0.0733,0.0156,
25.088481,0.1899,0.0770,-0.2381,-0.0333,-0.0733,0.0156,
25.118901,0.1899,0.0770,-0.2381,-0.1530,-0.1978,0.0157,
25.152208,0.1899,0.0770,-0.2381,-0.1530,-0.1978,0.0157,
25.154367,0.7022,0.1362,-0.1584,-0.1530,-0.1978,0.0157,
25.180913,0.7022,0.1362,-0.1584,-0.2231,-0.2106,-0.0115,
25.218433,0.7022,0.1362,-0.1584,-0.2231,-0.2106,-0.0115,
25.220047,1.0321,0.1928,-0.1405,-0.2231,-0.2106,-0.0115,
25.247026,1.0321,0.1928,-0.1405,-0.2242,-0.1828,-0.1323,
25.282764,1.0321,0.1928,-0.1405,-0.2242,-0.1828,-0.1323,
25.284493,0.7993,0.3396,-0.4374,-0.2242,-0.1828,-0.1323,
25.312255,0.7993,0.3396,-0.4374,-0.1713,-0.2595,-0.1807,
25.349544,0.7993,0.3396,-0.4374,-0.1713,-0.2595,-0.1807,
25.351649,0.7587,0.5095,-0.3895,-0.1713,-0.2595,-0.1807,
25.376478,0.7587,0.5095,-0.3895,-0.2575,-0.3137,-0.0698,
25.413793,0.7587,0.5095,-0.3895,-0.2575,-0.3137,-0.0698,
25.415002,1.0536,0.0706,-0.2626,-0.2575,-0.3137,-0.0698,
25.442014,1.0536,0.0706,-0.2626,-0.3720,-0.2411,-0.0269,
25.479976,1.0536,0.0706,-0.2626,-0.3720,-0.2411,-0.0269,
25.480498,0.7981,-0.1408,-0.1823,-0.3720,-0.2411,-0.0269,
25.508405,0.7981,-0.1408,-0.1823,-0.4178,-0.0476,-0.0848,
25.545792,0.7981,-0.1408,-0.1823,-0.4178,-0.0476,-0.0848,
25.547337,-0.2688,0.0624,-0.5559,-0.4178,-0.0476,-0.0848,
25.572290,-0.2688,0.0624,-0.5559,-0.5646,0.2666,-0.1471,
25.610596,-0.2688,0.0624,-0.5559,-0.5646,0.2666,-0.1471,
25.612078,-1.8242,-0.5602,-0.0354,-0.5646,0.2666,-0.1471,
25.638472,-1.8242,-0.5602,-0.0354,-0.5851,0.2923,0.0567,
25.676231,-1.8242,-0.5602,-0.0354,-0.5851,0.2923,0.0567,
25.677986,-1.2660,0.1652,0.3104,-0.5851,0.2923,0.0567,
25.703728,-1.2660,0.1652,0.3104,-0.3306,0.3225,0.0553,
25.742018,-1.2660,0.1652,0.3104,-0.3306,0.3225,0.0553,
25.743602,-0.3555,-0.2186,-0.5173,-0.3306,0.3225,0.0553,
25.770081,-0.3555,-0.2186,-0.5173,-0.3132,0.3807,-0.0901,
25.806673,-0.3555,-0.2186,-0.5173,-0.3132,0.3807,-0.0901,
25.807694,-0.9276,-0.9249,0.1768,-0.3132,0.3807,-0.0901,
25.834511,-0.9276,-0.9249,0.1768,-0.2990,0.2404,-0.0728,
25.872599,-0.9276,-0.9249,0.1768,-0.2990,0.2404,-0.0728,
25.873780,-0.8101,-0.3525,0.3220,-0.2990,0.2404,-0.0728,
25.901044,-0.8101,-0.3525,0.3220,-0.2353,0.0121,0.0195,
25.938058,-0.8101,-0.3525,0.3220,-0.2353,0.0121,0.0195,
25.938751,-0.2858,-0.1796,0.1018,-0.2353,0.0121,0.0195,
25.966228,-0.2858,-0.1796,0.1018,-0.1764,0.0133,0.0322,
26.003498,-0.2858,-0.1796,0.1018,-0.1764,0.0133,0.0322,
26.004493,-0.0676,-0.0619,0.3833,-0.1764,0.0133,0.0322,
26.031974,-0.0676,-0.0619,0.3833,-0.1110,0.0535,0.0003,
26.068505,-0.0676,-0.0619,0.3833,-0.1110,0.0535,0.0003,
26.070436,-0.1724,-0.1449,0.4187,-0.1110,0.0535,0.0003,
26.099897,-0.1724,-0.1449,0.4187,-0.1255,0.0652,0.0353,
26.134504,-0.1724,-0.1449,0.4187,-0.1255,0.0652,0.0353,
26.136414,-0.3207,-0.1666,0.5943,-0.1255,0.0652,0.0353,
26.162861,-0.3207,-0.1666,0.5943,-0.0499,0.0041,0.0895,
26.200125,-0.3207,-0.1666,0.5943,-0.0499,0.0041,0.0895,
26.201927,-0.1251,-0.3397,0.6757,-0.0499,0.0041,0.0895,
26.228780,-0.1251,-0.3397,0.6757,-0.0076,0.0467,0.1604,
26.264967,-0.1251,-0.3397,0.6757,-0.0076,0.0467,0.1604,
26.267518,0.0296,-0.4121,0.7138,-0.0076,0.0467,0.1604,
26.293739,0.0296,-0.4121,0.7138,0.1565,0.1852,0.1182,
26.331547,0.0296,-0.4121,0.7138,0.1565,0.1852,0.1182,
26.332173,-0.0979,-0.5674,0.8902,0.1565,0.1852,0.1182,
26.359055,-0.0979,-0.5674,0.8902,0.2059,0.2146,0.1364,
26.397449,-0.0979,-0.5674,0.8902,0.2059,0.2146,0.1364,
26.400047,-0.9014,-0.8132,1.0088,0.2059,0.2146,0.1364,
26.424805,-0.9014,-0.8132,1.0088,0.2944,-0.0942,0.2786,
26.460742,-0.9014,-0.8132,1.0088,0.2944,-0.0942,0.2786,
26.462326,-0.7853,-1.1122,0.5571,0.2944,-0.0942,0.2786,
26.489329,-0.7853,-1.1122,0.5571,-0.0283,-0.5429,-0.3244,
26.527918,-0.7853,-1.1122,0.5571,-0.0283,-0.5429,-0.3244,
26.529792,0.3020,2.8245,-1.8839,-0.0283,-0.5429,-0.3244,
26.555098,0.3020,2.8245,-1.8839,0.2137,-0.3908,-0.1184,
26.594146,0.3020,2.8245,-1.8839,0.2137,-0.3908,-0.1184,
26.596059,0.6187,-1.7513,-0.8332,0.2137,-0.3908,-0.1184,
26.621877,0.6187,-1.7513,-0.8332,0.1483,0.8563,0.0519,
26.658810,0.6187,-1.7513,-0.8332,0.1483,0.8563,0.0519,
26.659931,0.1480,0.3227,-0.3481,0.1483,0.8563,0.0519,
26.686301,0.1480,0.3227,-0.3481,0.6034,0.2023,-0.1843,
26.723259,0.1480,0.3227,-0.3481,0.6034,0.2023,-0.1843,
26.724657,-1.0569,0.1327,-1.0509,0.6034,0.2023,-0.1843,
26.752590,-1.0569,0.1327,-1.0509,0.2512,0.0535,0.1243,
26.789017,-1.0569,0.1327,-1.0509,0.2512,0.0535,0.1243,
26.793046,-0.0402,-0.3076,-0.1805,0.2512,0.0535,0.1243,
26.816914,-0.0402,-0.3076,-0.1805,0.4134,-0.1611,0.2454,
26.855556,-0.0402,-0.3076,-0.1805,0.4134,-0.1611,0.2454,
26.857173,0.4251,-0.0079,-0.3349,0.4134,-0.1611,0.2454,
26.883016,0.4251,-0.0079,-0.3349,0.3004,-0.2234,0.1987,
26.921982,0.4251,-0.0079,-0.3349,0.3004,-0.2234,0.1987,
26.924322,0.3199,-0.3059,-0.0169,0.3004,-0.2234,0.1987,
26.950739,0.3199,-0.3059,-0.0169,0.2630,-0.2239,0.2146,
26.986623,0.3199,-0.3059,-0.0169,0.2630,-0.2239,0.2146,
26.989710,0.5225,0.0567,0.0766,0.2630,-0.2239,0.2146,
27.015548,0.5225,0.0567,0.0766,0.2158,-0.1953,0.1408,
27.050941,0.5225,0.0567,0.0766,0.2158,-0.1953,0.1408,
27.053346,0.7051,0.0734,0.0101,0.2158,-0.1953,0.1408,
27.080631,0.7051,0.0734,0.0101,0.0843,-0.1086,0.0418,
27.118241,0.7051,0.0734,0.0101,0.0843,-0.1086,0.0418,
27.120058,0.6057,0.0608,-0.0119,0.0843,-0.1086,0.0418,
27.144547,0.6057,0.0608,-0.0119,0.0887,-0.1097,-0.0887,
27.181973,0.6057,0.0608,-0.0119,0.0887,-0.1097,-0.0887,
27.184252,0.3507,-0.1303,-0.1632,0.0887,-0.1097,-0.0887,
27.210170,0.3507,-0.1303,-0.1632,0.0218,-0.1472,-0.1358,
27.248643,0.3507,-0.1303,-0.1632,0.0218,-0.1472,-0.1358,
27.250651,0.4098,-0.1060,-0.0921,0.0218,-0.1472,-0.1358,
27.276066,0.4098,-0.1060,-0.0921,-0.0255,-0.2337,-0.1513,
27.313130,0.4098,-0.1060,-0.0921,-0.0255,-0.2337,-0.1513,
27.314345,0.8624,0.0515,-0.1428,-0.0255,-0.2337,-0.1513,
27.342420,0.8624,0.0515,-0.1428,-0.0620,-0.2495,-0.1880,
27.378173,0.8624,0.0515,-0.1428,-0.0620,-0.2495,-0.1880,
27.379288,0.9015,0.1049,-0.1670,-0.0620,-0.2495,-0.1880,
27.406857,0.9015,0.1049,-0.1670,-0.0507,-0.2589,-0.2714,
27.444061,0.9015,0.1049,-0.1670,-0.0507,-0.2589,-0.2714,
27.445903,0.6591,0.3514,-0.3249,-0.0507,-0.2589,-0.2714,
27.472100,0.6591,0.3514,-0.3249,0.0153,-0.3319,-0.1972,
27.509735,0.6591,0.3514,-0.3249,0.0153,-0.3319,-0.1972,
27.511575,1.2259,0.2857,-0.1585,0.0153,-0.3319,-0.1972,
27.538032,1.2259,0.2857,-0.1585,-0.1115,-0.2543,-0.1691,
27.574807,1.2259,0.2857,-0.1585,-0.1115,-0.2543,-0.1691,
27.575859,1.3312,0.5700,0.1284,-0.1115,-0.2543,-0.1691,
27.604057,1.3312,0.5700,0.1284,-0.1651,-0.1475,-0.2025,
27.640229,1.3312,0.5700,0.1284,-0.1651,-0.1475,-0.2025,
27.642422,0.6636,0.5958,-0.2157,-0.1651,-0.1475,-0.2025,
27.668469,0.6636,0.5958,-0.2157,-0.3650,0.1242,-0.2191,
27.705681,0.6636,0.5958,-0.2157,-0.3650,0.1242,-0.2191,
27.707422,-0.8625,0.2466,-0.1853,-0.3650,0.1242,-0.2191,
27.733010,-0.8625,0.2466,-0.1853,-0.5421,0.2686,-0.0553,
27.770359,-0.8625,0.2466,-0.1853,-0.5421,0.2686,-0.0553,
27.771899,-1.6398,-1.0912,0.2296,-0.5421,0.2686,-0.0553,
27.799440,-1.6398,-1.0912,0.2296,-0.5244,0.2986,0.1953,
27.837050,-1.6398,-1.0912,0.2296,-0.5244,0.2986,0.1953,
27.839024,-1.0898,0.2223,0.1929,-0.5244,0.2986,0.1953,
27.864605,-1.0898,0.2223,0.1929,-0.3413,0.3618,0.1423,
27.902510,-1.0898,0.2223,0.1929,-0.3413,0.3618,0.1423,
27.904314,-0.4669,0.0056,-0.2434,-0.3413,0.3618,0.1423,
27.931435,-0.4669,0.0056,-0.2434,-0.3884,0.3157,0.0325,
27.967840,-0.4669,0.0056,-0.2434,-0.3884,0.3157,0.0325,
27.969637,-0.5674,-0.8560,0.3789,-0.3884,0.3157,0.0325,
27.997032,-0.5674,-0.8560,0.3789,-0.2295,0.3088,-0.0049,
28.035005,-0.5674,-0.8560,0.3789,-0.2295,0.3088,-0.0049,
28.036999,-0.2872,-0.4705,0.4412,-0.2295,0.3088,-0.0049,
28.062221,-0.2872,-0.4705,0.4412,-0.1521,0.2483,0.0221,
28.099338,-0.2872,-0.4705,0.4412,-0.1521,0.2483,0.0221,
28.100790,0.0077,-0.7692,0.6691,-0.1521,0.2483,0.0221,
28.128832,0.0077,-0.7692,0.6691,0.0240,0.3151,0.0580,
28.164815,0.0077,-0.7692,0.6691,0.0240,0.3151,0.0580,
28.165393,0.0129,-0.6370,0.8422,0.0240,0.3151,0.0580,
28.191126,0.0129,-0.6370,0.8422,0.0999,0.3508,0.1187,
28.229372,0.0129,-0.6370,0.8422,0.0999,0.3508,0.1187,
28.230356,-0.1210,-0.5729,1.0672,0.0999,0.3508,0.1187,
28.257276,-0.1210,-0.5729,1.0672,0.0272,0.3952,0.2301,
28.294792,-0.1210,-0.5729,1.0672,0.0272,0.3952,0.2301,
28.295247,-0.2081,-1.3142,1.1896,0.0272,0.3952,0.2301,
28.322636,-0.2081,-1.3142,1.1896,0.0037,0.2772,0.3813,
28.359973,-0.2081,-1.3142,1.1896,0.0037,0.2772,0.3813,
28.360516,-0.5253,-1.0452,1.5700,0.0037,0.2772,0.3813,
28.388833,-0.5253,-1.0452,1.5700,-0.2468,-0.2563,-0.3519,
28.426078,-0.5253,-1.0452,1.5700,-0.2468,-0.2563,-0.3519,
28.426663,-0.4120,2.2922,-2.9108,-0.2468,-0.2563,-0.3519,
28.454451,-0.4120,2.2922,-2.9108,0.3334,0.1921,0.0420,
28.490705,-0.4120,2.2922,-2.9108,0.3334,0.1921,0.0420,
28.491410,0.0832,-1.4622,-1.6686,0.3334,0.1921,0.0420,
28.519575,0.0832,-1.4622,-1.6686,0.1133,1.1012,-0.0095,
28.556585,0.0832,-1.4622,-1.6686,0.1133,1.1012,-0.0095,
28.557394,-1.2439,0.0736,-0.0669,0.1133,1.1012,-0.0095,
28.584587,-1.2439,0.0736,-0.0669,0.6480,-0.4087,-0.0796,
28.621052,-1.2439,0.0736,-0.0669,0.6480,-0.4087,-0.0796,
28.621838,-0.5297,0.2272,-1.5202,0.6480,-0.4087,-0.0796,
28.649621,-0.5297,0.2272,-1.5202,0.1962,-0.0333,0.1516,
28.687025,-0.5297,0.2272,-1.5202,0.1962,-0.0333,0.1516,
28.688411,0.7452,-0.2676,-0.3551,0.1962,-0.0333,0.1516,
28.715378,0.7452,-0.2676,-0.3551,0.2937,0.0684,-0.0089,
28.752350,0.7452,-0.2676,-0.3551,0.2937,0.0684,-0.0089,
28.753439,0.5547,-0.2311,-0.2415,0.2937,0.0684,-0.0089,
28.780423,0.5547,-0.2311,-0.2415,0.3786,0.1193,-0.0858,
28.817643,0.5547,-0.2311,-0.2415,0.3786,0.1193,-0.0858,
28.818539,-0.1208,-0.0557,-0.2725,0.3786,0.1193,-0.0858,
28.846125,-0.1208,-0.0557,-0.2725,0.2883,0.0295,0.0254,
28.883639,-0.1208,-0.0557,-0.2725,0.2883,0.0295,0.0254,
28.884858,0.2870,-0.2502,-0.0253,0.2883,0.0295,0.0254,
28.911717,0.2870,-0.2502,-0.0253,0.2210,-0.1084,-0.0432,
28.949644,0.2870,-0.2502,-0.0253,0.2210,-0.1084,-0.0432,
28.951197,0.5933,-0.1144,-0.0716,0.2210,-0.1084,-0.0432,
28.977777,0.5933,-0.1144,-0.0716,0.1735,-0.1813,-0.0608,
29.014714,0.5933,-0.1144,-0.0716,0.1735,-0.1813,-0.0608,
29.016420,0.5659,-0.0708,0.0824,0.1735,-0.1813,-0.0608,
29.043301,0.5659,-0.0708,0.0824,0.0890,-0.2866,-0.0611,
29.081281,0.5659,-0.0708,0.0824,0.0890,-0.2866,-0.0611,
29.083101,0.8751,0.0114,0.1910,0.0890,-0.2866,-0.0611,
29.108155,0.8751,0.0114,0.1910,-0.0215,-0.3532,-0.1037,
29.145721,0.8751,0.0114,0.1910,-0.0215,-0.3532,-0.1037,
29.147398,1.1544,0.1503,0.0250,-0.0215,-0.3532,-0.1037,
29.174168,1.1544,0.1503,0.0250,-0.0728,-0.3622,-0.1625,
29.211508,1.1544,0.1503,0.0250,-0.0728,-0.3622,-0.1625,
29.213046,1.2113,0.5780,-0.5731,-0.0728,-0.3622,-0.1625,
29.240318,1.2113,0.5780,-0.5731,-0.0945,-0.0915,-0.1405,
29.276593,1.2113,0.5780,-0.5731,-0.0945,-0.0915,-0.1405,
29.278023,0.9763,1.1938,-0.1502,-0.0945,-0.0915,-0.1405,
29.305407,0.9763,1.1938,-0.1502,-0.2164,-0.0365,-0.0371,
29.343568,0.9763,1.1938,-0.1502,-0.2164,-0.0365,-0.0371,
29.344612,0.6283,1.0345,-0.5593,-0.2164,-0.0365,-0.0371,
29.370936,0.6283,1.0345,-0.5593,-0.3638,0.0305,-0.0493,
29.407825,0.6283,1.0345,-0.5593,-0.3638,0.0305,-0.0493,
29.409253,-0.3025,0.5019,-0.3102,-0.3638,0.0305,-0.0493,
29.436425,-0.3025,0.5019,-0.3102,-0.3645,0.2237,-0.1454,
29.472679,-0.3025,0.5019,-0.3102,-0.3645,0.2237,-0.1454,
29.474636,-1.3389,-0.7840,-0.1975,-0.3645,0.2237,-0.1454,
29.501435,-1.3389,-0.7840,-0.1975,-0.5148,0.3271,0.0231,
29.539316,-1.3389,-0.7840,-0.1975,-0.5148,0.3271,0.0231,
29.541229,-1.1852,-0.5718,0.3813,-0.5148,0.3271,0.0231,
29.567281,-1.1852,-0.5718,0.3813,-0.4103,0.3543,0.0301,
29.605108,-1.1852,-0.5718,0.3813,-0.4103,0.3543,0.0301,
29.606522,-0.6190,-0.0712,-0.3205,-0.4103,0.3543,0.0301,
29.632890,-0.6190,-0.0712,-0.3205,-0.3725,0.4178,0.0089,
29.668717,-0.6190,-0.0712,-0.3205,-0.3725,0.4178,0.0089,
29.670281,-0.7081,-0.7761,-0.1572,-0.3725,0.4178,0.0089,
29.697784,-0.7081,-0.7761,-0.1572,-0.4067,0.4453,0.0315,
29.735537,-0.7081,-0.7761,-0.1572,-0.4067,0.4453,0.0315,
29.737746,-0.6459,-0.3280,0.0671,-0.4067,0.4453,0.0315,
29.763653,-0.6459,-0.3280,0.0671,-0.4258,0.2957,0.0693,
29.800645,-0.6459,-0.3280,0.0671,-0.4258,0.2957,0.0693,
29.802896,-0.2764,-0.2779,0.2618,-0.4258,0.2957,0.0693,
29.829045,-0.2764,-0.2779,0.2618,-0.1816,0.2292,0.1014,
29.867707,-0.2764,-0.2779,0.2618,-0.1816,0.2292,0.1014,
29.869990,0.0970,-0.5379,0.1288,-0.1816,0.2292,0.1014,
29.894946,0.0970,-0.5379,0.1288,-0.1263,0.3427,0.0313,
29.932676,0.0970,-0.5379,0.1288,-0.1263,0.3427,0.0313,
29.934426,0.1176,-0.4638,0.6860,-0.1263,0.3427,0.0313,
29.961319,0.1176,-0.4638,0.6860,-0.0550,0.3412,0.0050,
29.997324,0.1176,-0.4638,0.6860,-0.0550,0.3412,0.0050,
29.998906,-0.0922,-0.6397,0.6959,-0.0550,0.3412,0.0050,
30.026183,-0.0922,-0.6397,0.6959,-0.0365,0.3106,0.1232,
30.063913,-0.0922,-0.6397,0.6959,-0.0365,0.3106,0.1232,
30.066585,-0.2940,-0.5763,0.9408,-0.0365,0.3106,0.1232,
30.092193,-0.2940,-0.5763,0.9408,0.0347,0.2392,0.2352,
30.128508,-0.2940,-0.5763,0.9408,0.0347,0.2392,0.2352,
30.130493,-0.2903,-0.9603,1.0327,0.0347,0.2392,0.2352,
30.156558,-0.2903,-0.9603,1.0327,0.1970,0.2277,0.1982,
30.194539,-0.2903,-0.9603,1.0327,0.1970,0.2277,0.1982,
30.196432,-0.2244,-1.0403,1.2640,0.1970,0.2277,0.1982,
30.221319,-0.2244,-1.0403,1.2640,0.0793,0.2460,0.1112,
30.259039,-0.2244,-1.0403,1.2640,0.0793,0.2460,0.1112,
30.260550,0.5558,6.2873,0.3421,0.0793,0.2460,0.1112,
30.287381,0.5558,6.2873,0.3421,0.6581,-0.2083,-0.5026,
30.324753,0.5558,6.2873,0.3421,0.6581,-0.2083,-0.5026,
30.326685,0.2155,-0.0628,-3.3455,0.6581,-0.2083,-0.5026,
30.352675,0.2155,-0.0628,-3.3455,-0.2352,0.7590,0.1593,
30.390592,0.2155,-0.0628,-3.3455,-0.2352,0.7590,0.1593,
30.392088,-0.0975,-1.9910,0.7099,-0.2352,0.7590,0.1593,
30.418984,-0.0975,-1.9910,0.7099,0.8657,0.7094,-0.0547,
30.456250,-0.0975,-1.9910,0.7099,0.8657,0.7094,-0.0547,
30.458231,0.2636,0.0945,-2.3182,0.8657,0.7094,-0.0547,
30.484890,0.2636,0.0945,-2.3182,0.4841,0.0797,-0.2706,
30.521975,0.2636,0.0945,-2.3182,0.4841,0.0797,-0.2706,
30.523590,-0.8658,0.0398,-0.7533,0.4841,0.0797,-0.2706,
30.550428,-0.8658,0.0398,-0.7533,0.3358,0.2416,0.2095,
30.588007,-0.8658,0.0398,-0.7533,0.3358,0.2416,0.2095,
30.589028,0.6201,-0.3469,-0.2410,0.3358,0.2416,0.2095,
30.618713,0.6201,-0.3469,-0.2410,0.5021,0.0728,-0.0092,
30.652767,0.6201,-0.3469,-0.2410,0.5021,0.0728,-0.0092,
30.655112,0.2452,0.1736,-0.3052,0.5021,0.0728,-0.0092,
30.681440,0.2452,0.1736,-0.3052,0.4026,0.1130,-0.0142,
30.718478,0.2452,0.1736,-0.3052,0.4026,0.1130,-0.0142,
30.719969,0.1824,0.0136,0.0205,0.4026,0.1130,-0.0142,
30.746169,0.1824,0.0136,0.0205,0.3896,-0.0044,0.0576,
30.784837,0.1824,0.0136,0.0205,0.3896,-0.0044,0.0576,
30.787382,0.3355,0.0097,0.0080,0.3896,-0.0044,0.0576,
30.811943,0.3355,0.0097,0.0080,0.2712,-0.1092,0.0284,
30.848390,0.3355,0.0097,0.0080,0.2712,-0.1092,0.0284,
30.850136,0.5199,-0.0437,0.0885,0.2712,-0.1092,0.0284,
30.876616,0.5199,-0.0437,0.0885,0.1713,-0.2016,-0.0275,
30.914161,0.5199,-0.0437,0.0885,0.1713,-0.2016,-0.0275,
30.915749,0.6299,-0.1408,-0.0110,0.1713,-0.2016,-0.0275,
30.941430,0.6299,-0.1408,-0.0110,0.0687,-0.3164,-0.0710,
30.979647,0.6299,-0.1408,-0.0110,0.0687,-0.3164,-0.0710,
30.981176,0.8680,-0.0071,0.0209,0.0687,-0.3164,-0.0710,
31.008236,0.8680,-0.0071,0.0209,-0.0545,-0.3555,-0.1028,
31.044088,0.8680,-0.0071,0.0209,-0.0545,-0.3555,-0.1028,
31.045445,1.1663,0.4376,-0.0657,-0.0545,-0.3555,-0.1028,
31.074229,1.1663,0.4376,-0.0657,-0.1521,-0.3809,-0.1468,
31.110565,1.1663,0.4376,-0.0657,-0.1521,-0.3809,-0.1468,
31.112194,1.4250,0.8185,-0.5039,-0.1521,-0.3809,-0.1468,
31.139156,1.4250,0.8185,-0.5039,-0.0941,-0.1494,-0.1500,
31.178027,1.4250,0.8185,-0.5039,-0.0941,-0.1494,-0.1500,
31.179971,1.3099,0.7747,-0.0240,-0.0941,-0.1494,-0.1500,
31.204836,1.3099,0.7747,-0.0240,-0.1994,0.0229,-0.0580,
31.240949,1.3099,0.7747,-0.0240,-0.1994,0.0229,-0.0580,
31.242744,0.9734,0.5606,-0.2083,-0.1994,0.0229,-0.0580,
31.270020,0.9734,0.5606,-0.2083,-0.2906,0.1532,-0.0235,
31.307328,0.9734,0.5606,-0.2083,-0.2906,0.1532,-0.0235,
31.309105,-0.0500,-0.2315,-0.5450,-0.2906,0.1532,-0.0235,
31.336541,-0.0500,-0.2315,-0.5450,-0.3891,0.4514,-0.1255,
31.372679,-0.0500,-0.2315,-0.5450,-0.3891,0.4514,-0.1255,
31.375735,-1.9801,-0.7041,-0.3055,-0.3891,0.4514,-0.1255,
31.401038,-1.9801,-0.7041,-0.3055,-0.5046,0.4191,0.1058,
31.438400,-1.9801,-0.7041,-0.3055,-0.5046,0.4191,0.1058,
31.439537,-1.4996,0.0707,0.1836,-0.5046,0.4191,0.1058,
31.467110,-1.4996,0.0707,0.1836,-0.3166,0.3178,0.1064,
31.504481,-1.4996,0.0707,0.1836,-0.3166,0.3178,0.1064,
31.506722,-0.7239,-0.0857,-0.6512,-0.3166,0.3178,0.1064,
31.532772,-0.7239,-0.0857,-0.6512,-0.4337,0.2801,0.0089,
31.570434,-0.7239,-0.0857,-0.6512,-0.4337,0.2801,0.0089,
31.572271,-0.9897,-0.5981,0.2109,-0.4337,0.2801,0.0089,
31.598154,-0.9897,-0.5981,0.2109,-0.2943,0.1474,0.0134,
31.634884,-0.9897,-0.5981,0.2109,-0.2943,0.1474,0.0134,
31.636467,-0.6130,-0.2668,0.0247,-0.2943,0.1474,0.0134,
31.662950,-0.6130,-0.2668,0.0247,-0.3254,0.0678,0.0191,
31.700357,-0.6130,-0.2668,0.0247,-0.3254,0.0678,0.0191,
31.702121,-0.0618,-0.6359,0.2529,-0.3254,0.0678,0.0191,
31.729408,-0.0618,-0.6359,0.2529,-0.1622,0.2547,0.0038,
31.766812,-0.0618,-0.6359,0.2529,-0.1622,0.2547,0.0038,
31.768213,-0.0151,-0.6062,0.4921,-0.1622,0.2547,0.0038,
31.794042,-0.0151,-0.6062,0.4921,-0.0440,0.3047,-0.0102,
31.830961,-0.0151,-0.6062,0.4921,-0.0440,0.3047,-0.0102,
31.832675,-0.2760,-0.1663,0.6222,-0.0440,0.3047,-0.0102,
31.859159,-0.2760,-0.1663,0.6222,0.0177,0.2862,0.0901,
31.896812,-0.2760,-0.1663,0.6222,0.0177,0.2862,0.0901,
31.898791,-0.1380,-0.7057,0.9612,0.0177,0.2862,0.0901,
31.925926,-0.1380,-0.7057,0.9612,0.1281,0.3380,0.1915,
31.961355,-0.1380,-0.7057,0.9612,0.1281,0.3380,0.1915,
31.963080,0.0117,-0.6987,1.2459,0.1281,0.3380,0.1915,
31.989684,0.0117,-0.6987,1.2459,0.2527,0.3574,0.1764,
32.027289,0.0117,-0.6987,1.2459,0.2527,0.3574,0.1764,
32.029404,-0.0588,-0.1147,0.3281,0.2527,0.3574,0.1764,
32.055080,-0.0588,-0.1147,0.3281,-0.1113,0.3958,0.1480,
32.093961,-0.0588,-0.1147,0.3281,-0.1113,0.3958,0.1480,
32.096170,-0.9023,-2.2045,0.6742,-0.1113,0.3958,0.1480,
32.120888,-0.9023,-2.2045,0.6742,-0.3978,0.3276,0.0586,
32.158343,-0.9023,-2.2045,0.6742,-0.3978,0.3276,0.0586,
32.160756,-0.4885,4.9340,-0.4809,-0.3978,0.3276,0.0586,
32.186706,-0.4885,4.9340,-0.4809,0.8893,-0.3280,-0.1788,
32.224022,-0.4885,4.9340,-0.4809,0.8893,-0.3280,-0.1788,
32.225903,-0.1297,-0.7578,-2.3784,0.8893,-0.3280,-0.1788,
32.252211,-0.1297,-0.7578,-2.3784,-0.1465,1.2307,0.4175,
32.291321,-0.1297,-0.7578,-2.3784,-0.1465,1.2307,0.4175,
32.293260,0.6692,-0.6708,0.4450,-0.1465,1.2307,0.4175,
32.318898,0.6692,-0.6708,0.4450,0.8894,0.1226,-0.1826,
32.354349,0.6692,-0.6708,0.4450,0.8894,0.1226,-0.1826,
32.356110,-1.5466,0.3411,-2.0226,0.8894,0.1226,-0.1826,
32.382463,-1.5466,0.3411,-2.0226,0.2657,-0.0049,0.0735,
32.420494,-1.5466,0.3411,-2.0226,0.2657,-0.0049,0.0735,
32.422320,0.0687,0.0194,-0.2436,0.2657,-0.0049,0.0735,
32.448630,0.0687,0.0194,-0.2436,0.3798,-0.0200,0.2479,
32.486559,0.0687,0.0194,-0.2436,0.3798,-0.0200,0.2479,
32.488399,0.6661,-0.1491,-0.5148,0.3798,-0.0200,0.2479,
32.517025,0.6661,-0.1491,-0.5148,0.3300,-0.0052,-0.0330,
32.551447,0.6661,-0.1491,-0.5148,0.3300,-0.0052,-0.0330,
32.553110,-0.0147,-0.1283,-0.3177,0.3300,-0.0052,-0.0330,
32.579263,-0.0147,-0.1283,-0.3177,0.2181,-0.0081,0.0790,
32.616553,-0.0147,-0.1283,-0.3177,0.2181,-0.0081,0.0790,
32.618166,0.3331,-0.1803,-0.0896,0.2181,-0.0081,0.0790,
32.644682,0.3331,-0.1803,-0.0896,0.2486,-0.0967,0.0764,
32.681583,0.3331,-0.1803,-0.0896,0.2486,-0.0967,0.0764,
32.683245,0.3898,-0.1019,-0.2324,0.2486,-0.0967,0.0764,
32.710024,0.3898,-0.1019,-0.2324,0.1498,-0.0646,0.0637,
32.747313,0.3898,-0.1019,-0.2324,0.1498,-0.0646,0.0637,
32.748735,0.4496,-0.1253,-0.0265,0.1498,-0.0646,0.0637,
32.775551,0.4496,-0.1253,-0.0265,0.1393,-0.0854,0.0142,
32.813798,0.4496,-0.1253,-0.0265,0.1393,-0.0854,0.0142,
32.815420,0.3352,-0.0535,-0.0733,0.1393,-0.0854,0.0142,
32.841180,0.3352,-0.0535,-0.0733,0.0634,-0.0886,-0.0260,
32.881227,0.3352,-0.0535,-0.0733,0.0634,-0.0886,-0.0260,
32.884612,0.4459,-0.0573,-0.0578,0.0634,-0.0886,-0.0260,
32.908201,0.4459,-0.0573,-0.0578,0.0020,-0.1341,-0.1132,
32.945943,0.4459,-0.0573,-0.0578,0.0020,-0.1341,-0.1132,
32.948014,0.5240,-0.1226,-0.0618,0.0020,-0.1341,-0.1132,
32.971563,0.5240,-0.1226,-0.0618,-0.0478,-0.1646,-0.1600,
33.009228,0.5240,-0.1226,-0.0618,-0.0478,-0.1646,-0.1600,
33.010769,0.5969,0.1282,-0.1066,-0.0478,-0.1646,-0.1600,
33.036639,0.5969,0.1282,-0.1066,-0.0808,-0.2150,-0.1315,
33.074888,0.5969,0.1282,-0.1066,-0.0808,-0.2150,-0.1315,
33.075951,0.6734,0.2913,-0.2593,-0.0808,-0.2150,-0.1315,
33.102864,0.6734,0.2913,-0.2593,-0.0779,-0.2706,-0.1008,
33.139912,0.6734,0.2913,-0.2593,-0.0779,-0.2706,-0.1008,
33.141355,1.0406,0.4854,-0.2406,-0.0779,-0.2706,-0.1008,
33.168500,1.0406,0.4854,-0.2406,-0.1362,-0.2239,-0.1023,
33.206001,1.0406,0.4854,-0.2406,-0.1362,-0.2239,-0.1023,
33.207545,1.3388,0.3925,0.0614,-0.1362,-0.2239,-0.1023,
33.234810,1.3388,0.3925,0.0614,-0.1950,-0.0919,-0.1846,
33.271413,1.3388,0.3925,0.0614,-0.1950,-0.0919,-0.1846,
33.273637,0.9829,0.4082,-0.0471,-0.1950,-0.0919,-0.1846,
33.300467,0.9829,0.4082,-0.0471,-0.2491,0.1205,-0.1822,
33.336948,0.9829,0.4082,-0.0471,-0.2491,0.1205,-0.1822,
33.339399,0.1638,0.2833,-0.1453,-0.2491,0.1205,-0.1822,
33.365617,0.1638,0.2833,-0.1453,-0.3589,0.3118,-0.1423,
33.403307,0.1638,0.2833,-0.1453,-0.3589,0.3118,-0.1423,
33.406001,-0.5053,-0.0349,-0.1108,-0.3589,0.3118,-0.1423,
33.431483,-0.5053,-0.0349,-0.1108,-0.4734,0.4887,-0.0959,
33.467298,-0.5053,-0.0349,-0.1108,-0.4734,0.4887,-0.0959,
33.469567,-0.8873,-0.7821,-0.1443,-0.4734,0.4887,-0.0959,
33.496263,-0.8873,-0.7821,-0.1443,-0.5037,0.6380,-0.0486,
33.532977,-0.8873,-0.7821,-0.1443,-0.5037,0.6380,-0.0486,
33.534122,-1.2259,-0.1598,-0.1819,-0.5037,0.6380,-0.0486,
33.562222,-1.2259,-0.1598,-0.1819,-0.5043,0.6132,-0.0441,
33.599129,-1.2259,-0.1598,-0.1819,-0.5043,0.6132,-0.0441,
33.600880,-1.2489,0.7271,0.0180,-0.5043,0.6132,-0.0441,
33.626730,-1.2489,0.7271,0.0180,-0.4084,0.2111,0.0046,
33.664338,-1.2489,0.7271,0.0180,-0.4084,0.2111,0.0046,
33.666278,-0.7323,-0.7291,0.0714,-0.4084,0.2111,0.0046,
33.693720,-0.7323,-0.7291,0.0714,-0.3616,0.1348,-0.0625,
33.729938,-0.7323,-0.7291,0.0714,-0.3616,0.1348,-0.0625,
33.730517,0.0872,-1.0174,0.4558,-0.3616,0.1348,-0.0625,
33.757175,0.0872,-1.0174,0.4558,-0.1791,0.1943,-0.1194,
33.795075,0.0872,-1.0174,0.4558,-0.1791,0.1943,-0.1194,
33.795676,0.3921,-0.8470,0.7281,-0.1791,0.1943,-0.1194,
33.823424,0.3921,-0.8470,0.7281,0.1290,0.2857,-0.0904,
33.860762,0.3921,-0.8470,0.7281,0.1290,0.2857,-0.0904,
33.861263,-0.0578,-0.9400,0.8021,0.1290,0.2857,-0.0904,
33.888717,-0.0578,-0.9400,0.8021,0.0950,0.2859,0.0307,
33.926011,-0.0578,-0.9400,0.8021,0.0950,0.2859,0.0307,
33.926586,-0.0068,-0.5914,0.8861,0.0950,0.2859,0.0307,
33.954150,-0.0068,-0.5914,0.8861,0.0738,0.2550,0.2662,
33.990997,-0.0068,-0.5914,0.8861,0.0738,0.2550,0.2662,
33.991673,0.3635,-0.6339,1.1529,0.0738,0.2550,0.2662,
34.019076,0.3635,-0.6339,1.1529,0.0284,0.3543,0.4907,
34.056579,0.3635,-0.6339,1.1529,0.0284,0.3543,0.4907,
34.057376,-0.0222,-0.1207,0.8610,0.0284,0.3543,0.4907,
34.084655,-0.0222,-0.1207,0.8610,-0.0895,0.2857,0.2295,
34.122493,-0.0222,-0.1207,0.8610,-0.0895,0.2857,0.2295,
34.123184,-1.5474,0.0672,-0.3654,-0.0895,0.2857,0.2295,
34.150238,-1.5474,0.0672,-0.3654,-0.1811,-0.2454,-0.1545,
34.187212,-1.5474,0.0672,-0.3654,-0.1811,-0.2454,-0.1545,
34.188015,0.7129,1.0357,-3.0054,-0.1811,-0.2454,-0.1545,
34.216449,0.7129,1.0357,-3.0054,0.1741,0.5359,0.0677,
34.253831,0.7129,1.0357,-3.0054,0.1741,0.5359,0.0677,
34.255028,0.2066,-0.2917,-1.0149,0.1741,0.5359,0.0677,
34.280900,0.2066,-0.2917,-1.0149,0.2842,0.7292,0.0029,
34.319460,0.2066,-0.2917,-1.0149,0.2842,0.7292,0.0029,
34.320467,-1.1496,-0.1815,-0.2830,0.2842,0.7292,0.0029,
34.346597,-1.1496,-0.1815,-0.2830,0.4968,-0.3384,-0.0544,
34.384276,-1.1496,-0.1815,-0.2830,0.4968,-0.3384,-0.0544,
34.385362,0.2510,-0.2265,-0.5452,0.4968,-0.3384,-0.0544,
34.412139,0.2510,-0.2265,-0.5452,0.4418,-0.1701,0.0130,
34.449741,0.2510,-0.2265,-0.5452,0.4418,-0.1701,0.0130,
34.450910,1.1693,-0.2045,-0.4291,0.4418,-0.1701,0.0130,
34.477392,1.1693,-0.2045,-0.4291,0.4230,0.0785,-0.0249,
34.514505,1.1693,-0.2045,-0.4291,0.4230,0.0785,-0.0249,
34.515772,0.7613,-0.2138,-0.0300,0.4230,0.0785,-0.0249,
34.543010,0.7613,-0.2138,-0.0300,0.4117,0.1429,-0.0559,
34.580314,0.7613,-0.2138,-0.0300,0.4117,0.1429,-0.0559,
34.580895,0.3566,-0.0725,0.0568,0.4117,0.1429,-0.0559,
34.608203,0.3566,-0.0725,0.0568,0.2347,-0.0426,-0.0577,
34.645927,0.3566,-0.0725,0.0568,0.2347,-0.0426,-0.0577,
34.647131,0.8723,-0.1713,0.0799,0.2347,-0.0426,-0.0577,
34.674743,0.8723,-0.1713,0.0799,0.1292,-0.1225,-0.0518,
34.711511,0.8723,-0.1713,0.0799,0.1292,-0.1225,-0.0518,
34.713383,1.2833,0.0045,-0.1325,0.1292,-0.1225,-0.0518,
34.740558,1.2833,0.0045,-0.1325,-0.0072,-0.0466,-0.1518,
34.778176,1.2833,0.0045,-0.1325,-0.0072,-0.0466,-0.1518,
34.779571,1.4317,0.0736,-0.1206,-0.0072,-0.0466,-0.1518,
34.805139,1.4317,0.0736,-0.1206,-0.0623,-0.0418,-0.2851,
34.842165,1.4317,0.0736,-0.1206,-0.0623,-0.0418,-0.2851,
34.843573,0.9727,0.6225,-0.6399,-0.0623,-0.0418,-0.2851,
34.870763,0.9727,0.6225,-0.6399,-0.0383,-0.0614,-0.2388,
34.908135,0.9727,0.6225,-0.6399,-0.0383,-0.0614,-0.2388,
34.909747,0.8697,1.1050,-0.4475,-0.0383,-0.0614,-0.2388,
34.936705,0.8697,1.1050,-0.4475,-0.1188,-0.0258,-0.1191,
34.973402,0.8697,1.1050,-0.4475,-0.1188,-0.0258,-0.1191,
34.974679,0.5367,0.9145,-0.2966,-0.1188,-0.0258,-0.1191,
35.001764,0.5367,0.9145,-0.2966,-0.2599,-0.0834,-0.1358,
35.040157,0.5367,0.9145,-0.2966,-0.2599,-0.0834,-0.1358,
35.041321,0.0191,-0.1237,-0.3916,-0.2599,-0.0834,-0.1358,
35.068024,0.0191,-0.1237,-0.3916,-0.4381,0.1634,-0.1524,
35.104627,0.0191,-0.1237,-0.3916,-0.4381,0.1634,-0.1524,
35.106059,-0.6243,-1.1944,-0.4383,-0.4381,0.1634,-0.1524,
35.132425,-0.6243,-1.1944,-0.4383,-0.3403,0.9320,-0.0586,
35.169648,-0.6243,-1.1944,-0.4383,-0.3403,0.9320,-0.0586,
35.171187,-0.8428,-0.8048,-0.7919,-0.3403,0.9320,-0.0586,
35.198453,-0.8428,-0.8048,-0.7919,-0.5018,1.1625,0.0357,
35.236857,-0.8428,-0.8048,-0.7919,-0.5018,1.1625,0.0357,
35.239820,-2.9812,0.8967,1.2334,-0.5018,1.1625,0.0357,
35.263873,-2.9812,0.8967,1.2334,-0.4047,0.5344,0.0376,
35.301865,-2.9812,0.8967,1.2334,-0.4047,0.5344,0.0376,
35.303821,-2.1055,0.1163,-1.4649,-0.4047,0.5344,0.0376,
35.329898,-2.1055,0.1163,-1.4649,-0.6585,-0.1063,-0.2732,
35.366483,-2.1055,0.1163,-1.4649,-0.6585,-0.1063,-0.2732,
35.368437,-1.1632,0.4702,-0.6482,-0.6585,-0.1063,-0.2732,
35.395811,-1.1632,0.4702,-0.6482,-0.4640,-0.2220,-0.1266,
35.432066,-1.1632,0.4702,-0.6482,-0.4640,-0.2220,-0.1266,
35.434426,0.6790,-0.3724,-0.4690,-0.4640,-0.2220,-0.1266,
35.460873,0.6790,-0.3724,-0.4690,-0.6691,0.1524,-0.5710,
35.498188,0.6790,-0.3724,-0.4690,-0.6691,0.1524,-0.5710,
35.498809,-0.0215,-0.2304,-0.2260,-0.6691,0.1524,-0.5710,
35.526361,-0.0215,-0.2304,-0.2260,-0.3224,0.2877,-0.5568,
35.562414,-0.0215,-0.2304,-0.2260,-0.3224,0.2877,-0.5568,
35.564059,-1.2066,-1.0239,-0.3258,-0.3224,0.2877,-0.5568,
35.590543,-1.2066,-1.0239,-0.3258,-0.4936,0.0399,-0.2961,
35.628750,-1.2066,-1.0239,-0.3258,-0.4936,0.0399,-0.2961,
35.629426,1.6356,-0.2784,0.3666,-0.4936,0.0399,-0.2961,
35.656679,1.6356,-0.2784,0.3666,-0.5559,0.4766,-0.5177,
35.695053,1.6356,-0.2784,0.3666,-0.5559,0.4766,-0.5177,
35.697323,0.3916,1.0597,0.4015,-0.5559,0.4766,-0.5177,
35.721539,0.3916,1.0597,0.4015,-0.5087,0.8431,-0.3273,
35.759319,0.3916,1.0597,0.4015,-0.5087,0.8431,-0.3273,
35.759974,0.9570,0.4162,-0.4565,-0.5087,0.8431,-0.3273,
35.788615,0.9570,0.4162,-0.4565,-0.7268,0.9369,-0.3067,
35.825141,0.9570,0.4162,-0.4565,-0.7268,0.9369,-0.3067,
35.825913,-0.2716,-0.0157,0.3493,-0.7268,0.9369,-0.3067,
35.854428,-0.2716,-0.0157,0.3493,-0.5886,0.6510,-0.3106,
35.892681,-0.2716,-0.0157,0.3493,-0.5886,0.6510,-0.3106,
35.895659,-0.4568,-0.2675,-0.1212,-0.5886,0.6510,-0.3106,
35.918656,-0.4568,-0.2675,-0.1212,-0.7677,0.3096,-0.1051,
35.955454,-0.4568,-0.2675,-0.1212,-0.7677,0.3096,-0.1051,
35.956922,0.4469,-1.2215,0.3653,-0.7677,0.3096,-0.1051,
35.983811,0.4469,-1.2215,0.3653,-0.3366,0.4467,0.0418,
36.020297,0.4469,-1.2215,0.3653,-0.3366,0.4467,0.0418,
36.021821,1.3126,-1.2234,-0.2511,-0.3366,0.4467,0.0418,
36.049197,1.3126,-1.2234,-0.2511,-0.0692,0.8296,0.0840,
36.086354,1.3126,-1.2234,-0.2511,-0.0692,0.8296,0.0840,
36.087780,-0.2696,-0.5550,0.1465,-0.0692,0.8296,0.0840,
36.115061,-0.2696,-0.5550,0.1465,-0.0046,0.7463,0.2135,
36.152151,-0.2696,-0.5550,0.1465,-0.0046,0.7463,0.2135,
36.153771,-1.0258,-1.0060,0.4624,-0.0046,0.7463,0.2135,
36.180133,-1.0258,-1.0060,0.4624,0.0820,0.3590,0.4771,
36.217857,-1.0258,-1.0060,0.4624,0.0820,0.3590,0.4771,
36.219391,-0.0677,-1.2884,0.3694,0.0820,0.3590,0.4771,
36.246101,-0.0677,-1.2884,0.3694,0.2066,0.2572,0.6538,
36.284122,-0.0677,-1.2884,0.3694,0.2066,0.2572,0.6538,
36.286713,2.0285,-1.7821,0.7099,0.2066,0.2572,0.6538,
36.312302,2.0285,-1.7821,0.7099,0.5979,0.6454,0.6263,
36.348156,2.0285,-1.7821,0.7099,0.5979,0.6454,0.6263,
36.350004,1.7063,-0.8251,1.0344,0.5979,0.6454,0.6263,
36.377803,1.7063,-0.8251,1.0344,0.8457,0.6620,0.6744,
36.414038,1.7063,-0.8251,1.0344,0.8457,0.6620,0.6744,
36.415651,1.1278,-0.6477,1.1287,0.8457,0.6620,0.6744,
36.441873,1.1278,-0.6477,1.1287,0.8195,0.4588,0.5220,
36.479350,1.1278,-0.6477,1.1287,0.8195,0.4588,0.5220,
36.481236,-2.2026,3.3892,-0.2956,0.8195,0.4588,0.5220,
36.510304,-2.2026,3.3892,-0.2956,0.4818,-0.2385,-0.2172,
36.545917,-2.2026,3.3892,-0.2956,0.4818,-0.2385,-0.2172,
36.546500,-1.3271,3.0049,-0.9670,0.4818,-0.2385,-0.2172,
36.573793,-1.3271,3.0049,-0.9670,0.7054,0.1319,0.7309,
36.610801,-1.3271,3.0049,-0.9670,0.7054,0.1319,0.7309,
36.612167,2.3894,-1.9306,-0.1780,0.7054,0.1319,0.7309,
36.638101,2.3894,-1.9306,-0.1780,0.5116,0.6200,0.0153,
36.676669,2.3894,-1.9306,-0.1780,0.5116,0.6200,0.0153,
36.677215,-0.3878,0.2862,-0.2664,0.5116,0.6200,0.0153,
36.704286,-0.3878,0.2862,-0.2664,0.5939,0.0092,-0.1923,
36.741805,-0.3878,0.2862,-0.2664,0.5939,0.0092,-0.1923,
36.743625,-1.5243,0.6128,-0.7395,0.5939,0.0092,-0.1923,
36.769937,-1.5243,0.6128,-0.7395,0.0617,-0.0057,0.0089,
36.809619,-1.5243,0.6128,-0.7395,0.0617,-0.0057,0.0089,
36.811266,-0.7455,-0.4791,-0.3562,0.0617,-0.0057,0.0089,
36.835075,-0.7455,-0.4791,-0.3562,0.2529,-0.2520,0.0973,
36.872687,-0.7455,-0.4791,-0.3562,0.2529,-0.2520,0.0973,
36.874406,0.7009,0.0827,-1.0605,0.2529,-0.2520,0.0973,
36.900934,0.7009,0.0827,-1.0605,0.2812,0.1767,0.0221,
36.938070,0.7009,0.0827,-1.0605,0.2812,0.1767,0.0221,
36.939093,0.3432,0.2614,-0.9788,0.2812,0.1767,0.0221,
36.966757,0.3432,0.2614,-0.9788,0.2500,0.3551,0.0360,
37.003404,0.3432,0.2614,-0.9788,0.2500,0.3551,0.0360,
37.004437,-0.1991,0.2605,-0.5103,0.2500,0.3551,0.0360,
37.032145,-0.1991,0.2605,-0.5103,0.2520,0.2870,0.1148,
37.068429,-0.1991,0.2605,-0.5103,0.2520,0.2870,0.1148,
37.070179,0.0188,-0.2519,-0.3097,0.2520,0.2870,0.1148,
37.097132,0.0188,-0.2519,-0.3097,0.3749,0.2256,0.1303,
37.134415,0.0188,-0.2519,-0.3097,0.3749,0.2256,0.1303,
37.136073,0.2951,-0.1481,-0.3675,0.3749,0.2256,0.1303,
37.162401,0.2951,-0.1481,-0.3675,0.3180,0.1008,0.0696,
37.199713,0.2951,-0.1481,-0.3675,0.3180,0.1008,0.0696,
37.201784,0.4022,-0.1085,-0.0813,0.3180,0.1008,0.0696,
37.229003,0.4022,-0.1085,-0.0813,0.1516,0.0476,0.0936,
37.265027,0.4022,-0.1085,-0.0813,0.1516,0.0476,0.0936,
37.267294,0.4077,-0.0846,0.3410,0.1516,0.0476,0.0936,
37.294429,0.4077,-0.0846,0.3410,0.1268,-0.0550,0.0816,
37.331177,0.4077,-0.0846,0.3410,0.1268,-0.0550,0.0816,
37.333433,0.3184,0.1054,0.2729,0.1268,-0.0550,0.0816,
37.359636,0.3184,0.1054,0.2729,-0.0145,-0.3067,0.0666,
37.396734,0.3184,0.1054,0.2729,-0.0145,-0.3067,0.0666,
37.398545,0.8854,0.1485,0.0648,-0.0145,-0.3067,0.0666,
37.424478,0.8854,0.1485,0.0648,-0.0924,-0.3804,-0.0625,
37.462127,0.8854,0.1485,0.0648,-0.0924,-0.3804,-0.0625,
37.464287,0.7928,0.3906,-0.1420,-0.0924,-0.3804,-0.0625,
37.490571,0.7928,0.3906,-0.1420,-0.1417,-0.4259,-0.1136,
37.526504,0.7928,0.3906,-0.1420,-0.1417,-0.4259,-0.1136,
37.527740,0.9212,0.6372,-0.1778,-0.1417,-0.4259,-0.1136,
37.556056,0.9212,0.6372,-0.1778,-0.1103,-0.3224,-0.0008,
37.593279,0.9212,0.6372,-0.1778,-0.1103,-0.3224,-0.0008,
37.595066,1.2141,1.0065,0.0406,-0.1103,-0.3224,-0.0008,
37.622608,1.2141,1.0065,0.0406,-0.1707,-0.2097,0.0208,
37.658365,1.2141,1.0065,0.0406,-0.1707,-0.2097,0.0208,
37.660048,1.6181,0.6465,0.1610,-0.1707,-0.2097,0.0208,
37.688329,1.6181,0.6465,0.1610,-0.3199,0.0426,-0.0657,
37.723782,1.6181,0.6465,0.1610,-0.3199,0.0426,-0.0657,
37.725270,0.0660,0.7763,-0.0768,-0.3199,0.0426,-0.0657,
37.752408,0.0660,0.7763,-0.0768,-0.4818,0.2816,-0.0502,
37.791429,0.0660,0.7763,-0.0768,-0.4818,0.2816,-0.0502,
37.793299,-1.4230,-0.1230,-0.4681,-0.4818,0.2816,-0.0502,
37.817429,-1.4230,-0.1230,-0.4681,-0.5637,0.3236,0.1022,
37.854648,-1.4230,-0.1230,-0.4681,-0.5637,0.3236,0.1022,
37.856913,-1.7488,-1.5195,-0.2582,-0.5637,0.3236,0.1022,
37.883898,-1.7488,-1.5195,-0.2582,-0.5154,0.3600,0.2337,
37.920714,-1.7488,-1.5195,-0.2582,-0.5154,0.3600,0.2337,
37.922073,-0.8553,-0.4954,0.2203,-0.5154,0.3600,0.2337,
37.948402,-0.8553,-0.4954,0.2203,-0.2723,0.3022,0.1347,
37.985751,-0.8553,-0.4954,0.2203,-0.2723,0.3022,0.1347,
37.987241,-0.6017,-0.6426,-0.2334,-0.2723,0.3022,0.1347,
38.014674,-0.6017,-0.6426,-0.2334,-0.2013,0.3803,0.0883,
38.053875,-0.6017,-0.6426,-0.2334,-0.2013,0.3803,0.0883,
38.054458,-0.3985,-0.4994,0.3341,-0.2013,0.3803,0.0883,
38.079982,-0.3985,-0.4994,0.3341,0.0067,0.4073,-0.0052,
38.117117,-0.3985,-0.4994,0.3341,0.0067,0.4073,-0.0052,
38.118128,-0.6926,-0.4151,0.6699,0.0067,0.4073,-0.0052,
38.144376,-0.6926,-0.4151,0.6699,0.0809,0.3102,-0.1084,
38.182163,-0.6926,-0.4151,0.6699,0.0809,0.3102,-0.1084,
38.183506,-0.1937,-0.5540,0.7944,0.0809,0.3102,-0.1084,
38.210110,-0.1937,-0.5540,0.7944,0.1698,0.3514,-0.0205,
38.249151,-0.1937,-0.5540,0.7944,0.1698,0.3514,-0.0205,
38.249848,0.3157,-0.4887,0.8669,0.1698,0.3514,-0.0205,
38.275604,0.3157,-0.4887,0.8669,0.2428,0.4100,0.0845,
38.313090,0.3157,-0.4887,0.8669,0.2428,0.4100,0.0845,
38.313733,-0.3436,-0.7366,1.2182,0.2428,0.4100,0.0845,
38.340906,-0.3436,-0.7366,1.2182,0.2268,0.2590,0.2851,
38.378243,-0.3436,-0.7366,1.2182,0.2268,0.2590,0.2851,
38.378885,-0.8080,-2.1373,1.4399,0.2268,0.2590,0.2851,
38.406545,-0.8080,-2.1373,1.4399,0.2017,0.0635,0.4687,
38.444816,-0.8080,-2.1373,1.4399,0.2017,0.0635,0.4687,
38.445385,-1.8223,-1.8260,1.0774,0.2017,0.0635,0.4687,
38.472585,-1.8223,-1.8260,1.0774,0.1342,-0.4611,-0.0997,
38.509977,-1.8223,-1.8260,1.0774,0.1342,-0.4611,-0.0997,
38.510660,-1.0273,5.8175,-2.7209,0.1342,-0.4611,-0.0997,
38.537747,-1.0273,5.8175,-2.7209,0.7239,-0.6892,0.1133,
38.574518,-1.0273,5.8175,-2.7209,0.7239,-0.6892,0.1133,
38.575207,0.8633,0.6420,-2.9424,0.7239,-0.6892,0.1133,
38.602919,0.8633,0.6420,-2.9424,0.0557,0.5295,0.1454,
38.641341,0.8633,0.6420,-2.9424,0.0557,0.5295,0.1454,
38.642328,-0.2634,-0.7800,0.7844,0.0557,0.5295,0.1454,
38.668653,-0.2634,-0.7800,0.7844,0.7830,-0.3899,-0.0701,
38.707433,-0.2634,-0.7800,0.7844,0.7830,-0.3899,-0.0701,
38.708131,0.0380,-0.7499,-0.8652,0.7830,-0.3899,-0.0701,
38.734705,0.0380,-0.7499,-0.8652,0.3560,-0.2034,-0.0796,
38.771627,0.0380,-0.7499,-0.8652,0.3560,-0.2034,-0.0796,
38.773334,0.7437,-0.1784,-0.4853,0.3560,-0.2034,-0.0796,
38.799228,0.7437,-0.1784,-0.4853,0.2585,0.1733,0.0096,
38.838198,0.7437,-0.1784,-0.4853,0.2585,0.1733,0.0096,
38.839848,0.8018,-0.2184,-0.4032,0.2585,0.1733,0.0096,
38.865935,0.8018,-0.2184,-0.4032,0.3519,0.2013,-0.0736,
38.903001,0.8018,-0.2184,-0.4032,0.3519,0.2013,-0.0736,
38.904580,-0.1482,0.0532,-0.2190,0.3519,0.2013,-0.0736,
38.931598,-0.1482,0.0532,-0.2190,0.2088,0.0093,0.0417,
38.968442,-0.1482,0.0532,-0.2190,0.2088,0.0093,0.0417,
38.970366,0.1392,-0.0447,0.1108,0.2088,0.0093,0.0417,
38.996884,0.1392,-0.0447,0.1108,0.1793,-0.2604,0.0556,
39.033358,0.1392,-0.0447,0.1108,0.1793,-0.2604,0.0556,
39.035157,0.6403,0.0279,-0.0790,0.1793,-0.2604,0.0556,
39.060857,0.6403,0.0279,-0.0790,0.0374,-0.3149,0.0257,
39.099347,0.6403,0.0279,-0.0790,0.0374,-0.3149,0.0257,
39.101183,1.0321,-0.0079,0.1034,0.0374,-0.3149,0.0257,
39.128577,1.0321,-0.0079,0.1034,-0.0137,-0.2567,-0.0333,
39.164059,1.0321,-0.0079,0.1034,-0.0137,-0.2567,-0.0333,
39.165178,1.0082,0.0371,0.0572,-0.0137,-0.2567,-0.0333,
39.191909,1.0082,0.0371,0.0572,-0.1167,-0.2402,-0.1316,
39.229780,1.0082,0.0371,0.0572,-0.1167,-0.2402,-0.1316,
39.230417,1.0650,0.0554,0.0436,-0.1167,-0.2402,-0.1316,
39.258394,1.0650,0.0554,0.0436,-0.1495,-0.2619,-0.1892,
39.296529,1.0650,0.0554,0.0436,-0.1495,-0.2619,-0.1892,
39.297134,1.0548,0.3766,-0.4278,-0.1495,-0.2619,-0.1892,
39.323482,1.0548,0.3766,-0.4278,-0.1723,-0.2398,-0.2083,
39.360296,1.0548,0.3766,-0.4278,-0.1723,-0.2398,-0.2083,
39.361545,0.9808,0.9232,-0.3034,-0.1723,-0.2398,-0.2083,
39.388556,0.9808,0.9232,-0.3034,-0.2204,-0.1237,-0.1173,
39.426474,0.9808,0.9232,-0.3034,-0.2204,-0.1237,-0.1173,
39.427009,0.9990,1.0362,-0.0242,-0.2204,-0.1237,-0.1173,
39.454247,0.9990,1.0362,-0.0242,-0.3797,-0.1003,-0.0212,
39.491570,0.9990,1.0362,-0.0242,-0.3797,-0.1003,-0.0212,
39.493200,0.8881,0.4637,-0.3877,-0.3797,-0.1003,-0.0212,
39.519796,0.8881,0.4637,-0.3877,-0.5921,-0.0090,-0.2078,
39.557146,0.8881,0.4637,-0.3877,-0.5921,-0.0090,-0.2078,
39.558755,-0.7151,0.3555,-0.2101,-0.5921,-0.0090,-0.2078,
39.585069,-0.7151,0.3555,-0.2101,-0.7795,0.2624,-0.0757,
39.624224,-0.7151,0.3555,-0.2101,-0.7795,0.2624,-0.0757,
39.625939,-0.8177,-0.5997,-0.2292,-0.7795,0.2624,-0.0757,
39.650948,-0.8177,-0.5997,-0.2292,-0.8022,0.7398,0.0063,
39.687628,-0.8177,-0.5997,-0.2292,-0.8022,0.7398,0.0063,
39.689333,-1.1060,-0.1217,-0.2464,-0.8022,0.7398,0.0063,
39.717393,-1.1060,-0.1217,-0.2464,-0.6738,0.8044,-0.0350,
39.754918,-1.1060,-0.1217,-0.2464,-0.6738,0.8044,-0.0350,
39.756808,-0.7899,0.1122,-0.6128,-0.6738,0.8044,-0.0350,
39.782037,-0.7899,0.1122,-0.6128,-0.6910,0.6837,-0.0061,
39.818989,-0.7899,0.1122,-0.6128,-0.6910,0.6837,-0.0061,
39.822016,-0.5620,-0.8614,-0.0600,-0.6910,0.6837,-0.0061,
39.847712,-0.5620,-0.8614,-0.0600,-0.4122,0.6168,-0.0035,
39.885066,-0.5620,-0.8614,-0.0600,-0.4122,0.6168,-0.0035,
39.886971,0.1771,-1.4890,-0.2567,-0.4122,0.6168,-0.0035,
39.913829,0.1771,-1.4890,-0.2567,-0.2439,0.7929,-0.0444,
39.949938,0.1771,-1.4890,-0.2567,-0.2439,0.7929,-0.0444,
39.951374,0.2522,-1.5922,-0.0983,-0.2439,0.7929,-0.0444,
39.977888,0.2522,-1.5922,-0.0983,0.0644,0.9500,-0.0009,
40.016520,0.2522,-1.5922,-0.0983,0.0644,0.9500,-0.0009,
40.018496,-0.3189,-0.6881,0.0039,0.0644,0.9500,-0.0009,
40.043075,-0.3189,-0.6881,0.0039,0.2787,0.8955,0.0797,
40.080716,-0.3189,-0.6881,0.0039,0.2787,0.8955,0.0797,
40.081732,-0.7567,0.5855,0.0667,0.2787,0.8955,0.0797,
40.109100,-0.7567,0.5855,0.0667,0.1826,0.6631,0.1290,
40.146121,-0.7567,0.5855,0.0667,0.1826,0.6631,0.1290,
40.147890,-1.0872,1.1505,0.6549,0.1826,0.6631,0.1290,
40.176263,-1.0872,1.1505,0.6549,-0.1477,0.3111,0.0699,
40.212035,-1.0872,1.1505,0.6549,-0.1477,0.3111,0.0699,
40.214139,-0.5384,-0.4277,0.6642,-0.1477,0.3111,0.0699,
40.240413,-0.5384,-0.4277,0.6642,-0.0437,0.2885,0.0799,
40.278900,-0.5384,-0.4277,0.6642,-0.0437,0.2885,0.0799,
40.280256,-0.1268,-0.5681,0.9018,-0.0437,0.2885,0.0799,
40.307103,-0.1268,-0.5681,0.9018,0.0452,0.2320,0.0661,
40.343144,-0.1268,-0.5681,0.9018,0.0452,0.2320,0.0661,
40.344581,-0.1117,-0.5905,1.4328,0.0452,0.2320,0.0661,
40.370946,-0.1117,-0.5905,1.4328,0.2456,0.0907,0.1057,
40.408096,-0.1117,-0.5905,1.4328,0.2456,0.0907,0.1057,
40.409854,0.1879,-1.4170,1.3792,0.2456,0.0907,0.1057,
40.436203,0.1879,-1.4170,1.3792,0.2911,0.1003,0.1776,
40.474125,0.1879,-1.4170,1.3792,0.2911,0.1003,0.1776,
40.475625,0.4361,-1.8934,1.5975,0.2911,0.1003,0.1776,
40.502504,0.4361,-1.8934,1.5975,0.1840,-0.1857,0.3309,
40.539178,0.4361,-1.8934,1.5975,0.1840,-0.1857,0.3309,
40.540242,-0.4666,2.8138,0.3927,0.1840,-0.1857,0.3309,
40.567146,-0.4666,2.8138,0.3927,0.4838,-0.7940,-0.7558,
40.604600,-0.4666,2.8138,0.3927,0.4838,-0.7940,-0.7558,
40.606424,0.5522,2.2744,-5.3064,0.4838,-0.7940,-0.7558,
40.633120,0.5522,2.2744,-5.3064,-0.0076,0.2567,0.2775,
40.670122,0.5522,2.2744,-5.3064,-0.0076,0.2567,0.2775,
40.671250,-0.8299,-1.3845,-0.4558,-0.0076,0.2567,0.2775,
40.698307,-0.8299,-1.3845,-0.4558,0.1709,0.6602,0.6672,
40.735844,-0.8299,-1.3845,-0.4558,0.1709,0.6602,0.6672,
40.737935,-0.1086,-0.0629,0.1048,0.1709,0.6602,0.6672,
40.764340,-0.1086,-0.0629,0.1048,0.6599,-0.6840,0.2078,
40.801101,-0.1086,-0.0629,0.1048,0.6599,-0.6840,0.2078,
40.802810,-0.1140,-0.2558,-1.2571,0.6599,-0.6840,0.2078,
40.829120,-0.1140,-0.2558,-1.2571,0.2031,-0.2133,0.1636,
40.867509,-0.1140,-0.2558,-1.2571,0.2031,-0.2133,0.1636,
40.869224,-0.1313,-0.0374,-0.4162,0.2031,-0.2133,0.1636,
40.895830,-0.1313,-0.0374,-0.4162,0.3367,-0.2498,0.2801,
40.932399,-0.1313,-0.0374,-0.4162,0.3367,-0.2498,0.2801,
40.934127,0.2252,-0.2225,-0.2486,0.3367,-0.2498,0.2801,
40.961338,0.2252,-0.2225,-0.2486,0.3160,-0.3822,0.1912,
40.998980,0.2252,-0.2225,-0.2486,0.3160,-0.3822,0.1912,
41.000561,0.1988,0.0073,-0.5102,0.3160,-0.3822,0.1912,
41.027491,0.1988,0.0073,-0.5102,0.1629,-0.4895,0.1303,
41.063178,0.1988,0.0073,-0.5102,0.1629,-0.4895,0.1303,
41.064717,0.4788,-0.2312,-0.2129,0.1629,-0.4895,0.1303,
41.092402,0.4788,-0.2312,-0.2129,0.1408,-0.5522,0.0761,
41.130300,0.4788,-0.2312,-0.2129,0.1408,-0.5522,0.0761,
41.131916,0.8585,-0.3385,-0.2309,0.1408,-0.5522,0.0761,
41.157162,0.8585,-0.3385,-0.2309,0.0864,-0.4380,0.0023,
41.193980,0.8585,-0.3385,-0.2309,0.0864,-0.4380,0.0023,
41.195905,1.0068,-0.4448,-0.0875,0.0864,-0.4380,0.0023,
41.222208,1.0068,-0.4448,-0.0875,0.0640,-0.3783,-0.1269,
41.260273,1.0068,-0.4448,-0.0875,0.0640,-0.3783,-0.1269,
41.262148,0.8097,-0.0273,-0.0800,0.0640,-0.3783,-0.1269,
41.287991,0.8097,-0.0273,-0.0800,-0.0029,-0.3914,-0.1781,
41.325651,0.8097,-0.0273,-0.0800,-0.0029,-0.3914,-0.1781,
41.327175,0.6624,0.2687,-0.2823,-0.0029,-0.3914,-0.1781,
41.353375,0.6624,0.2687,-0.2823,-0.0648,-0.5426,-0.2300,
41.390835,0.6624,0.2687,-0.2823,-0.0648,-0.5426,-0.2300,
41.391805,0.7723,0.7345,-0.3030,-0.0648,-0.5426,-0.2300,
41.418857,0.7723,0.7345,-0.3030,-0.1254,-0.5177,-0.1387,
41.455977,0.7723,0.7345,-0.3030,-0.1254,-0.5177,-0.1387,
41.458443,1.3377,0.8633,0.0557,-0.1254,-0.5177,-0.1387,
41.484384,1.3377,0.8633,0.0557,-0.2390,-0.3535,-0.1025,
41.521708,1.3377,0.8633,0.0557,-0.2390,-0.3535,-0.1025,
41.523720,1.9104,0.6942,-0.0780,-0.2390,-0.3535,-0.1025,
41.550848,1.9104,0.6942,-0.0780,-0.4171,-0.0791,-0.2787,
41.586692,1.9104,0.6942,-0.0780,-0.4171,-0.0791,-0.2787,
41.587711,0.2435,0.5828,0.0289,-0.4171,-0.0791,-0.2787,
41.615711,0.2435,0.5828,0.0289,-0.5180,0.1556,-0.2854,
41.652244,0.2435,0.5828,0.0289,-0.5180,0.1556,-0.2854,
41.653700,-1.2056,0.1024,0.1375,-0.5180,0.1556,-0.2854,
41.681271,-1.2056,0.1024,0.1375,-0.6351,0.3161,-0.0420,
41.719526,-1.2056,0.1024,0.1375,-0.6351,0.3161,-0.0420,
41.720482,-1.4206,-0.5409,0.0170,-0.6351,0.3161,-0.0420,
41.745386,-1.4206,-0.5409,0.0170,-0.5629,0.3419,-0.0061,
41.784054,-1.4206,-0.5409,0.0170,-0.5629,0.3419,-0.0061,
41.785803,-1.8523,-0.5637,0.0485,-0.5629,0.3419,-0.0061,
41.811316,-1.8523,-0.5637,0.0485,-0.5064,0.1373,0.1133,
41.849788,-1.8523,-0.5637,0.0485,-0.5064,0.1373,0.1133,
41.851777,-0.9446,-0.1628,-0.3412,-0.5064,0.1373,0.1133,
41.877259,-0.9446,-0.1628,-0.3412,-0.4279,-0.0165,0.0069,
41.915358,-0.9446,-0.1628,-0.3412,-0.4279,-0.0165,0.0069,
41.917378,-0.6430,-0.6240,0.4845,-0.4279,-0.0165,0.0069,
41.944030,-0.6430,-0.6240,0.4845,-0.3566,-0.0331,0.1046,
41.980089,-0.6430,-0.6240,0.4845,-0.3566,-0.0331,0.1046,
41.981689,0.0648,-0.6470,0.9047,-0.3566,-0.0331,0.1046,
42.009047,0.0648,-0.6470,0.9047,-0.1590,0.0622,-0.0559,
42.045257,0.0648,-0.6470,0.9047,-0.1590,0.0622,-0.0559,
42.047131,-0.1579,-0.8063,1.1956,-0.1590,0.0622,-0.0559,
42.073140,-0.1579,-0.8063,1.1956,-0.0948,0.0481,0.0037,
42.113403,-0.1579,-0.8063,1.1956,-0.0948,0.0481,0.0037,
42.117120,0.6371,-1.1949,1.6044,-0.0948,0.0481,0.0037,
42.138233,0.6371,-1.1949,1.6044,0.1407,0.2819,0.1949,
42.176510,0.6371,-1.1949,1.6044,0.1407,0.2819,0.1949,
42.178155,0.7323,-1.6325,1.6930,0.1407,0.2819,0.1949,
42.203844,0.7323,-1.6325,1.6930,0.1628,0.2847,0.3215,
42.240665,0.7323,-1.6325,1.6930,0.1628,0.2847,0.3215,
42.241212,0.0069,-2.1579,1.5201,0.1628,0.2847,0.3215,
42.269255,0.0069,-2.1579,1.5201,0.1461,-0.0186,0.5267,
42.306865,0.0069,-2.1579,1.5201,0.1461,-0.0186,0.5267,
42.308313,-0.3258,-3.1179,0.9997,0.1461,-0.0186,0.5267,
42.334677,-0.3258,-3.1179,0.9997,-0.6057,-0.2347,-0.9869,
42.372640,-0.3258,-3.1179,0.9997,-0.6057,-0.2347,-0.9869,
42.374479,-5.3112,8.0882,-5.0248,-0.6057,-0.2347,-0.9869,
42.400775,-5.3112,8.0882,-5.0248,0.3618,-0.7237,0.0686,
42.438687,-5.3112,8.0882,-5.0248,0.3618,-0.7237,0.0686,
42.440263,-0.9058,-1.5863,-2.1384,0.3618,-0.7237,0.0686,
42.467254,-0.9058,-1.5863,-2.1384,0.0487,0.6045,0.6226,
42.503400,-0.9058,-1.5863,-2.1384,0.0487,0.6045,0.6226,
42.505208,-0.0544,0.0001,0.5737,0.0487,0.6045,0.6226,
42.531194,-0.0544,0.0001,0.5737,0.8433,-1.3505,-0.1556,
42.569018,-0.0544,0.0001,0.5737,0.8433,-1.3505,-0.1556,
42.570561,-0.3315,-0.6024,-1.7553,0.8433,-1.3505,-0.1556,
42.597923,-0.3315,-0.6024,-1.7553,0.2836,-0.1255,0.0785,
42.634429,-0.3315,-0.6024,-1.7553,0.2836,-0.1255,0.0785,
42.635457,0.7716,0.2600,-0.0398,0.2836,-0.1255,0.0785,
42.663368,0.7716,0.2600,-0.0398,0.4476,0.0134,0.1607,
42.700474,0.7716,0.2600,-0.0398,0.4476,0.0134,0.1607,
42.702188,0.7459,-0.0065,-0.3937,0.4476,0.0134,0.1607,
42.728992,0.7459,-0.0065,-0.3937,0.2650,0.2726,-0.0151,
42.767030,0.7459,-0.0065,-0.3937,0.2650,0.2726,-0.0151,
42.768559,-0.3508,0.0355,0.0907,0.2650,0.2726,-0.0151,
42.794642,-0.3508,0.0355,0.0907,0.2196,0.0035,0.0435,
42.832004,-0.3508,0.0355,0.0907,0.2196,0.0035,0.0435,
42.833796,0.3242,-0.0009,-0.0959,0.2196,0.0035,0.0435,
42.860557,0.3242,-0.0009,-0.0959,0.1674,-0.0467,-0.0128,
42.897707,0.3242,-0.0009,-0.0959,0.1674,-0.0467,-0.0128,
42.899485,0.4840,-0.0279,-0.1086,0.1674,-0.0467,-0.0128,
42.925126,0.4840,-0.0279,-0.1086,0.0596,0.0096,-0.0484,
42.963200,0.4840,-0.0279,-0.1086,0.0596,0.0096,-0.0484,
42.964863,0.5905,-0.2540,0.0319,0.0596,0.0096,-0.0484,
42.990798,0.5905,-0.2540,0.0319,-0.0131,-0.0956,-0.1124,
43.028089,0.5905,-0.2540,0.0319,-0.0131,-0.0956,-0.1124,
43.029923,0.5185,-0.1892,0.1195,-0.0131,-0.0956,-0.1124,
43.055693,0.5185,-0.1892,0.1195,-0.0214,-0.2335,-0.1199,
43.093273,0.5185,-0.1892,0.1195,-0.0214,-0.2335,-0.1199,
43.095192,0.5822,0.1563,-0.2221,-0.0214,-0.2335,-0.1199,
43.120955,0.5822,0.1563,-0.2221,-0.0272,-0.2297,-0.1498,
43.158202,0.5822,0.1563,-0.2221,-0.0272,-0.2297,-0.1498,
43.159705,0.5611,0.3113,-0.1313,-0.0272,-0.2297,-0.1498,
43.186815,0.5611,0.3113,-0.1313,0.0272,-0.0050,-0.0580,
43.224103,0.5611,0.3113,-0.1313,0.0272,-0.0050,-0.0580,
43.227043,-0.4215,0.7827,-0.1571,0.0272,-0.0050,-0.0580,
43.251999,-0.4215,0.7827,-0.1571,-0.1541,-0.2372,-0.0495,
43.290779,-0.4215,0.7827,-0.1571,-0.1541,-0.2372,-0.0495,
43.291519,-0.1692,0.4128,-0.1274,-0.1541,-0.2372,-0.0495,
43.317336,-0.1692,0.4128,-0.1274,-0.2921,-0.1947,-0.1932,
43.354202,-0.1692,0.4128,-0.1274,-0.2921,-0.1947,-0.1932,
43.354967,-0.3509,0.5584,-0.2507,-0.2921,-0.1947,-0.1932,
43.382751,-0.3509,0.5584,-0.2507,-0.2854,-0.0681,-0.1013,
43.420277,-0.3509,0.5584,-0.2507,-0.2854,-0.0681,-0.1013,
43.421242,-0.0049,0.3625,-0.2308,-0.2854,-0.0681,-0.1013,
43.449102,-0.0049,0.3625,-0.2308,-0.2285,0.0411,-0.1168,
43.485902,-0.0049,0.3625,-0.2308,-0.2285,0.0411,-0.1168,
43.486924,-0.0894,-0.2334,-0.6830,-0.2285,0.0411,-0.1168,
43.514818,-0.0894,-0.2334,-0.6830,-0.3890,0.1897,-0.1712,
43.551733,-0.0894,-0.2334,-0.6830,-0.3890,0.1897,-0.1712,
43.552918,-0.7250,-0.5238,0.0762,-0.3890,0.1897,-0.1712,
43.579938,-0.7250,-0.5238,0.0762,-0.4527,0.2740,-0.0455,
43.617852,-0.7250,-0.5238,0.0762,-0.4527,0.2740,-0.0455,
43.619522,-0.3450,-0.5733,-0.0314,-0.4527,0.2740,-0.0455,
43.644809,-0.3450,-0.5733,-0.0314,-0.3603,0.4727,-0.0418,
43.682264,-0.3450,-0.5733,-0.0314,-0.3603,0.4727,-0.0418,
43.683975,-0.5243,-0.5039,-0.2533,-0.3603,0.4727,-0.0418,
43.710237,-0.5243,-0.5039,-0.2533,-0.4461,0.6200,-0.0258,
43.748036,-0.5243,-0.5039,-0.2533,-0.4461,0.6200,-0.0258,
43.749827,-0.6944,-0.1245,-0.2433,-0.4461,0.6200,-0.0258,
43.776741,-0.6944,-0.1245,-0.2433,-0.3545,0.5435,-0.0211,
43.814040,-0.6944,-0.1245,-0.2433,-0.3545,0.5435,-0.0211,
43.815732,-0.7733,-0.2852,-0.3183,-0.3545,0.5435,-0.0211,
43.842146,-0.7733,-0.2852,-0.3183,-0.2888,0.2495,-0.0305,
43.879733,-0.7733,-0.2852,-0.3183,-0.2888,0.2495,-0.0305,
43.882853,-0.7015,-0.4157,0.0504,-0.2888,0.2495,-0.0305,
43.906836,-0.7015,-0.4157,0.0504,-0.1663,0.0415,0.0626,
43.944801,-0.7015,-0.4157,0.0504,-0.1663,0.0415,0.0626,
43.946175,-0.1622,-0.3590,0.1357,-0.1663,0.0415,0.0626,
43.972765,-0.1622,-0.3590,0.1357,-0.0564,-0.0122,0.0408,
44.010158,-0.1622,-0.3590,0.1357,-0.0564,-0.0122,0.0408,
44.011724,-0.2470,-0.1968,0.4435,-0.0564,-0.0122,0.0408,
44.039182,-0.2470,-0.1968,0.4435,0.0382,-0.0461,0.0825,
44.075830,-0.2470,-0.1968,0.4435,0.0382,-0.0461,0.0825,
44.076324,-0.3670,-0.2152,0.4649,0.0382,-0.0461,0.0825,
44.103845,-0.3670,-0.2152,0.4649,0.0835,-0.0449,0.1057,
44.141286,-0.3670,-0.2152,0.4649,0.0835,-0.0449,0.1057,
44.142928,-0.2463,-0.0737,0.6068,0.0835,-0.0449,0.1057,
44.168509,-0.2463,-0.0737,0.6068,0.0628,-0.0559,0.1590,
44.205868,-0.2463,-0.0737,0.6068,0.0628,-0.0559,0.1590,
44.207425,-0.0129,-0.1435,0.7027,0.0628,-0.0559,0.1590,
44.234696,-0.0129,-0.1435,0.7027,0.0626,0.0505,0.1947,
44.271696,-0.0129,-0.1435,0.7027,0.0626,0.0505,0.1947,
44.273171,-0.1440,-0.2360,0.9874,0.0626,0.0505,0.1947,
44.299924,-0.1440,-0.2360,0.9874,0.0638,0.0812,0.2338,
44.338156,-0.1440,-0.2360,0.9874,0.0638,0.0812,0.2338,
44.339762,-0.5109,-0.4344,1.3339,0.0638,0.0812,0.2338,
44.365722,-0.5109,-0.4344,1.3339,0.1237,-0.0658,0.3196,
44.401799,-0.5109,-0.4344,1.3339,0.1237,-0.0658,0.3196,
44.402841,-0.4507,-1.0606,1.2602,0.1237,-0.0658,0.3196,
44.430796,-0.4507,-1.0606,1.2602,0.2726,-0.1413,0.3341,
44.467967,-0.4507,-1.0606,1.2602,0.2726,-0.1413,0.3341,
44.469674,-0.9929,-0.3751,0.6323,0.2726,-0.1413,0.3341,
44.496071,-0.9929,-0.3751,0.6323,0.1477,-0.2616,0.0727,
44.533165,-0.9929,-0.3751,0.6323,0.1477,-0.2616,0.0727,
44.536407,-1.8096,2.4106,-1.0101,0.1477,-0.2616,0.0727,
44.562335,-1.8096,2.4106,-1.0101,0.4801,-1.0363,0.3419,
44.599205,-1.8096,2.4106,-1.0101,0.4801,-1.0363,0.3419,
44.600553,2.1763,-1.5964,-1.9010,0.4801,-1.0363,0.3419,
44.626989,2.1763,-1.5964,-1.9010,0.4942,0.1726,0.0464,
44.663629,2.1763,-1.5964,-1.9010,0.4942,0.1726,0.0464,
44.665273,1.2866,0.0773,-0.6118,0.4942,0.1726,0.0464,
44.691478,1.2866,0.0773,-0.6118,0.6555,0.1935,-0.0365,
44.728683,1.2866,0.0773,-0.6118,0.6555,0.1935,-0.0365,
44.729904,-0.3179,1.1513,-0.6003,0.6555,0.1935,-0.0365,
44.757032,-0.3179,1.1513,-0.6003,0.6089,-0.1037,0.1952,
44.795446,-0.3179,1.1513,-0.6003,0.6089,-0.1037,0.1952,
44.797086,0.8380,-0.3412,0.0080,0.6089,-0.1037,0.1952,
44.822964,0.8380,-0.3412,0.0080,0.5394,0.0177,0.0006,
44.860653,0.8380,-0.3412,0.0080,0.5394,0.0177,0.0006,
44.862331,0.7180,0.0280,-0.1956,0.5394,0.0177,0.0006,
44.888875,0.7180,0.0280,-0.1956,0.5376,0.0883,-0.0916,
44.926641,0.7180,0.0280,-0.1956,0.5376,0.0883,-0.0916,
44.928103,0.3804,0.1497,-0.1787,0.5376,0.0883,-0.0916,
44.954813,0.3804,0.1497,-0.1787,0.3813,0.1251,0.0272,
44.991250,0.3804,0.1497,-0.1787,0.3813,0.1251,0.0272,
44.992786,0.4630,-0.2661,-0.1483,0.3813,0.1251,0.0272,
45.019900,0.4630,-0.2661,-0.1483,0.2118,0.0701,-0.0432,
45.057118,0.4630,-0.2661,-0.1483,0.2118,0.0701,-0.0432,
45.058974,0.3444,-0.0638,0.0107,0.2118,0.0701,-0.0432,
45.085372,0.3444,-0.0638,0.0107,0.0538,-0.0591,-0.0078,
45.123182,0.3444,-0.0638,0.0107,0.0538,-0.0591,-0.0078,
45.125136,0.7991,-0.1349,-0.0567,0.0538,-0.0591,-0.0078,
45.151034,0.7991,-0.1349,-0.0567,0.0336,-0.0683,-0.1095,
45.187932,0.7991,-0.1349,-0.0567,0.0336,-0.0683,-0.1095,
45.190001,0.4689,-0.1372,-0.0989,0.0336,-0.0683,-0.1095,
45.215942,0.4689,-0.1372,-0.0989,-0.0564,-0.1694,-0.2092,
45.254192,0.4689,-0.1372,-0.0989,-0.0564,-0.1694,-0.2092,
45.255895,0.4096,-0.0899,0.1298,-0.0564,-0.1694,-0.2092,
45.283024,0.4096,-0.0899,0.1298,-0.0594,-0.3771,-0.2001,
45.319048,0.4096,-0.0899,0.1298,-0.0594,-0.3771,-0.2001,
45.320100,1.0249,0.0986,-0.0012,-0.0594,-0.3771,-0.2001,
45.348768,1.0249,0.0986,-0.0012,-0.0713,-0.3992,-0.2109,
45.384371,1.0249,0.0986,-0.0012,-0.0713,-0.3992,-0.2109,
45.385374,1.2592,0.4889,-0.1719,-0.0713,-0.3992,-0.2109,
45.413902,1.2592,0.4889,-0.1719,-0.0573,-0.1588,-0.2202,
45.449696,1.2592,0.4889,-0.1719,-0.0573,-0.1588,-0.2202,
45.450622,1.4501,0.5107,-0.0645,-0.0573,-0.1588,-0.2202,
45.479045,1.4501,0.5107,-0.0645,-0.0822,0.1941,-0.1391,
45.515597,1.4501,0.5107,-0.0645,-0.0822,0.1941,-0.1391,
45.517332,1.2408,0.5035,0.2455,-0.0822,0.1941,-0.1391,
45.543475,1.2408,0.5035,0.2455,-0.2343,0.2801,-0.1310,
45.581886,1.2408,0.5035,0.2455,-0.2343,0.2801,-0.1310,
45.583542,0.0395,0.2422,-0.1182,-0.2343,0.2801,-0.1310,
45.609867,0.0395,0.2422,-0.1182,-0.4875,0.4604,-0.2155,
45.646083,0.0395,0.2422,-0.1182,-0.4875,0.4604,-0.2155,
45.647096,-1.3686,-0.0632,-0.3721,-0.4875,0.4604,-0.2155,
45.674919,-1.3686,-0.0632,-0.3721,-0.6603,0.5971,-0.0608,
45.711333,-1.3686,-0.0632,-0.3721,-0.6603,0.5971,-0.0608,
45.712451,-1.6847,-0.1365,-0.5408,-0.6603,0.5971,-0.0608,
45.741399,-1.6847,-0.1365,-0.5408,-0.7837,0.5701,0.0826,
45.778531,-1.6847,-0.1365,-0.5408,-0.7837,0.5701,0.0826,
45.780257,-1.1792,0.4868,-0.0809,-0.7837,0.5701,0.0826,
45.806781,-1.1792,0.4868,-0.0809,-0.5333,0.3502,0.1110,
45.843375,-1.1792,0.4868,-0.0809,-0.5333,0.3502,0.1110,
45.844304,-0.4842,-0.5891,-0.2527,-0.5333,0.3502,0.1110,
45.871212,-0.4842,-0.5891,-0.2527,-0.4285,0.2243,-0.0147,
45.909248,-0.4842,-0.5891,-0.2527,-0.4285,0.2243,-0.0147,
45.910049,-0.3033,-0.7005,0.1214,-0.4285,0.2243,-0.0147,
45.936364,-0.3033,-0.7005,0.1214,-0.2408,0.2300,-0.0809,
45.973173,-0.3033,-0.7005,0.1214,-0.2408,0.2300,-0.0809,
45.974361,0.0089,-1.0962,0.5790,-0.2408,0.2300,-0.0809,
46.002017,0.0089,-1.0962,0.5790,-0.0281,0.3766,-0.0812,
46.038946,0.0089,-1.0962,0.5790,-0.0281,0.3766,-0.0812,
46.040180,0.6854,-0.8373,0.8988,-0.0281,0.3766,-0.0812,
46.066789,0.6854,-0.8373,0.8988,0.1358,0.5664,-0.0431,
46.104380,0.6854,-0.8373,0.8988,0.1358,0.5664,-0.0431,
46.105453,0.1963,-0.6748,1.0424,0.1358,0.5664,-0.0431,
46.132553,0.1963,-0.6748,1.0424,0.1808,0.7239,0.0709,
46.170334,0.1963,-0.6748,1.0424,0.1808,0.7239,0.0709,
46.172244,-0.5537,-0.9208,1.3891,0.1808,0.7239,0.0709,
46.198119,-0.5537,-0.9208,1.3891,0.1170,0.6012,0.3167,
46.235504,-0.5537,-0.9208,1.3891,0.1170,0.6012,0.3167,
46.237313,-0.4652,-1.5027,0.9977,0.1170,0.6012,0.3167,
46.263794,-0.4652,-1.5027,0.9977,-0.2837,0.2572,0.4158,
46.302130,-0.4652,-1.5027,0.9977,-0.2837,0.2572,0.4158,
46.303128,-1.3134,5.3931,-0.7852,-0.2837,0.2572,0.4158,
46.329324,-1.3134,5.3931,-0.7852,0.7294,-0.4669,-0.1663,
46.367047,-1.3134,5.3931,-0.7852,0.7294,-0.4669,-0.1663,
46.369117,0.6925,0.2826,-3.7818,0.7294,-0.4669,-0.1663,
46.396437,0.6925,0.2826,-3.7818,-0.1136,0.7897,0.3632,
46.432533,0.6925,0.2826,-3.7818,-0.1136,0.7897,0.3632,
46.434617,0.2487,0.1396,0.5944,-0.1136,0.7897,0.3632,
46.460332,0.2487,0.1396,0.5944,0.8259,0.1066,0.0785,
46.498832,0.2487,0.1396,0.5944,0.8259,0.1066,0.0785,
46.500388,-0.0744,-0.5324,-1.5432,0.8259,0.1066,0.0785,
46.525689,-0.0744,-0.5324,-1.5432,0.4794,0.1451,-0.0831,
46.563730,-0.0744,-0.5324,-1.5432,0.4794,0.1451,-0.0831,
46.565182,0.2367,-0.4034,-0.5856,0.4794,0.1451,-0.0831,
46.592774,0.2367,-0.4034,-0.5856,0.3812,0.4351,0.0244,
46.628934,0.2367,-0.4034,-0.5856,0.3812,0.4351,0.0244,
46.630745,0.7694,-0.2940,-0.6393,0.3812,0.4351,0.0244,
46.658093,0.7694,-0.2940,-0.6393,0.4391,0.5067,-0.0832,
46.694835,0.7694,-0.2940,-0.6393,0.4391,0.5067,-0.0832,
46.696460,0.0183,-0.2437,-0.5125,0.4391,0.5067,-0.0832,
46.722974,0.0183,-0.2437,-0.5125,0.2941,0.4875,-0.0742,
46.760839,0.0183,-0.2437,-0.5125,0.2941,0.4875,-0.0742,
46.762435,-0.0650,-0.1873,0.0818,0.2941,0.4875,-0.0742,
46.788154,-0.0650,-0.1873,0.0818,0.2245,0.2036,-0.0785,
46.824860,-0.0650,-0.1873,0.0818,0.2245,0.2036,-0.0785,
46.827145,0.4348,0.0948,-0.2388,0.2245,0.2036,-0.0785,
46.854295,0.4348,0.0948,-0.2388,0.1136,0.1104,-0.0661,
46.891432,0.4348,0.0948,-0.2388,0.1136,0.1104,-0.0661,
46.892096,0.6325,0.0458,-0.0915,0.1136,0.1104,-0.0661,
46.918989,0.6325,0.0458,-0.0915,0.0420,0.0031,-0.1348,
46.955848,0.6325,0.0458,-0.0915,0.0420,0.0031,-0.1348,
46.956365,0.6898,-0.1346,-0.1449,0.0420,0.0031,-0.1348,
46.984082,0.6898,-0.1346,-0.1449,0.0458,-0.1426,-0.2114,
47.020429,0.6898,-0.1346,-0.1449,0.0458,-0.1426,-0.2114,
47.020995,0.6863,-0.1106,-0.2297,0.0458,-0.1426,-0.2114,
