
time,ax,ay,az,wx,wy,wz,
0.021557,0.0000,0.0000,0.0000,0.0000,0.0000,0.0000,
0.032799,0.0000,0.0000,0.0000,-0.1936,-0.1066,-0.0079,
0.074628,0.0000,0.0000,0.0000,-0.1936,-0.1066,-0.0079,
0.098411,0.0000,0.0000,0.0000,-0.1403,-0.1898,-0.0356,
0.139402,0.0000,0.0000,0.0000,-0.1403,-0.1898,-0.0356,
0.163605,0.0000,0.0000,0.0000,0.0188,0.0368,-0.0577,
0.204880,0.0000,0.0000,0.0000,0.0188,0.0368,-0.0577,
0.229277,0.0000,0.0000,0.0000,-0.0446,-0.0185,-0.0228,
0.271235,0.0000,0.0000,0.0000,-0.0446,-0.0185,-0.0228,
0.295027,0.0000,0.0000,0.0000,-0.0568,0.0090,-0.0696,
0.336548,0.0000,0.0000,0.0000,-0.0568,0.0090,-0.0696,
0.360896,0.0000,0.0000,0.0000,-0.6936,0.4488,-0.2350,
0.402283,0.0000,0.0000,0.0000,-0.6936,0.4488,-0.2350,
0.426686,0.0000,0.0000,0.0000,-1.8415,1.0725,-0.4230,
0.469085,0.0000,0.0000,0.0000,-1.8415,1.0725,-0.4230,
0.484525,-1.6211,-0.4612,2.5704,-1.8415,1.0725,-0.4230,
0.491165,-1.6211,-0.4612,2.5704,-1.3412,1.4262,-0.2317,
0.533070,-1.6211,-0.4612,2.5704,-1.3412,1.4262,-0.2317,
0.549401,-0.8440,-0.5484,4.1448,-1.3412,1.4262,-0.2317,
0.556537,-0.8440,-0.5484,4.1448,-0.3958,1.3651,-0.1878,
0.597815,-0.8440,-0.5484,4.1448,-0.3958,1.3651,-0.1878,
0.622529,-0.8440,-0.5484,4.1448,0.1122,0.2769,0.4801,
0.680296,-0.8440,-0.5484,4.1448,0.1122,0.2769,0.4801,
0.681360,-0.0135,-3.5305,2.1396,0.1122,0.2769,0.4801,
0.688253,-0.0135,-3.5305,2.1396,-0.3853,0.5304,0.1158,
0.696910,-0.0135,-3.5305,2.1396,-0.3853,0.5304,0.1158,
0.753813,-0.0135,-3.5305,2.1396,0.0173,-1.1489,1.0240,
0.762019,-0.0135,-3.5305,2.1396,0.0173,-1.1489,1.0240,
0.762713,-2.0605,-2.2473,5.3165,0.0173,-1.1489,1.0240,
0.819812,-2.0605,-2.2473,5.3165,1.4306,-0.8505,1.3488,
0.827622,-2.0605,-2.2473,5.3165,1.4306,-0.8505,1.3488,
0.828369,-0.8235,-0.7363,2.5527,1.4306,-0.8505,1.3488,
0.885024,-0.8235,-0.7363,2.5527,0.9026,-2.0805,0.5707,
0.895057,-0.8235,-0.7363,2.5527,0.9026,-2.0805,0.5707,
0.896382,-2.5172,2.6364,2.1378,0.9026,-2.0805,0.5707,
0.950679,-2.5172,2.6364,2.1378,1.5953,-1.3060,0.1730,
0.958815,-2.5172,2.6364,2.1378,1.5953,-1.3060,0.1730,
0.959905,-0.8751,-0.5761,4.0023,1.5953,-1.3060,0.1730,
1.015621,-0.8751,-0.5761,4.0023,2.0963,-0.0290,-0.0313,
1.023987,-0.8751,-0.5761,4.0023,2.0963,-0.0290,-0.0313,
1.025191,-1.3742,-1.7156,3.8397,2.0963,-0.0290,-0.0313,
1.081445,-1.3742,-1.7156,3.8397,-0.3118,-0.5015,-0.0290,
1.089474,-1.3742,-1.7156,3.8397,-0.3118,-0.5015,-0.0290,
1.090720,-0.2674,-2.2595,1.4968,-0.3118,-0.5015,-0.0290,
1.146632,-0.2674,-2.2595,1.4968,0.0072,-0.3848,-0.6750,
1.155260,-0.2674,-2.2595,1.4968,0.0072,-0.3848,-0.6750,
1.156233,0.3250,1.7491,1.6879,0.0072,-0.3848,-0.6750,
1.212178,0.3250,1.7491,1.6879,0.9980,-0.6691,0.3374,
1.220148,0.3250,1.7491,1.6879,0.9980,-0.6691,0.3374,
1.220905,0.8290,-0.3388,1.8132,0.9980,-0.6691,0.3374,
1.278003,0.8290,-0.3388,1.8132,0.5909,0.4684,0.1312,
1.285999,0.8290,-0.3388,1.8132,0.5909,0.4684,0.1312,
1.286933,0.2276,-0.0582,2.6108,0.5909,0.4684,0.1312,
1.344054,0.2276,-0.0582,2.6108,0.4478,-0.7966,-0.3340,
1.352925,0.2276,-0.0582,2.6108,0.4478,-0.7966,-0.3340,
1.354597,0.1851,0.3070,3.4838,0.4478,-0.7966,-0.3340,
1.408930,0.1851,0.3070,3.4838,0.0163,-1.1773,-0.0029,
1.417067,0.1851,0.3070,3.4838,0.0163,-1.1773,-0.0029,
1.418162,2.3685,0.4541,3.2079,0.0163,-1.1773,-0.0029,
1.474041,2.3685,0.4541,3.2079,0.3858,0.0562,-0.2799,
1.481938,2.3685,0.4541,3.2079,0.3858,0.0562,-0.2799,
1.483023,4.7838,0.2643,2.9276,0.3858,0.0562,-0.2799,
1.539263,4.7838,0.2643,2.9276,1.1890,1.0823,-0.5421,
1.547084,4.7838,0.2643,2.9276,1.1890,1.0823,-0.5421,
1.547821,1.2748,-0.2068,3.6557,1.1890,1.0823,-0.5421,
1.604859,1.2748,-0.2068,3.6557,2.2684,0.0224,-0.4859,
1.613788,1.2748,-0.2068,3.6557,2.2684,0.0224,-0.4859,
1.614451,-1.5145,1.8345,2.3046,2.2684,0.0224,-0.4859,
1.671037,-1.5145,1.8345,2.3046,1.7370,0.9064,-0.5270,
1.678707,-1.5145,1.8345,2.3046,1.7370,0.9064,-0.5270,
1.679734,-3.1290,4.1071,-3.2321,1.7370,0.9064,-0.5270,
1.735797,-3.1290,4.1071,-3.2321,-1.3647,1.9871,0.0254,
1.744521,-3.1290,4.1071,-3.2321,-1.3647,1.9871,0.0254,
1.746235,-3.8051,1.5451,0.6864,-1.3647,1.9871,0.0254,
1.802151,-3.8051,1.5451,0.6864,-3.0971,1.3879,0.6242,
1.810650,-3.8051,1.5451,0.6864,-3.0971,1.3879,0.6242,
1.811822,-2.4602,-0.6401,1.5356,-3.0971,1.3879,0.6242,
1.867038,-2.4602,-0.6401,1.5356,-2.9308,1.0889,-0.0967,
1.874956,-2.4602,-0.6401,1.5356,-2.9308,1.0889,-0.0967,
1.875918,-1.8704,-3.8535,6.1650,-2.9308,1.0889,-0.0967,
1.932088,-1.8704,-3.8535,6.1650,0.3737,1.0122,0.3949,
1.940376,-1.8704,-3.8535,6.1650,0.3737,1.0122,0.3949,
1.941597,-1.3753,-1.8040,2.9501,0.3737,1.0122,0.3949,
1.997688,-1.3753,-1.8040,2.9501,0.1466,1.0715,1.1086,
2.005935,-1.3753,-1.8040,2.9501,0.1466,1.0715,1.1086,
2.007010,2.8657,-1.0877,5.1141,0.1466,1.0715,1.1086,
2.063680,2.8657,-1.0877,5.1141,0.2016,-1.1501,0.3309,
2.071522,2.8657,-1.0877,5.1141,0.2016,-1.1501,0.3309,
2.072477,-0.4239,4.1756,5.3242,0.2016,-1.1501,0.3309,
2.128883,-0.4239,4.1756,5.3242,1.1451,-2.2698,-0.2778,
2.136655,-0.4239,4.1756,5.3242,1.1451,-2.2698,-0.2778,
2.137925,-4.3291,2.7300,0.3541,1.1451,-2.2698,-0.2778,
2.194366,-4.3291,2.7300,0.3541,0.8509,-3.1554,0.6993,
2.203717,-4.3291,2.7300,0.3541,0.8509,-3.1554,0.6993,
2.204513,-5.1473,1.1556,-3.6527,0.8509,-3.1554,0.6993,
2.262366,-5.1473,1.1556,-3.6527,-0.7143,-0.6306,-0.0334,
2.268832,-5.1473,1.1556,-3.6527,-0.7143,-0.6306,-0.0334,
2.270167,-1.3080,1.0094,-1.3933,-0.7143,-0.6306,-0.0334,
2.325692,-1.3080,1.0094,-1.3933,-0.9846,1.5620,-0.0087,
2.333658,-1.3080,1.0094,-1.3933,-0.9846,1.5620,-0.0087,
2.334871,4.3350,-0.5352,3.0411,-0.9846,1.5620,-0.0087,
2.390699,4.3350,-0.5352,3.0411,-1.5473,-3.1402,-0.7007,
2.398891,4.3350,-0.5352,3.0411,-1.5473,-3.1402,-0.7007,
2.400121,6.7087,-2.4191,3.9322,-1.5473,-3.1402,-0.7007,
2.455624,6.7087,-2.4191,3.9322,-0.3621,3.7258,0.6987,
2.464754,6.7087,-2.4191,3.9322,-0.3621,3.7258,0.6987,
2.465653,0.0789,-2.9096,2.4331,-0.3621,3.7258,0.6987,
2.521577,0.0789,-2.9096,2.4331,-1.1121,2.9862,1.5217,
2.529471,0.0789,-2.9096,2.4331,-1.1121,2.9862,1.5217,
2.530162,0.0962,2.8464,1.7955,-1.1121,2.9862,1.5217,
2.586745,0.0962,2.8464,1.7955,-0.1765,1.6449,-0.3931,
2.596659,0.0962,2.8464,1.7955,-0.1765,1.6449,-0.3931,
2.597388,-2.1658,3.5256,-4.1729,-0.1765,1.6449,-0.3931,
2.651954,-2.1658,3.5256,-4.1729,-0.9024,2.8834,0.1031,
2.660725,-2.1658,3.5256,-4.1729,-0.9024,2.8834,0.1031,
2.661679,-5.9500,-4.0130,2.7548,-0.9024,2.8834,0.1031,
2.718460,-5.9500,-4.0130,2.7548,1.6484,0.5034,0.0907,
2.726957,-5.9500,-4.0130,2.7548,1.6484,0.5034,0.0907,
2.727970,-4.3068,-0.5376,-0.1384,1.6484,0.5034,0.0907,
2.785296,-4.3068,-0.5376,-0.1384,-0.0589,-0.6318,0.6022,
2.791941,-4.3068,-0.5376,-0.1384,-0.0589,-0.6318,0.6022,
2.793049,-1.3102,-0.3358,6.8982,-0.0589,-0.6318,0.6022,
2.848975,-1.3102,-0.3358,6.8982,-0.0777,1.4476,0.5185,
2.857450,-1.3102,-0.3358,6.8982,-0.0777,1.4476,0.5185,
2.858131,0.4756,0.3520,5.2209,-0.0777,1.4476,0.5185,
2.914786,0.4756,0.3520,5.2209,-0.1426,-0.1946,1.4145,
2.922826,0.4756,0.3520,5.2209,-0.1426,-0.1946,1.4145,
2.924012,1.1073,4.5188,2.9796,-0.1426,-0.1946,1.4145,
2.980217,1.1073,4.5188,2.9796,1.6444,0.0466,-1.8266,
2.988698,1.1073,4.5188,2.9796,1.6444,0.0466,-1.8266,
2.990015,-2.5415,-0.8286,-1.0924,1.6444,0.0466,-1.8266,
3.045723,-2.5415,-0.8286,-1.0924,1.1038,-3.1208,-0.3494,
3.054337,-2.5415,-0.8286,-1.0924,1.1038,-3.1208,-0.3494,
3.055017,-3.9594,4.1014,-2.3020,1.1038,-3.1208,-0.3494,
3.111638,-3.9594,4.1014,-2.3020,0.2931,-1.7179,0.0594,
3.119208,-3.9594,4.1014,-2.3020,0.2931,-1.7179,0.0594,
3.119847,-2.2534,-0.3626,0.8091,0.2931,-1.7179,0.0594,
3.177522,-2.2534,-0.3626,0.8091,0.2585,-1.7286,-0.0770,
3.185718,-2.2534,-0.3626,0.8091,0.2585,-1.7286,-0.0770,
3.186750,-0.1672,-0.6594,3.0498,0.2585,-1.7286,-0.0770,
3.242503,-0.1672,-0.6594,3.0498,0.1403,-1.1322,-0.5789,
3.250110,-0.1672,-0.6594,3.0498,0.1403,-1.1322,-0.5789,
3.251038,0.8626,-0.9206,3.2000,0.1403,-1.1322,-0.5789,
3.307074,0.8626,-0.9206,3.2000,1.4603,-0.2095,-0.2456,
3.315917,0.8626,-0.9206,3.2000,1.4603,-0.2095,-0.2456,
3.317368,3.2035,-0.6832,2.9486,1.4603,-0.2095,-0.2456,
3.373996,3.2035,-0.6832,2.9486,1.2396,0.7156,-0.6293,
3.382062,3.2035,-0.6832,2.9486,1.2396,0.7156,-0.6293,
3.383083,0.0069,-0.4620,5.6322,1.2396,0.7156,-0.6293,
3.438853,0.0069,-0.4620,5.6322,1.1293,0.4250,0.1561,
3.448345,0.0069,-0.4620,5.6322,1.1293,0.4250,0.1561,
3.449412,-0.2213,1.2568,1.8621,1.1293,0.4250,0.1561,
3.504350,-0.2213,1.2568,1.8621,-0.7457,2.1076,0.3713,
3.512729,-0.2213,1.2568,1.8621,-0.7457,2.1076,0.3713,
3.513895,-0.4704,4.3230,1.0525,-0.7457,2.1076,0.3713,
3.570849,-0.4704,4.3230,1.0525,-1.3378,-0.6971,0.5092,
3.577924,-0.4704,4.3230,1.0525,-1.3378,-0.6971,0.5092,
3.578947,-3.2089,3.8443,0.2654,-1.3378,-0.6971,0.5092,
3.635301,-3.2089,3.8443,0.2654,-2.1811,0.0032,0.4313,
3.644066,-3.2089,3.8443,0.2654,-2.1811,0.0032,0.4313,
3.644399,-3.7056,2.0193,-1.4532,-2.1811,0.0032,0.4313,
3.700786,-3.7056,2.0193,-1.4532,-2.3691,1.6570,-0.7761,
3.709083,-3.7056,2.0193,-1.4532,-2.3691,1.6570,-0.7761,
3.710223,-4.5927,-3.0617,-1.9923,-2.3691,1.6570,-0.7761,
3.765512,-4.5927,-3.0617,-1.9923,-1.4936,3.3358,-0.5961,
3.773584,-4.5927,-3.0617,-1.9923,-1.4936,3.3358,-0.5961,
3.773989,-4.1361,-1.7940,-2.0149,-1.4936,3.3358,-0.5961,
3.832256,-4.1361,-1.7940,-2.0149,-3.0791,-3.9638,1.8140,
3.839253,-4.1361,-1.7940,-2.0149,-3.0791,-3.9638,1.8140,
3.839959,3.4562,-3.4606,11.9321,-3.0791,-3.9638,1.8140,
3.896886,3.4562,-3.4606,11.9321,3.0484,1.3474,-0.1440,
3.904709,3.4562,-3.4606,11.9321,3.0484,1.3474,-0.1440,
3.905544,-0.3653,-0.1909,2.0030,3.0484,1.3474,-0.1440,
3.961858,-0.3653,-0.1909,2.0030,2.0055,-0.2569,-2.3135,
3.971089,-0.3653,-0.1909,2.0030,2.0055,-0.2569,-2.3135,
3.972275,-6.0814,4.6551,-3.8848,2.0055,-0.2569,-2.3135,
4.027314,-6.0814,4.6551,-3.8848,-0.6341,-0.0469,0.2920,
4.035937,-6.0814,4.6551,-3.8848,-0.6341,-0.0469,0.2920,
4.036728,-6.2662,2.6460,1.6494,-0.6341,-0.0469,0.2920,
4.092322,-6.2662,2.6460,1.6494,0.4123,-2.3726,2.4108,
4.101531,-6.2662,2.6460,1.6494,0.4123,-2.3726,2.4108,
4.102376,-0.8362,-0.1154,3.4712,0.4123,-2.3726,2.4108,
4.158673,-0.8362,-0.1154,3.4712,-0.0174,-4.6317,0.1045,
4.166934,-0.8362,-0.1154,3.4712,-0.0174,-4.6317,0.1045,
4.167374,-0.2191,1.6339,1.6612,-0.0174,-4.6317,0.1045,
4.224306,-0.2191,1.6339,1.6612,-1.2071,-4.1860,-0.0469,
4.232410,-0.2191,1.6339,1.6612,-1.2071,-4.1860,-0.0469,
4.232836,-0.3083,0.5868,0.9135,-1.2071,-4.1860,-0.0469,
4.291084,-0.3083,0.5868,0.9135,-2.3986,-1.3668,-0.3111,
4.297841,-0.3083,0.5868,0.9135,-2.3986,-1.3668,-0.3111,
4.298415,1.2848,-1.8331,1.5443,-2.3986,-1.3668,-0.3111,
4.355368,1.2848,-1.8331,1.5443,-1.7342,-3.0896,-0.4223,
4.363764,1.2848,-1.8331,1.5443,-1.7342,-3.0896,-0.4223,
4.365342,5.7834,-2.4726,6.2248,-1.7342,-3.0896,-0.4223,
4.422138,5.7834,-2.4726,6.2248,-0.4546,2.8785,0.3390,
4.428672,5.7834,-2.4726,6.2248,-0.4546,2.8785,0.3390,
4.429029,0.1051,-1.2990,3.5865,-0.4546,2.8785,0.3390,
4.488254,0.1051,-1.2990,3.5865,1.7651,2.5424,-0.4728,
4.494028,0.1051,-1.2990,3.5865,1.7651,2.5424,-0.4728,
4.495328,2.1868,3.7467,-0.1166,1.7651,2.5424,-0.4728,
4.552778,2.1868,3.7467,-0.1166,-1.0980,1.1171,-1.6312,
4.560582,2.1868,3.7467,-0.1166,-1.0980,1.1171,-1.6312,
4.561523,-3.4398,0.3551,-2.6086,-1.0980,1.1171,-1.6312,
4.617453,-3.4398,0.3551,-2.6086,-2.3476,2.2530,-0.8723,
4.625330,-3.4398,0.3551,-2.6086,-2.3476,2.2530,-0.8723,
4.625989,-3.4677,-3.0671,-1.5889,-2.3476,2.2530,-0.8723,
4.682334,-3.4677,-3.0671,-1.5889,-0.3810,0.8543,-1.5756,
4.691519,-3.4677,-3.0671,-1.5889,-0.3810,0.8543,-1.5756,
4.692743,-7.1013,-0.7876,6.1493,-0.3810,0.8543,-1.5756,
4.747589,-7.1013,-0.7876,6.1493,-0.0027,-2.5301,0.2347,
4.756338,-7.1013,-0.7876,6.1493,-0.0027,-2.5301,0.2347,
4.757265,-1.7898,-0.8864,3.1942,-0.0027,-2.5301,0.2347,
4.813072,-1.7898,-0.8864,3.1942,0.6968,-3.3178,0.2359,
4.821245,-1.7898,-0.8864,3.1942,0.6968,-3.3178,0.2359,
4.821673,-0.0825,1.7313,-0.7246,0.6968,-3.3178,0.2359,
4.878217,-0.0825,1.7313,-0.7246,-0.0247,-4.3179,0.7572,
4.887271,-0.0825,1.7313,-0.7246,-0.0247,-4.3179,0.7572,
4.888948,1.0779,-1.0687,0.0420,-0.0247,-4.3179,0.7572,
4.944265,1.0779,-1.0687,0.0420,0.3351,-4.1951,-0.3231,
4.952771,1.0779,-1.0687,0.0420,0.3351,-4.1951,-0.3231,
4.953850,1.3591,-1.7083,-0.0353,0.3351,-4.1951,-0.3231,
5.009870,1.3591,-1.7083,-0.0353,0.5596,0.4496,-0.1950,
5.017795,1.3591,-1.7083,-0.0353,0.5596,0.4496,-0.1950,
5.019160,4.6323,-2.5174,0.8370,0.5596,0.4496,-0.1950,
5.075175,4.6323,-2.5174,0.8370,0.0599,-1.6055,-0.1359,
5.085016,4.6323,-2.5174,0.8370,0.0599,-1.6055,-0.1359,
5.086891,4.0978,-1.1989,5.5559,0.0599,-1.6055,-0.1359,
5.140386,4.0978,-1.1989,5.5559,-0.6077,1.0218,0.2639,
5.148915,4.0978,-1.1989,5.5559,-0.6077,1.0218,0.2639,
5.149756,2.3949,-1.8929,5.6812,-0.6077,1.0218,0.2639,
5.207013,2.3949,-1.8929,5.6812,-1.4178,0.8641,0.4858,
5.214712,2.3949,-1.8929,5.6812,-1.4178,0.8641,0.4858,
5.215654,1.1408,-0.1069,0.3570,-1.4178,0.8641,0.4858,
5.274207,1.1408,-0.1069,0.3570,-0.2899,0.7814,-0.1040,
5.280095,1.1408,-0.1069,0.3570,-0.2899,0.7814,-0.1040,
5.280855,1.3550,2.6633,-0.8726,-0.2899,0.7814,-0.1040,
5.337435,1.3550,2.6633,-0.8726,-1.4557,1.0403,-0.4180,
5.345482,1.3550,2.6633,-0.8726,-1.4557,1.0403,-0.4180,
5.346120,-1.4765,0.4488,-0.9238,-1.4557,1.0403,-0.4180,
5.403359,-1.4765,0.4488,-0.9238,-1.4342,0.6243,-0.1564,
5.412478,-1.4765,0.4488,-0.9238,-1.4342,0.6243,-0.1564,
5.413990,-0.8292,-4.9039,1.4573,-1.4342,0.6243,-0.1564,
5.468119,-0.8292,-4.9039,1.4573,0.6906,1.4384,-0.4258,
5.475915,-0.8292,-4.9039,1.4573,0.6906,1.4384,-0.4258,
5.476402,-0.3062,-3.2614,-3.3884,0.6906,1.4384,-0.4258,
5.533888,-0.3062,-3.2614,-3.3884,-2.8323,-0.4146,1.1018,
5.541672,-0.3062,-3.2614,-3.3884,-2.8323,-0.4146,1.1018,
5.542177,0.5630,1.2253,13.4198,-2.8323,-0.4146,1.1018,
5.598076,0.5630,1.2253,13.4198,0.7433,2.6838,0.2272,
5.607139,0.5630,1.2253,13.4198,0.7433,2.6838,0.2272,
5.607886,2.7043,0.6377,7.3715,0.7433,2.6838,0.2272,
5.665762,2.7043,0.6377,7.3715,1.3654,-1.2811,-0.6153,
5.672423,2.7043,0.6377,7.3715,1.3654,-1.2811,-0.6153,
5.673084,-0.6371,-1.2287,-2.8359,1.3654,-1.2811,-0.6153,
5.729628,-0.6371,-1.2287,-2.8359,0.6171,-2.1357,0.0499,
5.738801,-0.6371,-1.2287,-2.8359,0.6171,-2.1357,0.0499,
5.739865,1.2166,3.4293,0.5010,0.6171,-2.1357,0.0499,
5.795539,1.2166,3.4293,0.5010,1.4265,-1.5325,0.0327,
5.805557,1.2166,3.4293,0.5010,1.4265,-1.5325,0.0327,
5.806302,1.2577,-1.8735,0.9428,1.4265,-1.5325,0.0327,
5.860584,1.2577,-1.8735,0.9428,1.1965,-1.3566,-0.3560,
5.869318,1.2577,-1.8735,0.9428,1.1965,-1.3566,-0.3560,
5.869896,2.5091,-2.1345,4.5273,1.1965,-1.3566,-0.3560,
5.926789,2.5091,-2.1345,4.5273,0.0128,-1.3796,0.3410,
5.935840,2.5091,-2.1345,4.5273,0.0128,-1.3796,0.3410,
5.937577,5.5899,-1.7993,3.6325,0.0128,-1.3796,0.3410,
5.992611,5.5899,-1.7993,3.6325,-3.6075,1.0823,0.4180,
6.002119,5.5899,-1.7993,3.6325,-3.6075,1.0823,0.4180,
6.003948,-0.5912,-2.9569,1.1826,-3.6075,1.0823,0.4180,
6.058442,-0.5912,-2.9569,1.1826,-1.5472,0.9646,0.1950,
6.066044,-0.5912,-2.9569,1.1826,-1.5472,0.9646,0.1950,
6.066686,-0.5713,1.5966,-2.8045,-1.5472,0.9646,0.1950,
6.123943,-0.5713,1.5966,-2.8045,-2.3143,0.9930,0.3454,
6.132064,-0.5713,1.5966,-2.8045,-2.3143,0.9930,0.3454,
6.133059,-0.3769,-2.9019,0.2184,-2.3143,0.9930,0.3454,
6.189831,-0.3769,-2.9019,0.2184,-0.9595,2.2888,1.1237,
6.197618,-0.3769,-2.9019,0.2184,-0.9595,2.2888,1.1237,
6.198688,3.5492,-3.5668,11.7701,-0.9595,2.2888,1.1237,
6.254583,3.5492,-3.5668,11.7701,4.0594,-2.2457,-2.1693,
6.262541,3.5492,-3.5668,11.7701,4.0594,-2.2457,-2.1693,
6.264298,4.2745,4.3842,-4.9383,4.0594,-2.2457,-2.1693,
6.319687,4.2745,4.3842,-4.9383,1.1587,-2.1649,-1.2106,
6.327571,4.2745,4.3842,-4.9383,1.1587,-2.1649,-1.2106,
6.328026,-3.4073,3.9145,-2.3753,1.1587,-2.1649,-1.2106,
6.384756,-3.4073,3.9145,-2.3753,0.2993,-2.4286,0.9533,
6.393804,-3.4073,3.9145,-2.3753,0.2993,-2.4286,0.9533,
6.394657,1.8377,-0.9618,0.8340,0.2993,-2.4286,0.9533,
6.450266,1.8377,-0.9618,0.8340,-0.5014,-1.5679,-0.5282,
6.458850,1.8377,-0.9618,0.8340,-0.5014,-1.5679,-0.5282,
6.459701,2.9581,-4.9107,2.2337,-0.5014,-1.5679,-0.5282,
6.516687,2.9581,-4.9107,2.2337,0.1518,-0.8454,-0.4601,
6.524600,2.9581,-4.9107,2.2337,0.1518,-0.8454,-0.4601,
6.524928,3.4055,-5.7996,1.6898,0.1518,-0.8454,-0.4601,
6.581211,3.4055,-5.7996,1.6898,1.5884,0.4600,-0.4571,
6.588826,3.4055,-5.7996,1.6898,1.5884,0.4600,-0.4571,
6.589205,4.5834,-4.3307,4.2325,1.5884,0.4600,-0.4571,
6.647333,4.5834,-4.3307,4.2325,1.4882,1.1599,-0.0127,
6.655161,4.5834,-4.3307,4.2325,1.4882,1.1599,-0.0127,
6.656301,5.4913,-0.6437,2.1332,1.4882,1.1599,-0.0127,
6.712741,5.4913,-0.6437,2.1332,1.3576,2.3492,0.7602,
6.721810,5.4913,-0.6437,2.1332,1.3576,2.3492,0.7602,
6.722307,4.6727,0.8802,2.3631,1.3576,2.3492,0.7602,
6.779720,4.6727,0.8802,2.3631,1.2747,-1.4690,-0.7104,
6.786279,4.6727,0.8802,2.3631,1.2747,-1.4690,-0.7104,
6.787211,-0.4473,4.7333,-2.2664,1.2747,-1.4690,-0.7104,
6.844189,-0.4473,4.7333,-2.2664,-0.1058,0.9684,-0.4927,
6.851533,-0.4473,4.7333,-2.2664,-0.1058,0.9684,-0.4927,
6.852636,-4.7667,-1.0582,-1.6478,-0.1058,0.9684,-0.4927,
6.908931,-4.7667,-1.0582,-1.6478,-1.9314,0.8409,0.2595,
6.917250,-4.7667,-1.0582,-1.6478,-1.9314,0.8409,0.2595,
6.917918,-2.5057,-4.1887,0.3576,-1.9314,0.8409,0.2595,
6.973946,-2.5057,-4.1887,0.3576,-4.4048,3.4856,0.2561,
6.982277,-2.5057,-4.1887,0.3576,-4.4048,3.4856,0.2561,
6.983127,0.9215,-0.3198,-1.8300,-4.4048,3.4856,0.2561,
7.040652,0.9215,-0.3198,-1.8300,-1.4074,1.2599,-0.1962,
7.048016,0.9215,-0.3198,-1.8300,-1.4074,1.2599,-0.1962,
7.048970,1.3739,-3.9847,5.1903,-1.4074,1.2599,-0.1962,
7.108129,1.3739,-3.9847,5.1903,0.9467,1.0463,-0.2326,
7.114933,1.3739,-3.9847,5.1903,0.9467,1.0463,-0.2326,
7.115785,-1.6221,-5.5948,-3.0399,0.9467,1.0463,-0.2326,
7.172978,-1.6221,-5.5948,-3.0399,-0.7222,-2.5354,1.3540,
7.181845,-1.6221,-5.5948,-3.0399,-0.7222,-2.5354,1.3540,
7.182798,2.2161,4.4341,4.5709,-0.7222,-2.5354,1.3540,
7.236552,2.2161,4.4341,4.5709,1.5024,-0.6235,-1.4916,
7.244036,2.2161,4.4341,4.5709,1.5024,-0.6235,-1.4916,
7.244750,-2.9301,-5.0247,-4.4911,1.5024,-0.6235,-1.4916,
7.302807,-2.9301,-5.0247,-4.4911,-0.8804,0.6481,-0.9316,
7.311810,-2.9301,-5.0247,-4.4911,-0.8804,0.6481,-0.9316,
7.312671,0.8996,3.3840,2.2141,-0.8804,0.6481,-0.9316,
7.367459,0.8996,3.3840,2.2141,1.4258,-3.4714,0.8099,
7.376865,0.8996,3.3840,2.2141,1.4258,-3.4714,0.8099,
7.378044,1.8541,-1.3174,3.4427,1.4258,-3.4714,0.8099,
7.433920,1.8541,-1.3174,3.4427,0.9504,-0.2891,0.3204,
7.441449,1.8541,-1.3174,3.4427,0.9504,-0.2891,0.3204,
7.442282,6.6078,-2.4792,-1.0304,0.9504,-0.2891,0.3204,
7.499647,6.6078,-2.4792,-1.0304,0.6003,0.2440,0.1203,
7.506959,6.6078,-2.4792,-1.0304,0.6003,0.2440,0.1203,
7.507858,3.5827,-4.1875,3.6613,0.6003,0.2440,0.1203,
7.565810,3.5827,-4.1875,3.6613,-1.9594,1.2711,2.0325,
7.571852,3.5827,-4.1875,3.6613,-1.9594,1.2711,2.0325,
7.572700,1.6005,-2.7106,2.0272,-1.9594,1.2711,2.0325,
7.630163,1.6005,-2.7106,2.0272,1.2619,0.8570,0.3961,
7.638305,1.6005,-2.7106,2.0272,1.2619,0.8570,0.3961,
7.639279,-0.6499,0.0120,-2.2229,1.2619,0.8570,0.3961,
7.695212,-0.6499,0.0120,-2.2229,-2.0036,2.4151,1.4868,
7.703061,-0.6499,0.0120,-2.2229,-2.0036,2.4151,1.4868,
7.704209,-0.6105,0.6950,-2.2544,-2.0036,2.4151,1.4868,
7.760519,-0.6105,0.6950,-2.2544,0.6603,2.5281,0.5718,
7.768978,-0.6105,0.6950,-2.2544,0.6603,2.5281,0.5718,
7.770621,-4.5316,-8.9627,1.4187,0.6603,2.5281,0.5718,
7.826380,-4.5316,-8.9627,1.4187,-1.5131,0.5357,1.5003,
7.835582,-4.5316,-8.9627,1.4187,-1.5131,0.5357,1.5003,
7.836564,5.4006,5.1371,7.0967,-1.5131,0.5357,1.5003,
7.891709,5.4006,5.1371,7.0967,1.4042,0.5728,-2.0433,
7.900004,5.4006,5.1371,7.0967,1.4042,0.5728,-2.0433,
7.900845,1.5940,1.6866,-2.3216,1.4042,0.5728,-2.0433,
7.958278,1.5940,1.6866,-2.3216,-0.4905,-0.6923,0.6142,
7.966462,1.5940,1.6866,-2.3216,-0.4905,-0.6923,0.6142,
7.967342,2.8416,-0.4902,0.3087,-0.4905,-0.6923,0.6142,
8.021652,2.8416,-0.4902,0.3087,1.6918,-2.2856,-1.4734,
8.030279,2.8416,-0.4902,0.3087,1.6918,-2.2856,-1.4734,
8.031393,-0.0845,-1.1126,1.9958,1.6918,-2.2856,-1.4734,
8.087661,-0.0845,-1.1126,1.9958,1.6116,-1.4140,-1.2611,
8.096181,-0.0845,-1.1126,1.9958,1.6116,-1.4140,-1.2611,
8.097077,1.3005,1.1317,-1.3381,1.6116,-1.4140,-1.2611,
8.154746,1.3005,1.1317,-1.3381,0.5696,1.6087,0.0783,
8.162453,1.3005,1.1317,-1.3381,0.5696,1.6087,0.0783,
8.163606,1.9630,-2.3692,5.7896,0.5696,1.6087,0.0783,
8.219018,1.9630,-2.3692,5.7896,1.4551,-0.2981,0.0521,
8.226662,1.9630,-2.3692,5.7896,1.4551,-0.2981,0.0521,
8.227742,2.7375,-3.8095,5.2954,1.4551,-0.2981,0.0521,
8.285826,2.7375,-3.8095,5.2954,1.6692,-0.2141,0.0211,
8.293320,2.7375,-3.8095,5.2954,1.6692,-0.2141,0.0211,
8.294502,1.9671,-3.1159,5.4044,1.6692,-0.2141,0.0211,
8.351173,1.9671,-3.1159,5.4044,-0.0423,0.8778,0.8338,
8.358268,1.9671,-3.1159,5.4044,-0.0423,0.8778,0.8338,
8.359123,1.4221,0.6584,-0.9312,-0.0423,0.8778,0.8338,
8.417424,1.4221,0.6584,-0.9312,0.2433,0.3038,0.2338,
8.423935,1.4221,0.6584,-0.9312,0.2433,0.3038,0.2338,
8.424882,1.9843,3.7487,-2.2103,0.2433,0.3038,0.2338,
8.483272,1.9843,3.7487,-2.2103,-2.3586,1.2167,-0.3186,
8.488850,1.9843,3.7487,-2.2103,-2.3586,1.2167,-0.3186,
8.489316,-3.9374,-1.9667,-0.4790,-2.3586,1.2167,-0.3186,
8.545648,-3.9374,-1.9667,-0.4790,-1.7514,0.3848,0.1513,
8.554570,-3.9374,-1.9667,-0.4790,-1.7514,0.3848,0.1513,
8.555709,-0.7949,-1.8182,3.8245,-1.7514,0.3848,0.1513,
8.611645,-0.7949,-1.8182,3.8245,-0.9528,0.3085,0.5767,
8.621407,-0.7949,-1.8182,3.8245,-0.9528,0.3085,0.5767,
8.622519,-0.4191,-1.1006,0.1946,-0.9528,0.3085,0.5767,
8.677784,-0.4191,-1.1006,0.1946,-1.1274,0.7743,1.4708,
8.685465,-0.4191,-1.1006,0.1946,-1.1274,0.7743,1.4708,
8.686338,0.9284,-4.0758,1.9440,-1.1274,0.7743,1.4708,
8.742626,0.9284,-4.0758,1.9440,0.5603,2.3410,0.8154,
8.751650,0.9284,-4.0758,1.9440,0.5603,2.3410,0.8154,
8.752088,1.5843,-3.9796,1.7094,0.5603,2.3410,0.8154,
8.808384,1.5843,-3.9796,1.7094,0.8421,1.7868,-0.4522,
8.816531,1.5843,-3.9796,1.7094,0.8421,1.7868,-0.4522,
8.817292,-2.0791,-2.6917,-0.4847,0.8421,1.7868,-0.4522,
8.874099,-2.0791,-2.6917,-0.4847,0.3438,-2.1932,0.0907,
8.882234,-2.0791,-2.6917,-0.4847,0.3438,-2.1932,0.0907,
8.882709,-0.1369,4.6773,0.7167,0.3438,-2.1932,0.0907,
8.938428,-0.1369,4.6773,0.7167,0.4391,-1.0960,-1.6484,
8.947145,-0.1369,4.6773,0.7167,0.4391,-1.0960,-1.6484,
8.947982,0.2402,-0.1458,0.1151,0.4391,-1.0960,-1.6484,
9.003965,0.2402,-0.1458,0.1151,0.5973,-2.9337,-0.4184,
9.013074,0.2402,-0.1458,0.1151,0.5973,-2.9337,-0.4184,
9.014254,2.4950,2.2667,-0.8969,0.5973,-2.9337,-0.4184,
9.069961,2.4950,2.2667,-0.8969,1.3862,0.2876,1.1836,
9.078410,2.4950,2.2667,-0.8969,1.3862,0.2876,1.1836,
9.079318,6.5813,0.0933,1.0105,1.3862,0.2876,1.1836,
9.136569,6.5813,0.0933,1.0105,0.2260,-1.9731,1.1101,
9.143552,6.5813,0.0933,1.0105,0.2260,-1.9731,1.1101,
9.145581,1.4773,-5.6918,7.5641,0.2260,-1.9731,1.1101,
9.201861,1.4773,-5.6918,7.5641,1.8466,5.0731,1.0081,
9.210478,1.4773,-5.6918,7.5641,1.8466,5.0731,1.0081,
9.210935,-3.4963,-6.0901,0.8923,1.8466,5.0731,1.0081,
9.266622,-3.4963,-6.0901,0.8923,0.6486,2.2469,2.1750,
9.274991,-3.4963,-6.0901,0.8923,0.6486,2.2469,2.1750,
9.275789,3.6110,2.2851,-0.9117,0.6486,2.2469,2.1750,
9.332801,3.6110,2.2851,-0.9117,1.9262,1.4551,-0.0501,
9.340298,3.6110,2.2851,-0.9117,1.9262,1.4551,-0.0501,
9.341195,-3.4696,-6.4770,-3.0898,1.9262,1.4551,-0.0501,
9.397617,-3.4696,-6.4770,-3.0898,0.5623,-1.5221,-0.0461,
9.407135,-3.4696,-6.4770,-3.0898,0.5623,-1.5221,-0.0461,
9.407969,6.6143,1.1873,6.4168,0.5623,-1.5221,-0.0461,
9.462485,6.6143,1.1873,6.4168,4.4589,0.6125,-3.8805,
9.472219,6.6143,1.1873,6.4168,4.4589,0.6125,-3.8805,
9.473026,-1.9665,8.4344,-2.4829,4.4589,0.6125,-3.8805,
9.529040,-1.9665,8.4344,-2.4829,1.1359,-0.9901,0.1776,
9.537598,-1.9665,8.4344,-2.4829,1.1359,-0.9901,0.1776,
9.538674,-4.0842,1.3418,-1.4421,1.1359,-0.9901,0.1776,
9.593716,-4.0842,1.3418,-1.4421,-0.3671,-0.5301,0.0214,
9.602668,-4.0842,1.3418,-1.4421,-0.3671,-0.5301,0.0214,
9.603431,-3.9590,-2.7335,1.0396,-0.3671,-0.5301,0.0214,
9.659918,-3.9590,-2.7335,1.0396,-0.9549,1.7932,-0.4585,
9.667253,-3.9590,-2.7335,1.0396,-0.9549,1.7932,-0.4585,
9.667662,-1.7466,-6.8234,11.7573,-0.9549,1.7932,-0.4585,
9.725463,-1.7466,-6.8234,11.7573,-2.4858,0.1122,-0.2057,
9.732390,-1.7466,-6.8234,11.7573,-2.4858,0.1122,-0.2057,
9.732775,4.8283,-3.9028,3.6377,-2.4858,0.1122,-0.2057,
9.792109,4.8283,-3.9028,3.6377,-2.9548,0.0281,1.0864,
9.798285,4.8283,-3.9028,3.6377,-2.9548,0.0281,1.0864,
9.798634,10.8223,9.8944,-2.2879,-2.9548,0.0281,1.0864,
9.856042,10.8223,9.8944,-2.2879,-1.6463,4.0025,-2.0180,
9.864012,10.8223,9.8944,-2.2879,-1.6463,4.0025,-2.0180,
9.864339,-2.2436,4.1183,-0.5779,-1.6463,4.0025,-2.0180,
9.922283,-2.2436,4.1183,-0.5779,-0.0064,0.4207,0.8983,
9.929605,-2.2436,4.1183,-0.5779,-0.0064,0.4207,0.8983,
9.929942,-3.4445,-5.3308,0.1795,-0.0064,0.4207,0.8983,
9.987664,-3.4445,-5.3308,0.1795,0.3114,1.4297,-1.4126,
9.994739,-3.4445,-5.3308,0.1795,0.3114,1.4297,-1.4126,
9.995009,-4.8999,-4.3229,-4.1032,0.3114,1.4297,-1.4126,
10.051603,-4.8999,-4.3229,-4.1032,-0.4913,0.9898,0.9560,
10.060442,-4.8999,-4.3229,-4.1032,-0.4913,0.9898,0.9560,
10.060865,-0.6745,-2.8388,2.2175,-0.4913,0.9898,0.9560,
10.116962,-0.6745,-2.8388,2.2175,-0.0643,1.9769,1.6878,
10.126067,-0.6745,-2.8388,2.2175,-0.0643,1.9769,1.6878,
10.126467,0.2039,-1.8441,4.8727,-0.0643,1.9769,1.6878,
10.183163,0.2039,-1.8441,4.8727,1.5716,-0.0258,2.4932,
10.192323,0.2039,-1.8441,4.8727,1.5716,-0.0258,2.4932,
10.193007,-0.5620,-0.9738,-0.2875,1.5716,-0.0258,2.4932,
10.247542,-0.5620,-0.9738,-0.2875,1.3830,-0.0953,1.0533,
10.256948,-0.5620,-0.9738,-0.2875,1.3830,-0.0953,1.0533,
10.257495,1.2260,10.5528,1.9603,1.3830,-0.0953,1.0533,
10.315714,1.2260,10.5528,1.9603,0.5930,-2.2775,-0.5693,
10.322426,1.2260,10.5528,1.9603,0.5930,-2.2775,-0.5693,
10.322798,-6.5982,0.9465,-2.0695,0.5930,-2.2775,-0.5693,
10.380420,-6.5982,0.9465,-2.0695,0.0359,-2.7205,-0.2463,
10.387412,-6.5982,0.9465,-2.0695,0.0359,-2.7205,-0.2463,
10.388030,-4.5293,-1.3052,-1.4107,0.0359,-2.7205,-0.2463,
10.443825,-4.5293,-1.3052,-1.4107,2.4306,1.2617,1.8789,
10.452733,-4.5293,-1.3052,-1.4107,2.4306,1.2617,1.8789,
10.453774,5.7552,-2.0471,7.4189,2.4306,1.2617,1.8789,
10.509936,5.7552,-2.0471,7.4189,-1.0591,1.0846,-0.3387,
10.518218,5.7552,-2.0471,7.4189,-1.0591,1.0846,-0.3387,
10.519596,4.6628,-3.9567,1.7879,-1.0591,1.0846,-0.3387,
10.575944,4.6628,-3.9567,1.7879,-2.1593,-0.1080,0.4505,
10.585249,4.6628,-3.9567,1.7879,-2.1593,-0.1080,0.4505,
10.586716,-3.3053,1.9982,-4.1528,-2.1593,-0.1080,0.4505,
10.640479,-3.3053,1.9982,-4.1528,-1.9739,4.6220,2.0925,
10.649587,-3.3053,1.9982,-4.1528,-1.9739,4.6220,2.0925,
10.650239,-1.7924,4.3909,-4.5973,-1.9739,4.6220,2.0925,
10.708764,-1.7924,4.3909,-4.5973,0.0867,3.7057,2.1399,
10.716418,-1.7924,4.3909,-4.5973,0.0867,3.7057,2.1399,
10.717501,-4.8633,-4.4603,1.6311,0.0867,3.7057,2.1399,
10.771772,-4.8633,-4.4603,1.6311,2.6470,1.1640,2.1965,
10.781089,-4.8633,-4.4603,1.6311,2.6470,1.1640,2.1965,
10.782025,-3.5322,-10.9535,1.3433,2.6470,1.1640,2.1965,
10.837431,-3.5322,-10.9535,1.3433,-1.8344,0.5101,3.3346,
10.846038,-3.5322,-10.9535,1.3433,-1.8344,0.5101,3.3346,
10.846931,2.0189,5.3142,8.8128,-1.8344,0.5101,3.3346,
10.903334,2.0189,5.3142,8.8128,6.0572,-4.5005,-4.1009,
10.911821,2.0189,5.3142,8.8128,6.0572,-4.5005,-4.1009,
10.912148,-1.2570,7.0717,-13.2840,6.0572,-4.5005,-4.1009,
10.969666,-1.2570,7.0717,-13.2840,1.3819,-1.5704,0.3257,
10.977895,-1.2570,7.0717,-13.2840,1.3819,-1.5704,0.3257,
10.978224,-6.2922,8.4133,-6.8301,1.3819,-1.5704,0.3257,
11.035442,-6.2922,8.4133,-6.8301,-0.5160,0.2954,1.0686,
11.043142,-6.2922,8.4133,-6.8301,-0.5160,0.2954,1.0686,
11.043443,-4.0686,0.8689,-1.8493,-0.5160,0.2954,1.0686,
11.100922,-4.0686,0.8689,-1.8493,-0.1907,-4.3871,-0.1718,
11.108128,-4.0686,0.8689,-1.8493,-0.1907,-4.3871,-0.1718,
11.108513,1.0632,-7.6986,12.5096,-0.1907,-4.3871,-0.1718,
11.165263,1.0632,-7.6986,12.5096,-1.0056,-0.6536,0.1755,
11.174007,1.0632,-7.6986,12.5096,-1.0056,-0.6536,0.1755,
11.174647,1.2582,-5.2169,1.0154,-1.0056,-0.6536,0.1755,
11.231344,1.2582,-5.2169,1.0154,-0.3186,3.1545,2.1588,
11.239083,1.2582,-5.2169,1.0154,-0.3186,3.1545,2.1588,
11.239958,4.9031,2.3095,1.1298,-0.3186,3.1545,2.1588,
11.296943,4.9031,2.3095,1.1298,-1.1892,1.7262,-0.8456,
11.305281,4.9031,2.3095,1.1298,-1.1892,1.7262,-0.8456,
11.305611,-0.8027,6.9558,-2.8681,-1.1892,1.7262,-0.8456,
11.362714,-0.8027,6.9558,-2.8681,1.9204,0.7935,-1.2876,
11.370645,-0.8027,6.9558,-2.8681,1.9204,0.7935,-1.2876,
11.371475,-7.8315,1.5234,-4.3793,1.9204,0.7935,-1.2876,
11.429095,-7.8315,1.5234,-4.3793,-2.2988,8.8395,-0.3487,
11.436526,-7.8315,1.5234,-4.3793,-2.2988,8.8395,-0.3487,
11.438495,-8.0731,0.2911,-2.2547,-2.2988,8.8395,-0.3487,
11.493107,-8.0731,0.2911,-2.2547,1.3474,-1.9972,-1.3431,
11.501710,-8.0731,0.2911,-2.2547,1.3474,-1.9972,-1.3431,
11.503040,-5.0464,0.8283,-0.2193,1.3474,-1.9972,-1.3431,
11.558154,-5.0464,0.8283,-0.2193,0.0041,-7.5428,1.4966,
11.566487,-5.0464,0.8283,-0.2193,0.0041,-7.5428,1.4966,
11.566803,-4.2631,4.2934,0.0217,0.0041,-7.5428,1.4966,
11.623377,-4.2631,4.2934,0.0217,1.4226,-5.3319,1.0905,
11.631753,-4.2631,4.2934,0.0217,1.4226,-5.3319,1.0905,
11.632470,1.1995,2.9979,-9.2893,1.4226,-5.3319,1.0905,
11.688999,1.1995,2.9979,-9.2893,-0.8954,1.3538,-1.3001,
11.696140,1.1995,2.9979,-9.2893,-0.8954,1.3538,-1.3001,
11.696771,-0.3574,-1.5404,-3.2021,-0.8954,1.3538,-1.3001,
11.754217,-0.3574,-1.5404,-3.2021,-2.5074,-4.1210,-0.6539,
11.761976,-0.3574,-1.5404,-3.2021,-2.5074,-4.1210,-0.6539,
11.762823,1.2556,-3.5168,3.4234,-2.5074,-4.1210,-0.6539,
11.819690,1.2556,-3.5168,3.4234,-0.2275,-1.4930,-1.0515,
11.828847,1.2556,-3.5168,3.4234,-0.2275,-1.4930,-1.0515,
11.829235,2.8342,-4.0308,4.6241,-0.2275,-1.4930,-1.0515,
11.886004,2.8342,-4.0308,4.6241,1.2196,1.4113,0.1084,
11.895443,2.8342,-4.0308,4.6241,1.2196,1.4113,0.1084,
11.896250,4.3716,-1.3539,5.2605,1.2196,1.4113,0.1084,
11.950359,4.3716,-1.3539,5.2605,0.9836,2.9409,0.6762,
11.960692,4.3716,-1.3539,5.2605,0.9836,2.9409,0.6762,
11.961974,1.3298,3.2790,0.8345,0.9836,2.9409,0.6762,
12.016873,1.3298,3.2790,0.8345,0.9168,2.5436,-0.6464,
12.025330,1.3298,3.2790,0.8345,0.9168,2.5436,-0.6464,
12.026201,-2.4923,5.7938,-2.1850,0.9168,2.5436,-0.6464,
12.083097,-2.4923,5.7938,-2.1850,-3.0148,2.0745,-0.2782,
12.091750,-2.4923,5.7938,-2.1850,-3.0148,2.0745,-0.2782,
12.092561,-6.1454,0.3551,-0.6208,-3.0148,2.0745,-0.2782,
12.148150,-6.1454,0.3551,-0.6208,-2.4798,-0.9100,0.5997,
12.156935,-6.1454,0.3551,-0.6208,-2.4798,-0.9100,0.5997,
12.158150,-4.8696,0.1154,0.5650,-2.4798,-0.9100,0.5997,
12.212061,-4.8696,0.1154,0.5650,1.2610,0.1805,0.4714,
12.222049,-4.8696,0.1154,0.5650,1.2610,0.1805,0.4714,
12.223163,-2.8682,-3.2007,-2.6117,1.2610,0.1805,0.4714,
12.279487,-2.8682,-3.2007,-2.6117,-3.0206,1.8547,0.3517,
12.288850,-2.8682,-3.2007,-2.6117,-3.0206,1.8547,0.3517,
12.290199,1.4306,5.2449,4.7217,-3.0206,1.8547,0.3517,
12.342740,1.4306,5.2449,4.7217,0.0950,-6.1670,-2.3596,
12.351762,1.4306,5.2449,4.7217,0.0950,-6.1670,-2.3596,
12.353057,-4.5342,1.3881,-1.0938,0.0950,-6.1670,-2.3596,
12.408502,-4.5342,1.3881,-1.0938,1.5357,4.2551,-0.7369,
12.418141,-4.5342,1.3881,-1.0938,1.5357,4.2551,-0.7369,
12.418710,-3.8259,1.0493,3.7611,1.5357,4.2551,-0.7369,
12.475556,-3.8259,1.0493,3.7611,2.5488,-1.0090,-0.0406,
12.482791,-3.8259,1.0493,3.7611,2.5488,-1.0090,-0.0406,
12.483266,6.3138,-0.5448,1.1708,2.5488,-1.0090,-0.0406,
12.539664,6.3138,-0.5448,1.1708,-0.6956,-0.3598,-0.1927,
12.550731,6.3138,-0.5448,1.1708,-0.6956,-0.3598,-0.1927,
12.552133,5.3391,-4.6953,1.5614,-0.6956,-0.3598,-0.1927,
12.606661,5.3391,-4.6953,1.5614,1.4890,4.5500,1.7633,
12.614026,5.3391,-4.6953,1.5614,1.4890,4.5500,1.7633,
12.614598,0.6938,1.2798,-1.1971,1.4890,4.5500,1.7633,
12.671856,0.6938,1.2798,-1.1971,2.6782,4.5001,1.1293,
12.680066,0.6938,1.2798,-1.1971,2.6782,4.5001,1.1293,
12.680509,1.3539,2.7164,-3.7055,2.6782,4.5001,1.1293,
12.737532,1.3539,2.7164,-3.7055,2.3911,2.5733,-0.2280,
12.745160,1.3539,2.7164,-3.7055,2.3911,2.5733,-0.2280,
12.745603,-2.7184,-5.2751,-6.2483,2.3911,2.5733,-0.2280,
12.802943,-2.7184,-5.2751,-6.2483,0.4820,8.1905,-2.4148,
12.811638,-2.7184,-5.2751,-6.2483,0.4820,8.1905,-2.4148,
12.813056,-3.6417,-4.1310,-6.0120,0.4820,8.1905,-2.4148,
12.867990,-3.6417,-4.1310,-6.0120,0.5707,-5.4127,0.0408,
12.876989,-3.6417,-4.1310,-6.0120,0.5707,-5.4127,0.0408,
12.878085,-5.5383,13.2857,-2.0203,0.5707,-5.4127,0.0408,
12.934345,-5.5383,13.2857,-2.0203,0.1388,-2.1006,1.7068,
12.941694,-5.5383,13.2857,-2.0203,0.1388,-2.1006,1.7068,
12.942301,-1.2727,2.5104,-1.5947,0.1388,-2.1006,1.7068,
12.999394,-1.2727,2.5104,-1.5947,-0.0811,-1.8807,-0.8262,
13.007532,-1.2727,2.5104,-1.5947,-0.0811,-1.8807,-0.8262,
13.008613,-2.8418,-1.5606,-1.0135,-0.0811,-1.8807,-0.8262,
13.065030,-2.8418,-1.5606,-1.0135,0.2640,-1.5531,0.3798,
13.072952,-2.8418,-1.5606,-1.0135,0.2640,-1.5531,0.3798,
13.074571,-0.4942,-3.0741,-3.5912,0.2640,-1.5531,0.3798,
13.129993,-0.4942,-3.0741,-3.5912,0.2833,1.1927,-0.6542,
13.138324,-0.4942,-3.0741,-3.5912,0.2833,1.1927,-0.6542,
13.139353,1.4747,-3.3798,3.5842,0.2833,1.1927,-0.6542,
13.195432,1.4747,-3.3798,3.5842,-1.1142,-2.7405,0.0348,
13.203471,1.4747,-3.3798,3.5842,-1.1142,-2.7405,0.0348,
13.204266,2.4745,-1.7232,4.1940,-1.1142,-2.7405,0.0348,
13.261776,2.4745,-1.7232,4.1940,-0.2031,3.2602,1.5962,
13.269507,2.4745,-1.7232,4.1940,-0.2031,3.2602,1.5962,
13.270562,3.8194,7.8981,-0.2823,-0.2031,3.2602,1.5962,
13.325885,3.8194,7.8981,-0.2823,1.8735,1.9765,0.0289,
13.335385,3.8194,7.8981,-0.2823,1.8735,1.9765,0.0289,
13.336482,-0.2622,2.2351,-2.5468,1.8735,1.9765,0.0289,
13.392351,-0.2622,2.2351,-2.5468,0.4076,1.5692,0.3659,
13.400365,-0.2622,2.2351,-2.5468,0.4076,1.5692,0.3659,
13.401804,-4.2877,2.7308,-4.4873,0.4076,1.5692,0.3659,
13.456766,-4.2877,2.7308,-4.4873,-1.3679,1.1107,0.4701,
13.465823,-4.2877,2.7308,-4.4873,-1.3679,1.1107,0.4701,
13.466349,-3.9330,-0.9192,-4.1528,-1.3679,1.1107,0.4701,
13.523121,-3.9330,-0.9192,-4.1528,-0.5531,2.3911,-0.5400,
13.531260,-3.9330,-0.9192,-4.1528,-0.5531,2.3911,-0.5400,
13.532627,-3.0769,-2.0386,-4.6054,-0.5531,2.3911,-0.5400,
13.589043,-3.0769,-2.0386,-4.6054,-0.6787,1.3518,0.1471,
13.595822,-3.0769,-2.0386,-4.6054,-0.6787,1.3518,0.1471,
13.596487,0.0353,0.0572,2.6848,-0.6787,1.3518,0.1471,
13.655035,0.0353,0.0572,2.6848,0.7147,0.4131,0.1825,
13.663153,0.0353,0.0572,2.6848,0.7147,0.4131,0.1825,
13.664647,-0.0536,-3.3803,1.6219,0.7147,0.4131,0.1825,
13.719975,-0.0536,-3.3803,1.6219,1.3309,-2.2779,-0.9047,
13.729009,-0.0536,-3.3803,1.6219,1.3309,-2.2779,-0.9047,
13.730782,-2.1837,7.2958,-3.1764,1.3309,-2.2779,-0.9047,
13.784841,-2.1837,7.2958,-3.1764,-0.1762,-1.6845,0.9461,
13.793062,-2.1837,7.2958,-3.1764,-0.1762,-1.6845,0.9461,
13.794108,-2.7006,3.5296,-4.7523,-0.1762,-1.6845,0.9461,
13.850688,-2.7006,3.5296,-4.7523,0.2123,-0.4647,0.5683,
13.858599,-2.7006,3.5296,-4.7523,0.2123,-0.4647,0.5683,
13.859256,1.5998,-0.7951,-2.8353,0.2123,-0.4647,0.5683,
13.915526,1.5998,-0.7951,-2.8353,1.0261,-0.7259,-0.4598,
13.923154,1.5998,-0.7951,-2.8353,1.0261,-0.7259,-0.4598,
13.924170,6.1403,-4.0944,4.5184,1.0261,-0.7259,-0.4598,
13.981252,6.1403,-4.0944,4.5184,-1.0327,1.3008,0.6718,
13.988672,6.1403,-4.0944,4.5184,-1.0327,1.3008,0.6718,
13.989065,1.1878,-1.2308,-0.8900,-1.0327,1.3008,0.6718,
14.045916,1.1878,-1.2308,-0.8900,-0.4436,3.3152,0.7373,
14.054150,1.1878,-1.2308,-0.8900,-0.4436,3.3152,0.7373,
14.054465,-0.0522,3.7651,-3.7105,-0.4436,3.3152,0.7373,
14.111678,-0.0522,3.7651,-3.7105,-1.8851,5.2519,-1.5302,
14.119435,-0.0522,3.7651,-3.7105,-1.8851,5.2519,-1.5302,
14.120292,-2.6845,5.5054,-10.9010,-1.8851,5.2519,-1.5302,
14.177720,-2.6845,5.5054,-10.9010,-2.0672,3.4280,0.9899,
14.185743,-2.6845,5.5054,-10.9010,-2.0672,3.4280,0.9899,
14.186774,-3.1442,-4.6124,2.2305,-2.0672,3.4280,0.9899,
14.243297,-3.1442,-4.6124,2.2305,4.3530,1.0131,2.3770,
14.251652,-3.1442,-4.6124,2.2305,4.3530,1.0131,2.3770,
14.252648,-6.9595,-13.6254,-1.7252,4.3530,1.0131,2.3770,
14.307196,-6.9595,-13.6254,-1.7252,-0.1176,-0.4078,-0.7508,
14.316510,-6.9595,-13.6254,-1.7252,-0.1176,-0.4078,-0.7508,
14.317564,-3.1007,14.7433,7.6000,-0.1176,-0.4078,-0.7508,
14.373095,-3.1007,14.7433,7.6000,0.1973,-6.5350,-0.1497,
14.382599,-3.1007,14.7433,7.6000,0.1973,-6.5350,-0.1497,
14.383610,-5.5114,4.1217,-7.6976,0.1973,-6.5350,-0.1497,
14.439373,-5.5114,4.1217,-7.6976,0.9791,-3.2483,0.6038,
14.447963,-5.5114,4.1217,-7.6976,0.9791,-3.2483,0.6038,
14.448612,-2.4366,3.4738,-7.2164,0.9791,-3.2483,0.6038,
14.504708,-2.4366,3.4738,-7.2164,0.2688,0.0070,0.3389,
14.512660,-2.4366,3.4738,-7.2164,0.2688,0.0070,0.3389,
14.514320,3.0694,-1.6642,-8.3689,0.2688,0.0070,0.3389,
14.572013,3.0694,-1.6642,-8.3689,-1.5447,-2.7061,-0.7214,
14.580080,3.0694,-1.6642,-8.3689,-1.5447,-2.7061,-0.7214,
14.581312,2.5965,-3.9561,1.1534,-1.5447,-2.7061,-0.7214,
14.636169,2.5965,-3.9561,1.1534,0.9817,-1.9881,-0.5382,
14.644916,2.5965,-3.9561,1.1534,0.9817,-1.9881,-0.5382,
14.646852,3.3385,-3.8404,3.1288,0.9817,-1.9881,-0.5382,
14.701785,3.3385,-3.8404,3.1288,0.7782,1.6664,0.7950,
14.709503,3.3385,-3.8404,3.1288,0.7782,1.6664,0.7950,
14.709953,5.2599,-2.5861,0.1784,0.7782,1.6664,0.7950,
14.769514,5.2599,-2.5861,0.1784,0.8233,8.6277,2.4824,
14.776359,5.2599,-2.5861,0.1784,0.8233,8.6277,2.4824,
14.777940,1.2425,3.0156,-3.7254,0.8233,8.6277,2.4824,
14.832629,1.2425,3.0156,-3.7254,2.4610,-0.8378,0.4134,
14.843644,1.2425,3.0156,-3.7254,2.4610,-0.8378,0.4134,
14.845721,0.8827,7.7324,-7.9501,2.4610,-0.8378,0.4134,
14.898455,0.8827,7.7324,-7.9501,-1.1849,1.1212,-0.6229,
14.907444,0.8827,7.7324,-7.9501,-1.1849,1.1212,-0.6229,
14.908118,-5.2606,-1.9545,-6.1083,-1.1849,1.1212,-0.6229,
14.964296,-5.2606,-1.9545,-6.1083,-0.6324,5.8642,-0.7563,
14.973094,-5.2606,-1.9545,-6.1083,-0.6324,5.8642,-0.7563,
14.973858,-3.7835,-0.4845,-0.9398,-0.6324,5.8642,-0.7563,
15.029473,-3.7835,-0.4845,-0.9398,4.1423,2.2842,-0.1674,
15.038338,-3.7835,-0.4845,-0.9398,4.1423,2.2842,-0.1674,
15.039401,-3.4033,1.6043,-1.7263,4.1423,2.2842,-0.1674,
15.095242,-3.4033,1.6043,-1.7263,-0.0686,-8.3278,2.0224,
15.102586,-3.4033,1.6043,-1.7263,-0.0686,-8.3278,2.0224,
15.103930,-4.0665,2.9787,-7.6966,-0.0686,-8.3278,2.0224,
15.159373,-4.0665,2.9787,-7.6966,-1.5624,-2.2831,1.5759,
15.168704,-4.0665,2.9787,-7.6966,-1.5624,-2.2831,1.5759,
15.170096,3.0957,0.3941,-10.2558,-1.5624,-2.2831,1.5759,
15.225846,3.0957,0.3941,-10.2558,-0.4733,-0.7291,-0.4837,
15.234392,3.0957,0.3941,-10.2558,-0.4733,-0.7291,-0.4837,
15.234858,3.3302,-1.8801,3.2185,-0.4733,-0.7291,-0.4837,
15.291046,3.3302,-1.8801,3.2185,-0.3131,-1.6503,-0.4200,
15.299963,3.3302,-1.8801,3.2185,-0.3131,-1.6503,-0.4200,
15.301893,2.5270,-1.7499,-0.0923,-0.3131,-1.6503,-0.4200,
15.356432,2.5270,-1.7499,-0.0923,1.0087,0.6402,-0.2219,
15.365205,2.5270,-1.7499,-0.0923,1.0087,0.6402,-0.2219,
15.365653,1.2303,-1.5753,0.6357,1.0087,0.6402,-0.2219,
15.422063,1.2303,-1.5753,0.6357,-0.3297,1.2848,0.2905,
15.429570,1.2303,-1.5753,0.6357,-0.3297,1.2848,0.2905,
15.430199,-0.0292,-1.0322,1.6608,-0.3297,1.2848,0.2905,
15.488820,-0.0292,-1.0322,1.6608,-2.6990,-0.1600,0.9734,
15.496240,-0.0292,-1.0322,1.6608,-2.6990,-0.1600,0.9734,
15.496688,-0.5180,3.4641,-1.5648,-2.6990,-0.1600,0.9734,
15.553406,-0.5180,3.4641,-1.5648,0.2482,3.2776,0.2245,
15.560638,-0.5180,3.4641,-1.5648,0.2482,3.2776,0.2245,
15.562208,1.6042,3.1853,-3.4981,0.2482,3.2776,0.2245,
15.617058,1.6042,3.1853,-3.4981,-1.1471,3.5218,-0.9682,
15.625765,1.6042,3.1853,-3.4981,-1.1471,3.5218,-0.9682,
15.626300,-0.8810,1.8940,-4.9540,-1.1471,3.5218,-0.9682,
15.683193,-0.8810,1.8940,-4.9540,-1.0933,0.9328,0.4979,
15.692579,-0.8810,1.8940,-4.9540,-1.0933,0.9328,0.4979,
15.694021,-1.2819,-1.2745,-0.5291,-1.0933,0.9328,0.4979,
15.748778,-1.2819,-1.2745,-0.5291,2.0201,0.1856,-0.0082,
15.757029,-1.2819,-1.2745,-0.5291,2.0201,0.1856,-0.0082,
15.758184,-4.2947,-2.8116,7.1576,2.0201,0.1856,-0.0082,
15.814473,-4.2947,-2.8116,7.1576,3.2019,-3.8081,-0.4780,
15.822369,-4.2947,-2.8116,7.1576,3.2019,-3.8081,-0.4780,
15.822658,-3.9625,1.5256,-1.6951,3.2019,-3.8081,-0.4780,
15.880331,-3.9625,1.5256,-1.6951,0.0733,-3.6786,1.0667,
15.889862,-3.9625,1.5256,-1.6951,0.0733,-3.6786,1.0667,
15.891077,-3.0775,3.6103,-6.3343,0.0733,-3.6786,1.0667,
15.946059,-3.0775,3.6103,-6.3343,0.6533,-3.6640,0.7359,
15.954934,-3.0775,3.6103,-6.3343,0.6533,-3.6640,0.7359,
15.955813,0.9910,0.9091,-7.3104,0.6533,-3.6640,0.7359,
16.012233,0.9910,0.9091,-7.3104,-0.0168,-0.2899,-0.4438,
16.019857,0.9910,0.9091,-7.3104,-0.0168,-0.2899,-0.4438,
16.021325,-0.0199,-0.5916,-4.5348,-0.0168,-0.2899,-0.4438,
16.077988,-0.0199,-0.5916,-4.5348,-1.5351,-3.0937,-0.0721,
16.086249,-0.0199,-0.5916,-4.5348,-1.5351,-3.0937,-0.0721,
16.087361,2.1283,-0.7635,4.0504,-1.5351,-3.0937,-0.0721,
16.142514,2.1283,-0.7635,4.0504,-3.6739,-1.1269,1.3972,
16.151518,2.1283,-0.7635,4.0504,-3.6739,-1.1269,1.3972,
16.152601,0.6579,1.0713,1.6451,-3.6739,-1.1269,1.3972,
16.209618,0.6579,1.0713,1.6451,0.1648,5.6080,-0.1953,
16.216329,0.6579,1.0713,1.6451,0.1648,5.6080,-0.1953,
16.217105,-0.4735,0.2210,-3.8163,0.1648,5.6080,-0.1953,
16.274000,-0.4735,0.2210,-3.8163,0.5577,0.8254,-2.0464,
16.281239,-0.4735,0.2210,-3.8163,0.5577,0.8254,-2.0464,
16.282244,-2.0597,-0.0952,-9.4799,0.5577,0.8254,-2.0464,
16.338679,-2.0597,-0.0952,-9.4799,-2.9885,3.7562,-0.1761,
16.347689,-2.0597,-0.0952,-9.4799,-2.9885,3.7562,-0.1761,
16.348768,-0.5161,3.8163,24.9324,-2.9885,3.7562,-0.1761,
16.403698,-0.5161,3.8163,24.9324,2.5116,-5.1510,-0.8363,
16.411920,-0.5161,3.8163,24.9324,2.5116,-5.1510,-0.8363,
16.412823,-5.4319,-2.8238,-5.6848,2.5116,-5.1510,-0.8363,
16.469585,-5.4319,-2.8238,-5.6848,1.9302,-0.1607,0.1956,
16.477802,-5.4319,-2.8238,-5.6848,1.9302,-0.1607,0.1956,
16.478709,-3.2481,3.2514,-4.3439,1.9302,-0.1607,0.1956,
16.534287,-3.2481,3.2514,-4.3439,0.2949,-2.2048,1.1752,
16.543538,-3.2481,3.2514,-4.3439,0.2949,-2.2048,1.1752,
16.544071,-0.3528,3.2783,-1.3189,0.2949,-2.2048,1.1752,
16.601203,-0.3528,3.2783,-1.3189,0.1287,-1.1406,0.4149,
16.610832,-0.3528,3.2783,-1.3189,0.1287,-1.1406,0.4149,
16.612872,2.0630,-1.1912,-2.0757,0.1287,-1.1406,0.4149,
16.666291,2.0630,-1.1912,-2.0757,0.9743,0.6515,-0.4843,
16.676325,2.0630,-1.1912,-2.0757,0.9743,0.6515,-0.4843,
16.679021,0.9152,-2.5821,0.6165,0.9743,0.6515,-0.4843,
16.731879,0.9152,-2.5821,0.6165,1.4398,0.5684,-0.0805,
16.740229,0.9152,-2.5821,0.6165,1.4398,0.5684,-0.0805,
16.741824,0.0193,-1.3851,2.2983,1.4398,0.5684,-0.0805,
16.797918,0.0193,-1.3851,2.2983,-0.5709,-1.4983,0.1497,
16.806751,0.0193,-1.3851,2.2983,-0.5709,-1.4983,0.1497,
16.807390,1.2775,-0.8430,1.4847,-0.5709,-1.4983,0.1497,
16.863834,1.2775,-0.8430,1.4847,-2.5307,0.1535,0.7330,
16.870661,1.2775,-0.8430,1.4847,-2.5307,0.1535,0.7330,
16.871717,2.1143,2.8274,-1.1727,-2.5307,0.1535,0.7330,
16.928558,2.1143,2.8274,-1.1727,-0.1976,1.3931,0.3045,
16.935712,2.1143,2.8274,-1.1727,-0.1976,1.3931,0.3045,
16.936138,-0.1099,4.4750,-2.2355,-0.1976,1.3931,0.3045,
16.991499,-0.1099,4.4750,-2.2355,-1.3838,2.2680,-0.1258,
16.999878,-0.1099,4.4750,-2.2355,-1.3838,2.2680,-0.1258,
17.000098,-2.6678,2.8598,-3.3466,-1.3838,2.2680,-0.1258,
17.057583,-2.6678,2.8598,-3.3466,-2.0537,0.4656,0.0223,
17.066356,-2.6678,2.8598,-3.3466,-2.0537,0.4656,0.0223,
17.066927,-2.0873,-0.4551,-2.0872,-2.0537,0.4656,0.0223,
17.123745,-2.0873,-0.4551,-2.0872,0.0690,1.1138,-0.1442,
17.132142,-2.0873,-0.4551,-2.0872,0.0690,1.1138,-0.1442,
17.132856,-2.2361,-1.0283,-5.4937,0.0690,1.1138,-0.1442,
17.188605,-2.2361,-1.0283,-5.4937,-0.2674,2.4261,0.1658,
17.197202,-2.2361,-1.0283,-5.4937,-0.2674,2.4261,0.1658,
17.198052,-1.5267,-0.4304,-0.8867,-0.2674,2.4261,0.1658,
17.254308,-1.5267,-0.4304,-0.8867,0.1139,0.8063,0.2149,
17.262666,-1.5267,-0.4304,-0.8867,0.1139,0.8063,0.2149,
17.264325,0.5833,-0.3271,2.8638,0.1139,0.8063,0.2149,
17.319453,0.5833,-0.3271,2.8638,1.4082,0.0681,-1.1909,
17.327371,0.5833,-0.3271,2.8638,1.4082,0.0681,-1.1909,
17.328223,-2.3320,3.2408,-3.8417,1.4082,0.0681,-1.1909,
17.385050,-2.3320,3.2408,-3.8417,1.8182,-2.8036,1.0214,
17.394718,-2.3320,3.2408,-3.8417,1.8182,-2.8036,1.0214,
17.395636,-1.4990,-0.7503,-3.6130,1.8182,-2.8036,1.0214,
17.450701,-1.4990,-0.7503,-3.6130,1.2763,-0.8178,0.6603,
17.459073,-1.4990,-0.7503,-3.6130,1.2763,-0.8178,0.6603,
17.460378,0.7788,1.0897,-4.0033,1.2763,-0.8178,0.6603,
17.516766,0.7788,1.0897,-4.0033,0.0593,-1.8373,0.4354,
17.525796,0.7788,1.0897,-4.0033,0.0593,-1.8373,0.4354,
17.526820,0.4159,0.4140,-0.0988,0.0593,-1.8373,0.4354,
17.582379,0.4159,0.4140,-0.0988,1.7213,-0.8076,0.0266,
17.590161,0.4159,0.4140,-0.0988,1.7213,-0.8076,0.0266,
17.590824,-0.5754,-0.6071,-1.8705,1.7213,-0.8076,0.0266,
17.647673,-0.5754,-0.6071,-1.8705,0.3923,-0.6822,0.0547,
17.656059,-0.5754,-0.6071,-1.8705,0.3923,-0.6822,0.0547,
17.656637,1.3827,0.1161,6.0586,0.3923,-0.6822,0.0547,
17.713006,1.3827,0.1161,6.0586,-2.6742,-0.2051,1.2139,
17.720796,1.3827,0.1161,6.0586,-2.6742,-0.2051,1.2139,
17.721890,2.0519,-1.2777,0.1292,-2.6742,-0.2051,1.2139,
17.778657,2.0519,-1.2777,0.1292,-1.3161,2.8236,-0.5812,
17.790257,2.0519,-1.2777,0.1292,-1.3161,2.8236,-0.5812,
17.791533,-2.2870,-3.3087,-4.4937,-1.3161,2.8236,-0.5812,
17.844356,-2.2870,-3.3087,-4.4937,0.7398,2.2147,-0.5693,
17.852265,-2.2870,-3.3087,-4.4937,0.7398,2.2147,-0.5693,
17.852999,-0.8095,6.9882,-10.1455,0.7398,2.2147,-0.5693,
17.910922,-0.8095,6.9882,-10.1455,-0.9103,1.4332,0.5139,
17.919743,-0.8095,6.9882,-10.1455,-0.9103,1.4332,0.5139,
17.920998,-1.1245,-2.2920,12.2821,-0.9103,1.4332,0.5139,
17.975984,-1.1245,-2.2920,12.2821,3.4993,-1.7400,-0.8267,
17.984388,-1.1245,-2.2920,12.2821,3.4993,-1.7400,-0.8267,
17.985678,-3.0319,-0.7401,-3.0977,3.4993,-1.7400,-0.8267,
18.040760,-3.0319,-0.7401,-3.0977,1.0776,-2.4370,0.6952,
18.048730,-3.0319,-0.7401,-3.0977,1.0776,-2.4370,0.6952,
18.049701,-2.5075,4.9508,-6.8083,1.0776,-2.4370,0.6952,
18.107533,-2.5075,4.9508,-6.8083,0.3057,-1.6403,0.8659,
18.114732,-2.5075,4.9508,-6.8083,0.3057,-1.6403,0.8659,
18.115318,0.2476,2.4608,-2.0233,0.3057,-1.6403,0.8659,
18.171782,0.2476,2.4608,-2.0233,0.2584,-2.5662,0.8073,
18.179524,0.2476,2.4608,-2.0233,0.2584,-2.5662,0.8073,
18.180003,3.0267,-2.2258,-3.4079,0.2584,-2.5662,0.8073,
18.237511,3.0267,-2.2258,-3.4079,-1.0910,-3.4755,-0.7660,
18.244687,3.0267,-2.2258,-3.4079,-1.0910,-3.4755,-0.7660,
18.246067,-2.0660,-4.9692,6.9145,-1.0910,-3.4755,-0.7660,
18.303457,-2.0660,-4.9692,6.9145,-1.2057,0.9074,-0.2127,
18.310975,-2.0660,-4.9692,6.9145,-1.2057,0.9074,-0.2127,
18.312370,-0.6500,-0.8922,1.2461,-1.2057,0.9074,-0.2127,
18.369744,-0.6500,-0.8922,1.2461,-1.9958,-0.1982,-0.3370,
18.375764,-0.6500,-0.8922,1.2461,-1.9958,-0.1982,-0.3370,
18.377105,1.7555,2.8211,-3.3539,-1.9958,-0.1982,-0.3370,
18.433080,1.7555,2.8211,-3.3539,-1.6565,-1.4331,0.5592,
18.443588,1.7555,2.8211,-3.3539,-1.6565,-1.4331,0.5592,
18.444890,3.3329,3.5090,-1.9987,-1.6565,-1.4331,0.5592,
18.497677,3.3329,3.5090,-1.9987,-0.5347,0.1935,0.5705,
18.506273,3.3329,3.5090,-1.9987,-0.5347,0.1935,0.5705,
18.507044,-1.2166,0.9532,-0.3847,-0.5347,0.1935,0.5705,
18.563622,-1.2166,0.9532,-0.3847,1.0456,1.7677,0.5510,
18.571469,-1.2166,0.9532,-0.3847,1.0456,1.7677,0.5510,
18.571936,-0.6811,-0.5829,-2.9731,1.0456,1.7677,0.5510,
18.629378,-0.6811,-0.5829,-2.9731,0.1636,1.1587,0.8279,
18.637618,-0.6811,-0.5829,-2.9731,0.1636,1.1587,0.8279,
18.637903,-0.6962,-0.6489,-2.0507,0.1636,1.1587,0.8279,
18.693918,-0.6962,-0.6489,-2.0507,0.9262,1.8436,0.8981,
18.703232,-0.6962,-0.6489,-2.0507,0.9262,1.8436,0.8981,
18.704125,-0.1851,-0.7222,-1.5259,0.9262,1.8436,0.8981,
18.759716,-0.1851,-0.7222,-1.5259,0.5893,2.6179,0.8764,
18.768191,-0.1851,-0.7222,-1.5259,0.5893,2.6179,0.8764,
18.768687,0.0759,0.1605,-2.1354,0.5893,2.6179,0.8764,
18.826375,0.0759,0.1605,-2.1354,0.7198,1.9206,0.9314,
18.834535,0.0759,0.1605,-2.1354,0.7198,1.9206,0.9314,
18.835155,1.2795,-1.2581,0.3355,0.7198,1.9206,0.9314,
18.891651,1.2795,-1.2581,0.3355,1.8894,2.5888,0.7653,
18.900052,1.2795,-1.2581,0.3355,1.8894,2.5888,0.7653,
18.900519,4.3141,-3.3155,1.1599,1.8894,2.5888,0.7653,
18.955875,4.3141,-3.3155,1.1599,3.1062,1.9503,-0.3418,
18.965364,4.3141,-3.3155,1.1599,3.1062,1.9503,-0.3418,
18.965992,2.1089,0.2163,-1.6022,3.1062,1.9503,-0.3418,
19.023872,2.1089,0.2163,-1.6022,1.2651,-1.4743,-2.0015,
19.032017,2.1089,0.2163,-1.6022,1.2651,-1.4743,-2.0015,
19.032752,-5.6717,4.1842,-9.6838,1.2651,-1.4743,-2.0015,
19.089031,-5.6717,4.1842,-9.6838,0.2030,-2.6017,0.9859,
19.097723,-5.6717,4.1842,-9.6838,0.2030,-2.6017,0.9859,
19.098312,-2.1570,3.0474,-7.7206,0.2030,-2.6017,0.9859,
19.154095,-2.1570,3.0474,-7.7206,-1.0476,2.0855,0.6263,
19.162221,-2.1570,3.0474,-7.7206,-1.0476,2.0855,0.6263,
19.163173,8.2123,5.4007,2.2910,-1.0476,2.0855,0.6263,
19.219915,8.2123,5.4007,2.2910,0.8438,1.0096,-0.7697,
19.228375,8.2123,5.4007,2.2910,0.8438,1.0096,-0.7697,
19.230009,6.4847,-4.2829,2.2187,0.8438,1.0096,-0.7697,
19.284313,6.4847,-4.2829,2.2187,2.5491,6.6114,-0.3286,
19.293583,6.4847,-4.2829,2.2187,2.5491,6.6114,-0.3286,
19.294222,0.6904,-8.3028,-1.6969,2.5491,6.6114,-0.3286,
19.351154,0.6904,-8.3028,-1.6969,0.5571,1.4699,0.0315,
19.360295,0.6904,-8.3028,-1.6969,0.5571,1.4699,0.0315,
19.361867,0.7923,-2.4660,-7.1222,0.5571,1.4699,0.0315,
19.415798,0.7923,-2.4660,-7.1222,-1.6567,-3.1482,3.0827,
19.424531,0.7923,-2.4660,-7.1222,-1.6567,-3.1482,3.0827,
19.425718,-2.0342,4.3693,-8.5347,-1.6567,-3.1482,3.0827,
19.481935,-2.0342,4.3693,-8.5347,-1.1240,6.8971,0.6927,
19.489230,-2.0342,4.3693,-8.5347,-1.1240,6.8971,0.6927,
19.489844,0.4050,-8.0549,11.9556,-1.1240,6.8971,0.6927,
19.545910,0.4050,-8.0549,11.9556,0.6130,-1.0330,0.7732,
19.554989,0.4050,-8.0549,11.9556,0.6130,-1.0330,0.7732,
19.555482,-2.7494,2.1680,2.5376,0.6130,-1.0330,0.7732,
19.613558,-2.7494,2.1680,2.5376,0.6819,-3.7283,2.1159,
19.620612,-2.7494,2.1680,2.5376,0.6819,-3.7283,2.1159,
19.621098,1.1481,3.3924,-3.8908,0.6819,-3.7283,2.1159,
19.677916,1.1481,3.3924,-3.8908,1.7031,-0.7398,-1.3676,
19.686421,1.1481,3.3924,-3.8908,1.7031,-0.7398,-1.3676,
19.687137,-3.1691,-1.1609,-5.0247,1.7031,-0.7398,-1.3676,
19.744430,-3.1691,-1.1609,-5.0247,0.3636,-0.8167,0.0643,
19.752480,-3.1691,-1.1609,-5.0247,0.3636,-0.8167,0.0643,
19.753257,-0.8572,1.9919,-4.7527,0.3636,-0.8167,0.0643,
19.808198,-0.8572,1.9919,-4.7527,-1.7483,-1.4876,0.1526,
19.816178,-0.8572,1.9919,-4.7527,-1.7483,-1.4876,0.1526,
19.817063,3.4002,-0.5728,-0.2090,-1.7483,-1.4876,0.1526,
19.873803,3.4002,-0.5728,-0.2090,0.0166,-2.3294,-0.9131,
19.881984,3.4002,-0.5728,-0.2090,0.0166,-2.3294,-0.9131,
19.882498,2.0931,-1.3308,1.3157,0.0166,-2.3294,-0.9131,
19.939714,2.0931,-1.3308,1.3157,0.2886,-0.3285,-1.0950,
19.948115,2.0931,-1.3308,1.3157,0.2886,-0.3285,-1.0950,
19.949322,3.3783,-0.0553,0.8412,0.2886,-0.3285,-1.0950,
20.005035,3.3783,-0.0553,0.8412,0.3676,0.2518,-1.3320,
20.013691,3.3783,-0.0553,0.8412,0.3676,0.2518,-1.3320,
20.014758,5.6872,-1.7164,0.2000,0.3676,0.2518,-1.3320,
20.070199,5.6872,-1.7164,0.2000,0.8546,2.0838,-0.6303,
20.077768,5.6872,-1.7164,0.2000,0.8546,2.0838,-0.6303,
20.078235,0.4421,-2.7534,-1.0742,0.8546,2.0838,-0.6303,
20.136616,0.4421,-2.7534,-1.0742,0.6045,0.1119,-0.1787,
20.143999,0.4421,-2.7534,-1.0742,0.6045,0.1119,-0.1787,
20.144945,-0.8750,3.4270,-4.9543,0.6045,0.1119,-0.1787,
20.201974,-0.8750,3.4270,-4.9543,-1.2446,-0.3680,-1.3734,
20.209406,-0.8750,3.4270,-4.9543,-1.2446,-0.3680,-1.3734,
20.210468,-4.9551,-2.2324,-4.4694,-1.2446,-0.3680,-1.3734,
20.266840,-4.9551,-2.2324,-4.4694,-2.2203,1.6050,0.0026,
20.275267,-4.9551,-2.2324,-4.4694,-2.2203,1.6050,0.0026,
20.275695,-1.6893,-3.6839,-2.1102,-2.2203,1.6050,0.0026,
20.332857,-1.6893,-3.6839,-2.1102,-2.6793,-0.2049,0.8934,
20.340611,-1.6893,-3.6839,-2.1102,-2.6793,-0.2049,0.8934,
20.341333,3.6607,0.8908,3.4003,-2.6793,-0.2049,0.8934,
20.398427,3.6607,0.8908,3.4003,-0.9116,1.8579,0.5748,
20.406933,3.6607,0.8908,3.4003,-0.9116,1.8579,0.5748,
20.407982,2.1777,0.0203,-1.8936,-0.9116,1.8579,0.5748,
20.464330,2.1777,0.0203,-1.8936,0.3038,3.3744,1.6356,
20.471745,2.1777,0.0203,-1.8936,0.3038,3.3744,1.6356,
20.472708,3.9888,-1.6928,0.7503,0.3038,3.3744,1.6356,
20.528968,3.9888,-1.6928,0.7503,1.7213,4.5326,1.1771,
20.537868,3.9888,-1.6928,0.7503,1.7213,4.5326,1.1771,
20.539206,1.3795,-3.3466,2.1607,1.7213,4.5326,1.1771,
20.594398,1.3795,-3.3466,2.1607,1.3297,1.9867,0.7573,
20.603168,1.3795,-3.3466,2.1607,1.3297,1.9867,0.7573,
20.604173,-0.1480,-2.4675,-0.1928,1.3297,1.9867,0.7573,
20.660383,-0.1480,-2.4675,-0.1928,1.4135,-3.9240,-0.4946,
20.668563,-0.1480,-2.4675,-0.1928,1.4135,-3.9240,-0.4946,
20.669090,-1.5441,5.9703,-6.3473,1.4135,-3.9240,-0.4946,
20.728201,-1.5441,5.9703,-6.3473,0.5710,-0.2526,0.3045,
20.734526,-1.5441,5.9703,-6.3473,0.5710,-0.2526,0.3045,
20.735569,-1.2738,3.7676,-4.8959,0.5710,-0.2526,0.3045,
20.790441,-1.2738,3.7676,-4.8959,0.1477,2.7280,0.8071,
20.799792,-1.2738,3.7676,-4.8959,0.1477,2.7280,0.8071,
20.800961,6.9013,-1.4199,11.1536,0.1477,2.7280,0.8071,
20.855930,6.9013,-1.4199,11.1536,-1.1997,-0.4325,1.6808,
20.867063,6.9013,-1.4199,11.1536,-1.1997,-0.4325,1.6808,
20.868060,4.1649,-2.6168,0.8523,-1.1997,-0.4325,1.6808,
20.923050,4.1649,-2.6168,0.8523,-2.1495,0.1866,-0.4517,
20.932127,4.1649,-2.6168,0.8523,-2.1495,0.1866,-0.4517,
20.932641,-1.1326,-5.0513,-3.1842,-2.1495,0.1866,-0.4517,
20.988443,-1.1326,-5.0513,-3.1842,-0.2543,1.8757,0.7344,
20.996209,-1.1326,-5.0513,-3.1842,-0.2543,1.8757,0.7344,
20.996690,-0.3526,2.7596,-7.5256,-0.2543,1.8757,0.7344,
21.052697,-0.3526,2.7596,-7.5256,-1.7512,2.6215,0.7198,
21.060042,-0.3526,2.7596,-7.5256,-1.7512,2.6215,0.7198,
21.060470,0.1976,-0.7612,1.8765,-1.7512,2.6215,0.7198,
21.117811,0.1976,-0.7612,1.8765,1.0583,2.6530,0.5728,
21.125521,0.1976,-0.7612,1.8765,1.0583,2.6530,0.5728,
21.126120,-0.9249,-7.0679,6.4863,1.0583,2.6530,0.5728,
21.184194,-0.9249,-7.0679,6.4863,-0.7683,1.4439,1.1558,
21.191065,-0.9249,-7.0679,6.4863,-0.7683,1.4439,1.1558,
21.191543,1.2860,9.0726,2.5474,-0.7683,1.4439,1.1558,
21.248900,1.2860,9.0726,2.5474,2.3335,-1.4682,-0.2920,
21.257206,1.2860,9.0726,2.5474,2.3335,-1.4682,-0.2920,
21.257628,1.2783,0.2099,-9.2078,2.3335,-1.4682,-0.2920,
21.314974,1.2783,0.2099,-9.2078,-0.6539,-0.6982,-0.6526,
21.322847,1.2783,0.2099,-9.2078,-0.6539,-0.6982,-0.6526,
21.323299,-0.9784,3.8211,-4.8491,-0.6539,-0.6982,-0.6526,
21.380954,-0.9784,3.8211,-4.8491,1.0023,-2.7877,0.3068,
21.388051,-0.9784,3.8211,-4.8491,1.0023,-2.7877,0.3068,
21.388354,2.2160,0.7940,3.6197,1.0023,-2.7877,0.3068,
21.444811,2.2160,0.7940,3.6197,1.0753,-2.9749,0.8522,
21.453876,2.2160,0.7940,3.6197,1.0753,-2.9749,0.8522,
21.454261,1.5004,-0.9429,-3.4441,1.0753,-2.9749,0.8522,
21.512132,1.5004,-0.9429,-3.4441,-0.1035,-0.9006,-0.2576,
21.519449,1.5004,-0.9429,-3.4441,-0.1035,-0.9006,-0.2576,
21.519825,2.5701,-1.7056,-1.6789,-0.1035,-0.9006,-0.2576,
21.577691,2.5701,-1.7056,-1.6789,0.1289,-1.4728,-0.5773,
21.585738,2.5701,-1.7056,-1.6789,0.1289,-1.4728,-0.5773,
21.586837,2.1987,-1.7871,0.3294,0.1289,-1.4728,-0.5773,
21.642563,2.1987,-1.7871,0.3294,0.7085,-1.4645,-0.4578,
21.649651,2.1987,-1.7871,0.3294,0.7085,-1.4645,-0.4578,
21.650328,1.7352,-0.8925,-0.5899,0.7085,-1.4645,-0.4578,
21.708028,1.7352,-0.8925,-0.5899,0.6142,-1.6666,-0.7346,
21.717000,1.7352,-0.8925,-0.5899,0.6142,-1.6666,-0.7346,
21.718352,3.1216,-0.2687,1.2748,0.6142,-1.6666,-0.7346,
21.773332,3.1216,-0.2687,1.2748,-1.5490,-1.9108,-0.5359,
21.781490,3.1216,-0.2687,1.2748,-1.5490,-1.9108,-0.5359,
21.782117,4.3395,-1.6160,-0.0061,-1.5490,-1.9108,-0.5359,
21.839678,4.3395,-1.6160,-0.0061,-2.9132,0.6153,0.1735,
21.848543,4.3395,-1.6160,-0.0061,-2.9132,0.6153,0.1735,
21.849828,-0.1823,-2.1284,-0.5251,-2.9132,0.6153,0.1735,
21.903988,-0.1823,-2.1284,-0.5251,-1.0139,-0.5443,1.5498,
21.912942,-0.1823,-2.1284,-0.5251,-1.0139,-0.5443,1.5498,
21.913953,1.5823,3.5057,-1.5073,-1.0139,-0.5443,1.5498,
21.968729,1.5823,3.5057,-1.5073,-1.7489,1.0560,0.9865,
21.977357,1.5823,3.5057,-1.5073,-1.7489,1.0560,0.9865,
21.978885,-0.4003,-1.6639,0.2359,-1.7489,1.0560,0.9865,
22.036661,-0.4003,-1.6639,0.2359,0.5596,1.2242,1.1987,
22.043787,-0.4003,-1.6639,0.2359,0.5596,1.2242,1.1987,
22.044822,-1.2079,-3.2045,-1.9071,0.5596,1.2242,1.1987,
22.100710,-1.2079,-3.2045,-1.9071,2.2419,3.3956,2.2593,
22.108139,-1.2079,-3.2045,-1.9071,2.2419,3.3956,2.2593,
22.108839,1.8400,-2.0827,-0.5637,2.2419,3.3956,2.2593,
22.167170,1.8400,-2.0827,-0.5637,3.1496,3.3240,1.0059,
22.174718,1.8400,-2.0827,-0.5637,3.1496,3.3240,1.0059,
22.175658,5.8386,1.0516,0.7574,3.1496,3.3240,1.0059,
22.231553,5.8386,1.0516,0.7574,4.4925,3.2356,-1.1243,
22.240454,5.8386,1.0516,0.7574,4.4925,3.2356,-1.1243,
22.241632,0.2796,2.7033,-2.7414,4.4925,3.2356,-1.1243,
22.298116,0.2796,2.7033,-2.7414,0.2729,-0.1356,-1.4632,
22.304610,0.2796,2.7033,-2.7414,0.2729,-0.1356,-1.4632,
22.305784,-5.2314,3.0070,-5.6724,0.2729,-0.1356,-1.4632,
22.363764,-5.2314,3.0070,-5.6724,-0.7798,-2.0591,0.0205,
22.371106,-5.2314,3.0070,-5.6724,-0.7798,-2.0591,0.0205,
22.372056,-3.4130,-4.4792,-1.3944,-0.7798,-2.0591,0.0205,
22.428004,-3.4130,-4.4792,-1.3944,-0.3395,-2.7310,1.8639,
22.436033,-3.4130,-4.4792,-1.3944,-0.3395,-2.7310,1.8639,
22.436772,-0.0193,0.8400,-1.1734,-0.3395,-2.7310,1.8639,
22.494157,-0.0193,0.8400,-1.1734,0.0165,-1.0050,0.3428,
22.502004,-0.0193,0.8400,-1.1734,0.0165,-1.0050,0.3428,
22.503113,7.4682,-1.0278,-2.6763,0.0165,-1.0050,0.3428,
22.560161,7.4682,-1.0278,-2.6763,0.5441,-3.8685,-0.4862,
22.566656,7.4682,-1.0278,-2.6763,0.5441,-3.8685,-0.4862,
22.567100,4.0031,-3.2128,3.8186,0.5441,-3.8685,-0.4862,
22.625386,4.0031,-3.2128,3.8186,-0.6639,0.8942,0.7225,
22.632090,4.0031,-3.2128,3.8186,-0.6639,0.8942,0.7225,
22.633068,1.8956,-2.2520,0.6688,-0.6639,0.8942,0.7225,
22.690652,1.8956,-2.2520,0.6688,-1.6829,1.7448,0.3966,
22.697725,1.8956,-2.2520,0.6688,-1.6829,1.7448,0.3966,
22.698161,-0.7262,-0.6106,-1.1483,-1.6829,1.7448,0.3966,
22.754811,-0.7262,-0.6106,-1.1483,-0.4458,1.7378,0.8485,
22.763493,-0.7262,-0.6106,-1.1483,-0.4458,1.7378,0.8485,
22.763959,1.4208,4.6999,-2.4226,-0.4458,1.7378,0.8485,
22.819687,1.4208,4.6999,-2.4226,-1.2310,2.3004,0.9105,
22.829426,1.4208,4.6999,-2.4226,-1.2310,2.3004,0.9105,
22.830393,-0.0131,-4.1307,0.0573,-1.2310,2.3004,0.9105,
22.886779,-0.0131,-4.1307,0.0573,1.8370,2.5962,-0.2375,
22.895307,-0.0131,-4.1307,0.0573,1.8370,2.5962,-0.2375,
22.896780,-0.7960,-4.0426,-1.7500,1.8370,2.5962,-0.2375,
22.952843,-0.7960,-4.0426,-1.7500,-0.1211,1.5707,-0.5805,
22.961923,-0.7960,-4.0426,-1.7500,-0.1211,1.5707,-0.5805,
22.963555,-2.7604,2.0192,8.9942,-0.1211,1.5707,-0.5805,
23.017370,-2.7604,2.0192,8.9942,1.7596,1.5174,1.0298,
23.025742,-2.7604,2.0192,8.9942,1.7596,1.5174,1.0298,
23.027585,2.7864,1.1837,-2.5851,1.7596,1.5174,1.0298,
23.083844,2.7864,1.1837,-2.5851,0.5815,-2.7254,0.2017,
23.092839,2.7864,1.1837,-2.5851,0.5815,-2.7254,0.2017,
23.094396,3.9819,0.3910,-9.2084,0.5815,-2.7254,0.2017,
23.148764,3.9819,0.3910,-9.2084,-1.2324,-3.5992,0.2308,
23.156972,3.9819,0.3910,-9.2084,-1.2324,-3.5992,0.2308,
23.158269,5.4769,1.0357,-0.1577,-1.2324,-3.5992,0.2308,
23.213847,5.4769,1.0357,-0.1577,0.2008,-1.0672,-1.0901,
23.222895,5.4769,1.0357,-0.1577,0.2008,-1.0672,-1.0901,
23.223547,-0.1367,-2.8762,2.6725,0.2008,-1.0672,-1.0901,
23.279896,-0.1367,-2.8762,2.6725,2.0498,1.5130,-0.6547,
23.287987,-0.1367,-2.8762,2.6725,2.0498,1.5130,-0.6547,
23.288978,-0.4345,-0.2378,-0.3312,2.0498,1.5130,-0.6547,
23.344230,-0.4345,-0.2378,-0.3312,1.5904,1.0240,-0.6306,
23.352981,-0.4345,-0.2378,-0.3312,1.5904,1.0240,-0.6306,
23.354103,1.9119,-2.2381,0.0766,1.5904,1.0240,-0.6306,
23.410836,1.9119,-2.2381,0.0766,0.6037,-2.5820,-0.3931,
23.419547,1.9119,-2.2381,0.0766,0.6037,-2.5820,-0.3931,
23.420129,7.2495,-1.3997,4.6649,0.6037,-2.5820,-0.3931,
23.476694,7.2495,-1.3997,4.6649,-2.3482,1.5681,0.6208,
23.483336,7.2495,-1.3997,4.6649,-2.3482,1.5681,0.6208,
23.483821,0.7236,-3.4429,-0.1558,-2.3482,1.5681,0.6208,
23.541097,0.7236,-3.4429,-0.1558,-1.4361,0.5692,1.3334,
23.550379,0.7236,-3.4429,-0.1558,-1.4361,0.5692,1.3334,
23.551272,1.2383,3.1767,-1.0145,-1.4361,0.5692,1.3334,
23.607833,1.2383,3.1767,-1.0145,-1.9053,1.4331,0.3427,
23.615341,1.2383,3.1767,-1.0145,-1.9053,1.4331,0.3427,
23.616493,-0.5598,0.5526,-2.6514,-1.9053,1.4331,0.3427,
23.672722,-0.5598,0.5526,-2.6514,0.0751,2.3726,1.0537,
23.680618,-0.5598,0.5526,-2.6514,0.0751,2.3726,1.0537,
23.682319,-0.5576,-3.4998,0.1679,0.0751,2.3726,1.0537,
23.736556,-0.5576,-3.4998,0.1679,1.2063,2.3805,0.1739,
23.745507,-0.5576,-3.4998,0.1679,1.2063,2.3805,0.1739,
23.746374,-1.2245,-0.8738,2.8934,1.2063,2.3805,0.1739,
23.802303,-1.2245,-0.8738,2.8934,0.5110,-1.6211,-0.2268,
23.811017,-1.2245,-0.8738,2.8934,0.5110,-1.6211,-0.2268,
23.812598,-0.9821,4.1701,-0.0481,0.5110,-1.6211,-0.2268,
23.870189,-0.9821,4.1701,-0.0481,1.0179,-1.6840,-0.9517,
23.877003,-0.9821,4.1701,-0.0481,1.0179,-1.6840,-0.9517,
23.879633,-1.2530,2.7573,-5.5891,1.0179,-1.6840,-0.9517,
23.934199,-1.2530,2.7573,-5.5891,-0.9226,-0.5379,0.3931,
23.944440,-1.2530,2.7573,-5.5891,-0.9226,-0.5379,0.3931,
23.946230,5.3072,0.0758,8.2265,-0.9226,-0.5379,0.3931,
24.000416,5.3072,0.0758,8.2265,-0.2430,1.6316,1.0217,
24.009642,5.3072,0.0758,8.2265,-0.2430,1.6316,1.0217,
24.011374,8.0836,-8.0234,1.9226,-0.2430,1.6316,1.0217,
24.065463,8.0836,-8.0234,1.9226,-0.6206,1.3234,1.9045,
24.072923,8.0836,-8.0234,1.9226,-0.6206,1.3234,1.9045,
24.074177,-2.9296,-5.0170,-2.3634,-0.6206,1.3234,1.9045,
24.132433,-2.9296,-5.0170,-2.3634,3.5894,6.3298,1.3335,
24.139897,-2.9296,-5.0170,-2.3634,3.5894,6.3298,1.3335,
24.140457,2.0141,1.5802,-1.3566,3.5894,6.3298,1.3335,
24.196893,2.0141,1.5802,-1.3566,-0.7637,1.5695,-0.9450,
24.205692,2.0141,1.5802,-1.3566,-0.7637,1.5695,-0.9450,
24.206890,-0.9105,4.6193,-5.1868,-0.7637,1.5695,-0.9450,
24.262119,-0.9105,4.6193,-5.1868,0.4074,-0.3158,0.2531,
24.270140,-0.9105,4.6193,-5.1868,0.4074,-0.3158,0.2531,
24.271127,-3.1855,-1.5662,0.9663,0.4074,-0.3158,0.2531,
24.328179,-3.1855,-1.5662,0.9663,1.5065,-2.4086,-0.9956,
24.334991,-3.1855,-1.5662,0.9663,1.5065,-2.4086,-0.9956,
24.336340,-2.1737,1.2251,-3.9664,1.5065,-2.4086,-0.9956,
24.393613,-2.1737,1.2251,-3.9664,0.7628,-2.8086,1.2043,
24.400851,-2.1737,1.2251,-3.9664,0.7628,-2.8086,1.2043,
24.401434,1.6031,2.5569,-3.8101,0.7628,-2.8086,1.2043,
24.458746,1.6031,2.5569,-3.8101,-0.8422,-1.6472,-0.1927,
24.466754,1.6031,2.5569,-3.8101,-0.8422,-1.6472,-0.1927,
24.467894,4.9309,-0.2183,-1.5292,-0.8422,-1.6472,-0.1927,
24.524314,4.9309,-0.2183,-1.5292,0.2625,-0.7378,-0.8546,
24.532519,4.9309,-0.2183,-1.5292,0.2625,-0.7378,-0.8546,
24.532956,1.4899,-2.2969,0.4417,0.2625,-0.7378,-0.8546,
24.590269,1.4899,-2.2969,0.4417,1.7685,2.4961,-0.3935,
24.597883,1.4899,-2.2969,0.4417,1.7685,2.4961,-0.3935,
24.598817,1.1341,-2.6915,0.1037,1.7685,2.4961,-0.3935,
24.652853,1.1341,-2.6915,0.1037,2.0113,-0.1637,-0.5224,
24.661333,1.1341,-2.6915,0.1037,2.0113,-0.1637,-0.5224,
24.662311,0.3750,-1.9859,-0.4867,2.0113,-0.1637,-0.5224,
24.718401,0.3750,-1.9859,-0.4867,0.4081,0.2700,-0.1275,
24.729479,0.3750,-1.9859,-0.4867,0.4081,0.2700,-0.1275,
24.730479,1.3429,0.3494,1.7477,0.4081,0.2700,-0.1275,
24.783804,1.3429,0.3494,1.7477,-0.3399,-1.1765,-0.5661,
24.793004,1.3429,0.3494,1.7477,-0.3399,-1.1765,-0.5661,
24.793996,1.1758,-0.4660,7.1542,-0.3399,-1.1765,-0.5661,
24.849628,1.1758,-0.4660,7.1542,-0.8964,0.6689,-0.2092,
24.858184,1.1758,-0.4660,7.1542,-0.8964,0.6689,-0.2092,
24.859888,5.4819,-0.6584,-1.6796,-0.8964,0.6689,-0.2092,
24.915777,5.4819,-0.6584,-1.6796,0.1678,0.1886,-0.2356,
24.924368,5.4819,-0.6584,-1.6796,0.1678,0.1886,-0.2356,
24.925886,2.6275,1.1831,-0.0976,0.1678,0.1886,-0.2356,
24.981358,2.6275,1.1831,-0.0976,1.3143,-2.2313,-0.6212,
24.989475,2.6275,1.1831,-0.0976,1.3143,-2.2313,-0.6212,
24.990438,-0.7501,2.9068,-4.4770,1.3143,-2.2313,-0.6212,
25.046117,-0.7501,2.9068,-4.4770,0.4352,3.8918,-1.0945,
25.054998,-0.7501,2.9068,-4.4770,0.4352,3.8918,-1.0945,
25.055990,-4.2344,-1.9339,-2.3557,0.4352,3.8918,-1.0945,
25.111430,-4.2344,-1.9339,-2.3557,-2.1909,4.6992,0.2610,
25.120669,-4.2344,-1.9339,-2.3557,-2.1909,4.6992,0.2610,
25.121474,0.2226,-2.7626,6.3167,-2.1909,4.6992,0.2610,
25.176540,0.2226,-2.7626,6.3167,-1.1971,0.7902,-0.2813,
25.185440,0.2226,-2.7626,6.3167,-1.1971,0.7902,-0.2813,
25.186188,-0.2120,0.2570,1.4475,-1.1971,0.7902,-0.2813,
25.242439,-0.2120,0.2570,1.4475,-1.3306,1.3645,0.4528,
25.250957,-0.2120,0.2570,1.4475,-1.3306,1.3645,0.4528,
25.251888,0.9774,-0.7300,-0.2440,-1.3306,1.3645,0.4528,
25.307699,0.9774,-0.7300,-0.2440,-1.1325,2.3769,0.5646,
25.317363,0.9774,-0.7300,-0.2440,-1.1325,2.3769,0.5646,
25.318390,1.7088,-1.1014,-1.0434,-1.1325,2.3769,0.5646,
25.373523,1.7088,-1.1014,-1.0434,-1.0278,3.0565,0.7104,
25.383502,1.7088,-1.1014,-1.0434,-1.0278,3.0565,0.7104,
25.384498,0.3281,-3.2493,1.2082,-1.0278,3.0565,0.7104,
25.439846,0.3281,-3.2493,1.2082,0.0278,1.5377,0.2808,
25.447903,0.3281,-3.2493,1.2082,0.0278,1.5377,0.2808,
25.448528,-3.3569,-3.8913,1.6893,0.0278,1.5377,0.2808,
25.505690,-3.3569,-3.8913,1.6893,1.3909,-1.2995,-0.9785,
25.513550,-3.3569,-3.8913,1.6893,1.3909,-1.2995,-0.9785,
25.514555,-3.2276,3.2733,-2.7110,1.3909,-1.2995,-0.9785,
25.571269,-3.2276,3.2733,-2.7110,1.4439,-6.6111,0.4007,
25.578669,-3.2276,3.2733,-2.7110,1.4439,-6.6111,0.4007,
25.579745,-2.0333,0.4473,-4.4763,1.4439,-6.6111,0.4007,
25.636477,-2.0333,0.4473,-4.4763,1.4922,-2.1538,0.2921,
25.643906,-2.0333,0.4473,-4.4763,1.4922,-2.1538,0.2921,
25.644880,1.0247,5.3730,-4.2144,1.4922,-2.1538,0.2921,
25.701731,1.0247,5.3730,-4.2144,-0.3109,-1.1787,2.3645,
25.709431,1.0247,5.3730,-4.2144,-0.3109,-1.1787,2.3645,
25.710729,4.3291,-0.1238,3.2537,-0.3109,-1.1787,2.3645,
25.767735,4.3291,-0.1238,3.2537,-0.5325,-1.0003,0.4678,
25.777267,4.3291,-0.1238,3.2537,-0.5325,-1.0003,0.4678,
25.778662,1.4387,-2.8660,1.2599,-0.5325,-1.0003,0.4678,
25.832315,1.4387,-2.8660,1.2599,-1.8838,3.1359,-0.5449,
25.842370,1.4387,-2.8660,1.2599,-1.8838,3.1359,-0.5449,
25.843841,-1.6337,-3.1594,-2.6490,-1.8838,3.1359,-0.5449,
25.900882,-1.6337,-3.1594,-2.6490,-1.8512,-0.3039,-0.3360,
25.910753,-1.6337,-3.1594,-2.6490,-1.8512,-0.3039,-0.3360,
25.912359,-1.8909,0.9542,-1.1440,-1.8512,-0.3039,-0.3360,
25.963905,-1.8909,0.9542,-1.1440,-0.6292,0.6109,1.6493,
25.972148,-1.8909,0.9542,-1.1440,-0.6292,0.6109,1.6493,
25.972816,0.8457,-4.6471,-0.3364,-0.6292,0.6109,1.6493,
26.029907,0.8457,-4.6471,-0.3364,1.1877,0.6556,0.0599,
26.037950,0.8457,-4.6471,-0.3364,1.1877,0.6556,0.0599,
26.039106,-1.3043,-1.8178,6.5103,1.1877,0.6556,0.0599,
26.094218,-1.3043,-1.8178,6.5103,1.3659,0.2248,0.5568,
26.104051,-1.3043,-1.8178,6.5103,1.3659,0.2248,0.5568,
26.105023,3.3617,2.3742,-0.1390,1.3659,0.2248,0.5568,
26.161367,3.3617,2.3742,-0.1390,2.8494,-1.8017,-1.4423,
26.168410,3.3617,2.3742,-0.1390,2.8494,-1.8017,-1.4423,
26.169817,-0.2761,0.4348,-5.0994,2.8494,-1.8017,-1.4423,
26.225213,-0.2761,0.4348,-5.0994,0.4203,-2.3966,0.2589,
26.232549,-0.2761,0.4348,-5.0994,0.4203,-2.3966,0.2589,
26.232965,0.6985,1.6704,-3.9089,0.4203,-2.3966,0.2589,
26.289668,0.6985,1.6704,-3.9089,-0.5869,-1.4328,-0.3308,
26.298376,0.6985,1.6704,-3.9089,-0.5869,-1.4328,-0.3308,
26.298892,2.6347,-1.4324,1.1996,-0.5869,-1.4328,-0.3308,
26.356817,2.6347,-1.4324,1.1996,1.5954,1.4766,-0.4299,
26.364338,2.6347,-1.4324,1.1996,1.5954,1.4766,-0.4299,
26.365039,-0.1222,-2.9904,0.8992,1.5954,1.4766,-0.4299,
26.421004,-0.1222,-2.9904,0.8992,1.8048,0.5851,-0.1906,
26.429215,-0.1222,-2.9904,0.8992,1.8048,0.5851,-0.1906,
26.429683,-0.0288,-1.3182,0.4209,1.8048,0.5851,-0.1906,
26.487382,-0.0288,-1.3182,0.4209,0.6240,-0.3236,-0.0702,
26.496028,-0.0288,-1.3182,0.4209,0.6240,-0.3236,-0.0702,
26.496713,0.6597,-0.9174,-1.1224,0.6240,-0.3236,-0.0702,
26.552667,0.6597,-0.9174,-1.1224,-0.3902,-2.5125,-0.1903,
26.560869,0.6597,-0.9174,-1.1224,-0.3902,-2.5125,-0.1903,
26.561552,3.5396,1.3389,3.8188,-0.3902,-2.5125,-0.1903,
26.618003,3.5396,1.3389,3.8188,-1.0837,-0.7074,-0.6367,
26.626195,3.5396,1.3389,3.8188,-1.0837,-0.7074,-0.6367,
26.627126,3.9168,0.5454,1.9764,-1.0837,-0.7074,-0.6367,
26.683953,3.9168,0.5454,1.9764,-0.8862,1.5531,0.0118,
26.692415,3.9168,0.5454,1.9764,-0.8862,1.5531,0.0118,
26.693989,1.5792,-0.3021,-0.0664,-0.8862,1.5531,0.0118,
26.749879,1.5792,-0.3021,-0.0664,-0.6191,0.4461,-0.3027,
26.758570,1.5792,-0.3021,-0.0664,-0.6191,0.4461,-0.3027,
26.760847,-0.4982,0.3322,-2.0189,-0.6191,0.4461,-0.3027,
26.815202,-0.4982,0.3322,-2.0189,-2.3535,1.9410,-0.0431,
26.823025,-0.4982,0.3322,-2.0189,-2.3535,1.9410,-0.0431,
26.824054,-0.5980,-1.3698,-0.2672,-2.3535,1.9410,-0.0431,
26.881486,-0.5980,-1.3698,-0.2672,-1.4940,-0.5785,-0.1889,
26.888718,-0.5980,-1.3698,-0.2672,-1.4940,-0.5785,-0.1889,
26.890089,-1.5377,-2.1192,2.2042,-1.4940,-0.5785,-0.1889,
26.947009,-1.5377,-2.1192,2.2042,0.9293,-0.3086,0.0677,
26.954566,-1.5377,-2.1192,2.2042,0.9293,-0.3086,0.0677,
26.955292,-0.6260,-2.1544,-0.0800,0.9293,-0.3086,0.0677,
27.011825,-0.6260,-2.1544,-0.0800,1.7164,-2.8182,-0.2760,
27.019538,-0.6260,-2.1544,-0.0800,1.7164,-2.8182,-0.2760,
27.020226,-1.3671,2.4908,-1.7805,1.7164,-2.8182,-0.2760,
27.075871,-1.3671,2.4908,-1.7805,0.4071,-0.1602,-0.4333,
27.085501,-1.3671,2.4908,-1.7805,0.4071,-0.1602,-0.4333,
27.086546,-0.7449,2.4819,-2.9762,0.4071,-0.1602,-0.4333,
27.143697,-0.7449,2.4819,-2.9762,0.1909,-0.5269,0.7004,
27.150977,-0.7449,2.4819,-2.9762,0.1909,-0.5269,0.7004,
27.152142,1.4205,-2.3518,0.0989,0.1909,-0.5269,0.7004,
27.207362,1.4205,-2.3518,0.0989,0.0817,-2.7217,-0.6474,
27.216773,1.4205,-2.3518,0.0989,0.0817,-2.7217,-0.6474,
27.218138,6.4415,0.2162,5.5782,0.0817,-2.7217,-0.6474,
27.273508,6.4415,0.2162,5.5782,-0.8253,2.8472,0.1883,
27.281411,6.4415,0.2162,5.5782,-0.8253,2.8472,0.1883,
27.282113,1.4895,0.6179,-0.6665,-0.8253,2.8472,0.1883,
27.338170,1.4895,0.6179,-0.6665,-0.9102,0.5143,-0.3279,
27.347881,1.4895,0.6179,-0.6665,-0.9102,0.5143,-0.3279,
27.348373,-0.3042,0.2253,-1.2431,-0.9102,0.5143,-0.3279,
27.402901,-0.3042,0.2253,-1.2431,0.4158,2.7397,0.5017,
27.411894,-0.3042,0.2253,-1.2431,0.4158,2.7397,0.5017,
27.414006,-0.6074,-3.5526,-3.2677,0.4158,2.7397,0.5017,
27.469601,-0.6074,-3.5526,-3.2677,-0.4381,2.3040,0.6296,
27.477443,-0.6074,-3.5526,-3.2677,-0.4381,2.3040,0.6296,
27.478855,0.2112,-0.4985,-2.4108,-0.4381,2.3040,0.6296,
27.535436,0.2112,-0.4985,-2.4108,-0.0945,1.6848,0.0568,
27.543494,0.2112,-0.4985,-2.4108,-0.0945,1.6848,0.0568,
27.544416,-3.2334,-3.6003,3.7441,-0.0945,1.6848,0.0568,
27.599884,-3.2334,-3.6003,3.7441,1.4255,1.5030,0.0602,
27.608275,-3.2334,-3.6003,3.7441,1.4255,1.5030,0.0602,
27.609268,-1.8142,-0.3898,3.2334,1.4255,1.5030,0.0602,
27.665849,-1.8142,-0.3898,3.2334,0.7356,-1.9916,0.1755,
27.673978,-1.8142,-0.3898,3.2334,0.7356,-1.9916,0.1755,
27.674833,0.3620,7.8948,0.3055,0.7356,-1.9916,0.1755,
27.731465,0.3620,7.8948,0.3055,0.6350,-0.4885,-1.4253,
27.739752,0.3620,7.8948,0.3055,0.6350,-0.4885,-1.4253,
27.740415,-0.3380,-2.2088,-3.5244,0.6350,-0.4885,-1.4253,
27.797422,-0.3380,-2.2088,-3.5244,-0.1333,-2.6009,1.0037,
27.805373,-0.3380,-2.2088,-3.5244,-0.1333,-2.6009,1.0037,
27.806115,2.7563,1.6458,4.5169,-0.1333,-2.6009,1.0037,
27.862694,2.7563,1.6458,4.5169,1.1884,-0.2002,1.0157,
27.870480,2.7563,1.6458,4.5169,1.1884,-0.2002,1.0157,
27.871460,8.0797,-3.4837,3.7507,1.1884,-0.2002,1.0157,
27.927352,8.0797,-3.4837,3.7507,-1.0576,2.8450,0.9042,
27.935440,8.0797,-3.4837,3.7507,-1.0576,2.8450,0.9042,
27.935940,0.5886,-3.6945,-0.9701,-1.0576,2.8450,0.9042,
27.992620,0.5886,-3.6945,-0.9701,-0.0591,2.9775,0.3273,
28.001625,0.5886,-3.6945,-0.9701,-0.0591,2.9775,0.3273,
28.002348,-1.1750,-2.6415,-3.2367,-0.0591,2.9775,0.3273,
28.058463,-1.1750,-2.6415,-3.2367,0.8346,1.4154,-0.5603,
28.067295,-1.1750,-2.6415,-3.2367,0.8346,1.4154,-0.5603,
28.067756,-2.6742,-1.7547,-8.5951,0.8346,1.4154,-0.5603,
28.123837,-2.6742,-1.7547,-8.5951,1.7622,6.2456,-1.0928,
28.132458,-2.6742,-1.7547,-8.5951,1.7622,6.2456,-1.0928,
28.133363,-10.9125,4.6382,13.7298,1.7622,6.2456,-1.0928,
28.189726,-10.9125,4.6382,13.7298,2.4807,-7.6120,2.0777,
28.198091,-10.9125,4.6382,13.7298,2.4807,-7.6120,2.0777,
28.199425,-0.9878,2.8819,-8.4513,2.4807,-7.6120,2.0777,
28.256063,-0.9878,2.8819,-8.4513,-1.6047,1.4540,1.3522,
28.263404,-0.9878,2.8819,-8.4513,-1.6047,1.4540,1.3522,
28.264714,6.7822,1.3141,-8.6902,-1.6047,1.4540,1.3522,
28.322582,6.7822,1.3141,-8.6902,-4.3665,-4.9320,0.4478,
28.330612,6.7822,1.3141,-8.6902,-4.3665,-4.9320,0.4478,
28.331662,-0.6381,-6.7597,-1.8881,-4.3665,-4.9320,0.4478,
28.386997,-0.6381,-6.7597,-1.8881,0.8427,2.4844,1.6907,
28.394741,-0.6381,-6.7597,-1.8881,0.8427,2.4844,1.6907,
28.395662,-2.8966,-4.9305,-0.4228,0.8427,2.4844,1.6907,
28.451454,-2.8966,-4.9305,-0.4228,2.1823,4.0844,-0.7230,
28.459732,-2.8966,-4.9305,-0.4228,2.1823,4.0844,-0.7230,
28.461355,-0.6440,-0.6768,-2.7780,2.1823,4.0844,-0.7230,
28.518699,-0.6440,-0.6768,-2.7780,-1.3358,-1.6854,0.5861,
28.525480,-0.6440,-0.6768,-2.7780,-1.3358,-1.6854,0.5861,
28.526575,0.0894,2.1894,2.1150,-1.3358,-1.6854,0.5861,
28.583343,0.0894,2.1894,2.1150,2.9920,-1.3161,-1.5963,
28.591380,0.0894,2.1894,2.1150,2.9920,-1.3161,-1.5963,
28.592692,-0.0752,1.6265,-5.1298,2.9920,-1.3161,-1.5963,
28.646797,-0.0752,1.6265,-5.1298,-0.2014,-0.5295,-0.7912,
28.657034,-0.0752,1.6265,-5.1298,-0.2014,-0.5295,-0.7912,
28.658031,0.9420,4.7888,2.3898,-0.2014,-0.5295,-0.7912,
28.712793,0.9420,4.7888,2.3898,0.8514,-3.3935,0.5218,
28.720769,0.9420,4.7888,2.3898,0.8514,-3.3935,0.5218,
28.721380,2.6947,-1.2286,-0.8947,0.8514,-3.3935,0.5218,
28.778833,2.6947,-1.2286,-0.8947,0.5452,-1.7318,-0.6988,
28.787405,2.6947,-1.2286,-0.8947,0.5452,-1.7318,-0.6988,
28.788040,3.9722,-4.5671,2.7366,0.5452,-1.7318,-0.6988,
28.844486,3.9722,-4.5671,2.7366,1.3514,0.2450,-0.5585,
28.852599,3.9722,-4.5671,2.7366,1.3514,0.2450,-0.5585,
28.853296,4.2447,-3.9414,1.5570,1.3514,0.2450,-0.5585,
28.909619,4.2447,-3.9414,1.5570,2.1880,2.3014,-0.4652,
28.917916,4.2447,-3.9414,1.5570,2.1880,2.3014,-0.4652,
28.918632,1.8498,-3.8734,1.2120,2.1880,2.3014,-0.4652,
28.974905,1.8498,-3.8734,1.2120,2.7483,3.9957,-0.6961,
28.984073,1.8498,-3.8734,1.2120,2.7483,3.9957,-0.6961,
28.984905,0.9739,2.2151,-2.4796,2.7483,3.9957,-0.6961,
29.041288,0.9739,2.2151,-2.4796,-0.3074,-3.0876,0.0328,
29.049752,0.9739,2.2151,-2.4796,-0.3074,-3.0876,0.0328,
29.050839,-0.8956,6.0518,-8.4514,-0.3074,-3.0876,0.0328,
29.106279,-0.8956,6.0518,-8.4514,-0.6271,1.4071,-1.9383,
29.114701,-0.8956,6.0518,-8.4514,-0.6271,1.4071,-1.9383,
29.115849,-6.1497,0.8173,-1.7106,-0.6271,1.4071,-1.9383,
29.172263,-6.1497,0.8173,-1.7106,-1.0021,7.0466,-0.5116,
29.180058,-6.1497,0.8173,-1.7106,-1.0021,7.0466,-0.5116,
29.181553,-2.1994,-3.5609,6.3045,-1.0021,7.0466,-0.5116,
29.237279,-2.1994,-3.5609,6.3045,-1.9983,-1.6787,-0.6865,
29.245915,-2.1994,-3.5609,6.3045,-1.9983,-1.6787,-0.6865,
29.247029,1.1490,-1.3884,2.3416,-1.9983,-1.6787,-0.6865,
29.302911,1.1490,-1.3884,2.3416,-3.4161,-2.2403,-0.5683,
29.310860,1.1490,-1.3884,2.3416,-3.4161,-2.2403,-0.5683,
29.311839,0.0074,-0.9818,-1.7477,-3.4161,-2.2403,-0.5683,
29.370024,0.0074,-0.9818,-1.7477,-2.0239,0.7089,-0.1344,
29.376708,0.0074,-0.9818,-1.7477,-2.0239,0.7089,-0.1344,
29.377546,1.6793,-1.7195,0.1228,-2.0239,0.7089,-0.1344,
29.433746,1.6793,-1.7195,0.1228,-0.8082,1.2521,1.1119,
29.442046,1.6793,-1.7195,0.1228,-0.8082,1.2521,1.1119,
29.443222,2.2758,-1.7511,-0.6678,-0.8082,1.2521,1.1119,
29.500794,2.2758,-1.7511,-0.6678,-0.1529,1.7063,1.2294,
29.509524,2.2758,-1.7511,-0.6678,-0.1529,1.7063,1.2294,
29.510993,0.8358,-0.2587,1.2856,-0.1529,1.7063,1.2294,
29.564974,0.8358,-0.2587,1.2856,0.6118,2.5218,1.6249,
29.578418,0.8358,-0.2587,1.2856,0.6118,2.5218,1.6249,
29.579769,0.5766,-0.0574,3.8002,0.6118,2.5218,1.6249,
29.634509,0.5766,-0.0574,3.8002,1.1040,0.9730,1.3474,
29.639202,0.5766,-0.0574,3.8002,1.1040,0.9730,1.3474,
29.640459,-2.5508,-4.8675,4.3163,1.1040,0.9730,1.3474,
29.696601,-2.5508,-4.8675,4.3163,-0.0823,-1.8781,1.2034,
29.703937,-2.5508,-4.8675,4.3163,-0.0823,-1.8781,1.2034,
29.706102,1.7451,7.7753,-3.6529,-0.0823,-1.8781,1.2034,
29.761768,1.7451,7.7753,-3.6529,0.4520,-2.0449,-1.4067,
29.769720,1.7451,7.7753,-3.6529,0.4520,-2.0449,-1.4067,
29.771033,-2.9916,1.4539,-3.2113,0.4520,-2.0449,-1.4067,
29.826915,-2.9916,1.4539,-3.2113,1.6293,0.1248,1.3080,
29.836239,-2.9916,1.4539,-3.2113,1.6293,0.1248,1.3080,
29.837622,0.0925,2.0646,-0.9665,1.6293,0.1248,1.3080,
29.892818,0.0925,2.0646,-0.9665,1.3401,-0.0990,0.0953,
29.900946,0.0925,2.0646,-0.9665,1.3401,-0.0990,0.0953,
29.902325,4.1611,-2.4746,-0.5149,1.3401,-0.0990,0.0953,
29.958942,4.1611,-2.4746,-0.5149,0.0431,0.5537,-0.4148,
29.966454,4.1611,-2.4746,-0.5149,0.0431,0.5537,-0.4148,
29.967781,-0.4110,-2.0159,1.7868,0.0431,0.5537,-0.4148,
30.023432,-0.4110,-2.0159,1.7868,-1.7106,-0.1660,-0.0713,
30.031468,-0.4110,-2.0159,1.7868,-1.7106,-0.1660,-0.0713,
30.032908,-0.6065,-1.9249,-2.0721,-1.7106,-0.1660,-0.0713,
30.089786,-0.6065,-1.9249,-2.0721,-0.0093,0.2005,0.4392,
30.097519,-0.6065,-1.9249,-2.0721,-0.0093,0.2005,0.4392,
30.098847,0.7993,1.4055,-1.8705,-0.0093,0.2005,0.4392,
30.154055,0.7993,1.4055,-1.8705,-1.0947,1.2286,1.4334,
30.162668,0.7993,1.4055,-1.8705,-1.0947,1.2286,1.4334,
30.164214,0.1867,-3.2820,2.2985,-1.0947,1.2286,1.4334,
30.220260,0.1867,-3.2820,2.2985,1.3728,3.2970,-0.2841,
30.227607,0.1867,-3.2820,2.2985,1.3728,3.2970,-0.2841,
30.228072,-1.2781,-5.3874,1.7563,1.3728,3.2970,-0.2841,
30.284310,-1.2781,-5.3874,1.7563,-0.7668,-0.5808,0.8233,
30.292629,-1.2781,-5.3874,1.7563,-0.7668,-0.5808,0.8233,
30.293793,-0.7644,-0.6609,4.1680,-0.7668,-0.5808,0.8233,
30.349712,-0.7644,-0.6609,4.1680,3.0284,-1.3769,-0.3325,
30.358019,-0.7644,-0.6609,4.1680,3.0284,-1.3769,-0.3325,
30.358962,4.6395,12.1045,-3.7321,3.0284,-1.3769,-0.3325,
30.416198,4.6395,12.1045,-3.7321,0.2850,0.2320,-0.9898,
30.422977,4.6395,12.1045,-3.7321,0.2850,0.2320,-0.9898,
30.423688,-3.6971,-0.9201,-4.1887,0.2850,0.2320,-0.9898,
30.480319,-3.6971,-0.9201,-4.1887,-0.3789,-1.3022,-0.4249,
30.489572,-3.6971,-0.9201,-4.1887,-0.3789,-1.3022,-0.4249,
30.490234,-3.3695,-4.9037,0.0183,-0.3789,-1.3022,-0.4249,
30.546219,-3.3695,-4.9037,0.0183,0.7871,-1.1600,0.9348,
30.554691,-3.3695,-4.9037,0.0183,0.7871,-1.1600,0.9348,
30.555654,-0.4307,0.6476,-1.2239,0.7871,-1.1600,0.9348,
30.611791,-0.4307,0.6476,-1.2239,0.4586,0.8680,0.2566,
30.620355,-0.4307,0.6476,-1.2239,0.4586,0.8680,0.2566,
30.621060,3.9165,-1.6497,2.7642,0.4586,0.8680,0.2566,
30.677590,3.9165,-1.6497,2.7642,0.6738,-1.1087,-0.2841,
30.686343,3.9165,-1.6497,2.7642,0.6738,-1.1087,-0.2841,
30.687843,1.9800,0.2349,-0.3176,0.6738,-1.1087,-0.2841,
30.744786,1.9800,0.2349,-0.3176,-0.0765,-0.1801,-0.3403,
30.751501,1.9800,0.2349,-0.3176,-0.0765,-0.1801,-0.3403,
30.752472,2.4803,-0.8610,3.0867,-0.0765,-0.1801,-0.3403,
30.808703,2.4803,-0.8610,3.0867,-0.3792,-0.1975,-0.4210,
30.816804,2.4803,-0.8610,3.0867,-0.3792,-0.1975,-0.4210,
30.817972,4.5806,-0.6550,3.0304,-0.3792,-0.1975,-0.4210,
30.875108,4.5806,-0.6550,3.0304,-0.1666,2.6027,0.4519,
30.883249,4.5806,-0.6550,3.0304,-0.1666,2.6027,0.4519,
30.884285,2.3035,1.5096,-0.3160,-0.1666,2.6027,0.4519,
30.941834,2.3035,1.5096,-0.3160,0.4511,0.7304,0.0644,
30.948518,2.3035,1.5096,-0.3160,0.4511,0.7304,0.0644,
30.951272,0.6485,2.5007,-2.0111,0.4511,0.7304,0.0644,
31.006914,0.6485,2.5007,-2.0111,0.2679,0.6733,-0.1371,
31.015633,0.6485,2.5007,-2.0111,0.2679,0.6733,-0.1371,
31.016904,-4.0440,0.6102,-3.9247,0.2679,0.6733,-0.1371,
31.071443,-4.0440,0.6102,-3.9247,-0.7869,2.5571,0.4265,
31.079862,-4.0440,0.6102,-3.9247,-0.7869,2.5571,0.4265,
31.081403,-4.2034,-0.7505,-4.0678,-0.7869,2.5571,0.4265,
31.138466,-4.2034,-0.7505,-4.0678,-4.3756,5.3074,0.3624,
31.144382,-4.2034,-0.7505,-4.0678,-4.3756,5.3074,0.3624,
31.145540,-0.2559,1.8494,5.8415,-4.3756,5.3074,0.3624,
31.201427,-0.2559,1.8494,5.8415,-2.8903,1.2740,1.3500,
31.209680,-0.2559,1.8494,5.8415,-2.8903,1.2740,1.3500,
31.210541,-0.8885,-0.6557,-1.6470,-2.8903,1.2740,1.3500,
31.267245,-0.8885,-0.6557,-1.6470,-1.1429,3.1690,1.2955,
31.276500,-0.8885,-0.6557,-1.6470,-1.1429,3.1690,1.2955,
31.278328,-0.1055,-3.9743,-0.9496,-1.1429,3.1690,1.2955,
31.332601,-0.1055,-3.9743,-0.9496,0.7711,1.6542,0.8552,
31.341037,-0.1055,-3.9743,-0.9496,0.7711,1.6542,0.8552,
31.342484,-4.6802,-5.4813,-2.2083,0.7711,1.6542,0.8552,
31.397704,-4.6802,-5.4813,-2.2083,2.0847,-0.4768,0.5915,
31.408227,-4.6802,-5.4813,-2.2083,2.0847,-0.4768,0.5915,
31.409258,-0.8708,-4.7644,-1.3230,2.0847,-0.4768,0.5915,
31.463597,-0.8708,-4.7644,-1.3230,3.1200,-0.6158,-0.2013,
31.473397,-0.8708,-4.7644,-1.3230,3.1200,-0.6158,-0.2013,
31.474094,-3.4110,-3.0380,-4.0672,3.1200,-0.6158,-0.2013,
31.529308,-3.4110,-3.0380,-4.0672,0.7103,-5.8035,-0.3228,
31.536962,-3.4110,-3.0380,-4.0672,0.7103,-5.8035,-0.3228,
31.537722,-3.7114,9.3524,0.6560,0.7103,-5.8035,-0.3228,
31.594638,-3.7114,9.3524,0.6560,1.6532,-1.1519,0.9168,
31.603493,-3.7114,9.3524,0.6560,1.6532,-1.1519,0.9168,
31.604178,-0.8637,-0.1705,-5.7853,1.6532,-1.1519,0.9168,
31.659622,-0.8637,-0.1705,-5.7853,0.4162,-1.7237,1.1486,
31.667655,-0.8637,-0.1705,-5.7853,0.4162,-1.7237,1.1486,
31.668383,6.3018,6.1638,-6.0439,0.4162,-1.7237,1.1486,
31.725094,6.3018,6.1638,-6.0439,-0.3983,-1.0803,-0.2071,
31.733483,6.3018,6.1638,-6.0439,-0.3983,-1.0803,-0.2071,
31.734106,1.1929,-1.6791,2.1644,-0.3983,-1.0803,-0.2071,
31.790866,1.1929,-1.6791,2.1644,1.2028,-0.9604,-0.2521,
31.799103,1.1929,-1.6791,2.1644,1.2028,-0.9604,-0.2521,
31.800315,0.0520,-4.5501,2.2652,1.2028,-0.9604,-0.2521,
31.855832,0.0520,-4.5501,2.2652,1.8954,0.1742,-0.2417,
31.864259,0.0520,-4.5501,2.2652,1.8954,0.1742,-0.2417,
31.865286,1.7552,-1.2183,5.3921,1.8954,0.1742,-0.2417,
31.921903,1.7552,-1.2183,5.3921,-0.1553,2.2940,-0.1605,
31.929935,1.7552,-1.2183,5.3921,-0.1553,2.2940,-0.1605,
31.930924,-1.1908,-1.5856,0.7437,-0.1553,2.2940,-0.1605,
31.986539,-1.1908,-1.5856,0.7437,-0.7333,1.4468,0.4207,
31.995332,-1.1908,-1.5856,0.7437,-0.7333,1.4468,0.4207,
31.996707,0.0929,4.7420,-3.0498,-0.7333,1.4468,0.4207,
32.052352,0.0929,4.7420,-3.0498,-4.4460,-1.0638,0.0217,
32.061234,0.0929,4.7420,-3.0498,-4.4460,-1.0638,0.0217,
32.061816,-0.8750,2.8317,-0.2412,-4.4460,-1.0638,0.0217,
32.118277,-0.8750,2.8317,-0.2412,-1.6797,0.0706,0.2573,
32.126606,-0.8750,2.8317,-0.2412,-1.6797,0.0706,0.2573,
32.127681,-2.8185,-3.4314,-2.0595,-1.6797,0.0706,0.2573,
32.183882,-2.8185,-3.4314,-2.0595,-0.1309,1.6779,1.8271,
32.192345,-2.8185,-3.4314,-2.0595,-0.1309,1.6779,1.8271,
32.193338,-0.4970,-0.8653,-3.0668,-0.1309,1.6779,1.8271,
32.249753,-0.4970,-0.8653,-3.0668,-1.7382,0.0767,0.6536,
32.257617,-0.4970,-0.8653,-3.0668,-1.7382,0.0767,0.6536,
32.258556,-2.1657,-3.3576,4.1518,-1.7382,0.0767,0.6536,
32.314274,-2.1657,-3.3576,4.1518,1.1910,0.6994,0.3199,
32.323207,-2.1657,-3.3576,4.1518,1.1910,0.6994,0.3199,
32.324596,1.1332,-3.0432,2.5088,1.1910,0.6994,0.3199,
32.380580,1.1332,-3.0432,2.5088,2.3477,0.1229,-0.8998,
32.388256,1.1332,-3.0432,2.5088,2.3477,0.1229,-0.8998,
32.389512,-1.7301,-4.2873,-1.0988,2.3477,0.1229,-0.8998,
32.445414,-1.7301,-4.2873,-1.0988,1.3121,-3.5294,-0.1617,
32.453069,-1.7301,-4.2873,-1.0988,1.3121,-3.5294,-0.1617,
32.453500,0.9468,6.5115,-3.4474,1.3121,-3.5294,-0.1617,
32.510506,0.9468,6.5115,-3.4474,1.6695,0.9591,-1.5786,
32.519024,0.9468,6.5115,-3.4474,1.6695,0.9591,-1.5786,
32.519274,-1.9033,2.0220,-3.9416,1.6695,0.9591,-1.5786,
32.576568,-1.9033,2.0220,-3.9416,-0.7931,-2.2863,-0.1458,
32.584567,-1.9033,2.0220,-3.9416,-0.7931,-2.2863,-0.1458,
32.584974,-0.9731,1.3316,-2.6682,-0.7931,-2.2863,-0.1458,
32.641213,-0.9731,1.3316,-2.6682,-0.6032,-1.7400,-0.0176,
32.650529,-0.9731,1.3316,-2.6682,-0.6032,-1.7400,-0.0176,
32.651219,3.6631,-2.2363,5.1152,-0.6032,-1.7400,-0.0176,
32.708026,3.6631,-2.2363,5.1152,-0.2740,-1.7539,-0.1506,
32.718233,3.6631,-2.2363,5.1152,-0.2740,-1.7539,-0.1506,
32.719204,0.9204,-1.1726,3.0240,-0.2740,-1.7539,-0.1506,
32.774473,0.9204,-1.1726,3.0240,-1.2949,3.1655,0.6816,
32.781700,0.9204,-1.1726,3.0240,-1.2949,3.1655,0.6816,
32.782776,-1.4400,-2.7626,-2.4338,-1.2949,3.1655,0.6816,
32.840194,-1.4400,-2.7626,-2.4338,-1.2877,-2.4341,0.9223,
32.846790,-1.4400,-2.7626,-2.4338,-1.2877,-2.4341,0.9223,
32.847786,0.1286,5.7739,-2.3823,-1.2877,-2.4341,0.9223,
32.905841,0.1286,5.7739,-2.3823,-1.0238,1.5443,1.9845,
32.912687,0.1286,5.7739,-2.3823,-1.0238,1.5443,1.9845,
32.913803,-0.0390,-3.4167,1.8659,-1.0238,1.5443,1.9845,
32.970502,-0.0390,-3.4167,1.8659,1.1611,3.2613,1.0492,
32.977869,-0.0390,-3.4167,1.8659,1.1611,3.2613,1.0492,
32.978869,-1.2817,-3.5484,-2.2336,1.1611,3.2613,1.0492,
33.035179,-1.2817,-3.5484,-2.2336,0.0808,2.6412,0.1872,
33.043811,-1.2817,-3.5484,-2.2336,0.0808,2.6412,0.1872,
33.045728,-3.8214,-1.1203,1.0787,0.0808,2.6412,0.1872,
33.102187,-3.8214,-1.1203,1.0787,1.0444,0.4798,0.1042,
33.108995,-3.8214,-1.1203,1.0787,1.0444,0.4798,0.1042,
33.109758,-2.4395,-3.8134,1.3565,1.0444,0.4798,0.1042,
33.166235,-2.4395,-3.8134,1.3565,0.0327,-3.0142,2.4902,
33.179091,-2.4395,-3.8134,1.3565,0.0327,-3.0142,2.4902,
33.180981,7.4542,10.8979,-2.4606,0.0327,-3.0142,2.4902,
33.234877,7.4542,10.8979,-2.4606,1.9546,2.1935,-2.7020,
33.241638,7.4542,10.8979,-2.4606,1.9546,2.1935,-2.7020,
33.242945,0.5380,-0.9821,-3.9514,1.9546,2.1935,-2.7020,
33.298588,0.5380,-0.9821,-3.9514,-0.0672,-2.7959,-1.3014,
33.309279,0.5380,-0.9821,-3.9514,-0.0672,-2.7959,-1.3014,
33.311178,-1.0913,3.3368,-2.4921,-0.0672,-2.7959,-1.3014,
33.365100,-1.0913,3.3368,-2.4921,1.4229,-0.7587,-0.1640,
33.370952,-1.0913,3.3368,-2.4921,1.4229,-0.7587,-0.1640,
33.371739,-0.0703,0.2884,-0.2588,1.4229,-0.7587,-0.1640,
33.428713,-0.0703,0.2884,-0.2588,0.7514,0.0840,-0.5577,
33.436569,-0.0703,0.2884,-0.2588,0.7514,0.0840,-0.5577,
33.437345,-0.6940,-1.9478,0.6958,0.7514,0.0840,-0.5577,
33.494372,-0.6940,-1.9478,0.6958,1.2601,-0.8076,-0.1307,
33.502133,-0.6940,-1.9478,0.6958,1.2601,-0.8076,-0.1307,
33.502716,-0.6780,-0.6034,-0.6239,1.2601,-0.8076,-0.1307,
33.559350,-0.6780,-0.6034,-0.6239,0.9953,0.1118,-0.1849,
33.567659,-0.6780,-0.6034,-0.6239,0.9953,0.1118,-0.1849,
33.568657,-0.3179,-1.2788,-1.3474,0.9953,0.1118,-0.1849,
33.624824,-0.3179,-1.2788,-1.3474,0.6967,-0.3038,-0.0985,
33.632506,-0.3179,-1.2788,-1.3474,0.6967,-0.3038,-0.0985,
33.633615,-0.4524,-1.3728,-0.7076,0.6967,-0.3038,-0.0985,
33.691441,-0.4524,-1.3728,-0.7076,0.2169,-0.4476,-0.2546,
33.699208,-0.4524,-1.3728,-0.7076,0.2169,-0.4476,-0.2546,
33.700236,0.7521,-0.7698,2.1196,0.2169,-0.4476,-0.2546,
33.755503,0.7521,-0.7698,2.1196,0.8459,-0.4337,-0.5160,
33.765023,0.7521,-0.7698,2.1196,0.8459,-0.4337,-0.5160,
33.766177,2.4625,-0.3784,2.9543,0.8459,-0.4337,-0.5160,
33.821200,2.4625,-0.3784,2.9543,1.2595,-0.8140,-0.8082,
33.828958,2.4625,-0.3784,2.9543,1.2595,-0.8140,-0.8082,
33.830168,1.8239,-1.0100,2.6523,1.2595,-0.8140,-0.8082,
33.887424,1.8239,-1.0100,2.6523,0.7075,-0.1866,-0.9064,
33.895170,1.8239,-1.0100,2.6523,0.7075,-0.1866,-0.9064,
33.896259,1.0792,-0.2521,1.9059,0.7075,-0.1866,-0.9064,
33.953675,1.0792,-0.2521,1.9059,-0.4873,3.8833,0.1223,
33.960711,1.0792,-0.2521,1.9059,-0.4873,3.8833,0.1223,
33.962024,2.1061,4.1931,-3.1118,-0.4873,3.8833,0.1223,
34.017604,2.1061,4.1931,-3.1118,-1.5762,-1.2158,-0.0498,
34.026409,2.1061,4.1931,-3.1118,-1.5762,-1.2158,-0.0498,
34.027300,1.1420,4.9130,-5.7535,-1.5762,-1.2158,-0.0498,
34.084140,1.1420,4.9130,-5.7535,-0.7680,0.2279,0.3622,
34.092310,1.1420,4.9130,-5.7535,-0.7680,0.2279,0.3622,
34.092934,-2.5024,-1.6262,-2.9876,-0.7680,0.2279,0.3622,
34.150149,-2.5024,-1.6262,-2.9876,-0.3436,2.8042,0.0434,
34.158730,-2.5024,-1.6262,-2.9876,-0.3436,2.8042,0.0434,
34.160678,-2.2624,-3.5809,-2.3717,-0.3436,2.8042,0.0434,
34.214085,-2.2624,-3.5809,-2.3717,-1.8286,1.8457,0.2870,
34.224404,-2.2624,-3.5809,-2.3717,-1.8286,1.8457,0.2870,
34.226197,-0.2778,-1.0734,3.5099,-1.8286,1.8457,0.2870,
34.278876,-0.2778,-1.0734,3.5099,0.3224,0.5114,1.7295,
34.287703,-0.2778,-1.0734,3.5099,0.3224,0.5114,1.7295,
34.288160,0.1092,-0.2870,-2.7010,0.3224,0.5114,1.7295,
34.345541,0.1092,-0.2870,-2.7010,-0.0626,2.1232,1.9868,
34.354435,0.1092,-0.2870,-2.7010,-0.0626,2.1232,1.9868,
34.355367,2.2658,0.0027,-0.5966,-0.0626,2.1232,1.9868,
34.410993,2.2658,0.0027,-0.5966,0.3178,2.8147,0.0423,
34.419562,2.2658,0.0027,-0.5966,0.3178,2.8147,0.0423,
34.420297,-0.8979,-1.2825,-0.2994,0.3178,2.8147,0.0423,
34.476799,-0.8979,-1.2825,-0.2994,0.2213,0.8508,-1.7170,
34.486046,-0.8979,-1.2825,-0.2994,0.2213,0.8508,-1.7170,
34.487006,-5.2279,-2.2451,-2.1983,0.2213,0.8508,-1.7170,
34.544129,-5.2279,-2.2451,-2.1983,-1.4109,-1.6434,1.8495,
34.551701,-5.2279,-2.2451,-2.1983,-1.4109,-1.6434,1.8495,
34.552680,-0.1505,-3.6087,3.4115,-1.4109,-1.6434,1.8495,
34.609063,-0.1505,-3.6087,3.4115,0.6199,-1.7856,2.5197,
34.616447,-0.1505,-3.6087,3.4115,0.6199,-1.7856,2.5197,
34.616972,3.4122,7.7287,-0.6392,0.6199,-1.7856,2.5197,
34.675669,3.4122,7.7287,-0.6392,1.6243,0.4644,-1.8906,
34.682940,3.4122,7.7287,-0.6392,1.6243,0.4644,-1.8906,
34.684053,0.2425,3.5450,-4.5262,1.6243,0.4644,-1.8906,
34.737977,0.2425,3.5450,-4.5262,0.2424,-1.3054,-0.9746,
34.747965,0.2425,3.5450,-4.5262,0.2424,-1.3054,-0.9746,
34.749956,0.0257,3.5186,-2.9913,0.2424,-1.3054,-0.9746,
34.803878,0.0257,3.5186,-2.9913,0.0654,-0.4885,-1.1926,
34.812884,0.0257,3.5186,-2.9913,0.0654,-0.4885,-1.1926,
34.814162,1.4797,0.8178,1.3281,0.0654,-0.4885,-1.1926,
34.870361,1.4797,0.8178,1.3281,1.2905,1.2052,-1.1579,
34.877834,1.4797,0.8178,1.3281,1.2905,1.2052,-1.1579,
34.878408,0.9813,-2.7460,0.5609,1.2905,1.2052,-1.1579,
34.935331,0.9813,-2.7460,0.5609,1.5525,1.2854,-0.7430,
34.944451,0.9813,-2.7460,0.5609,1.5525,1.2854,-0.7430,
34.945672,0.2450,-4.8739,0.0704,1.5525,1.2854,-0.7430,
34.999551,0.2450,-4.8739,0.0704,1.7501,0.8648,-0.2647,
35.008541,0.2450,-4.8739,0.0704,1.7501,0.8648,-0.2647,
35.009889,0.5661,-3.3047,0.5162,1.7501,0.8648,-0.2647,
35.065819,0.5661,-3.3047,0.5162,0.9343,-0.2378,-0.4523,
35.074948,0.5661,-3.3047,0.5162,0.9343,-0.2378,-0.4523,
35.076617,0.5091,-1.3675,0.2308,0.9343,-0.2378,-0.4523,
35.130251,0.5091,-1.3675,0.2308,0.4235,0.3161,-0.2677,
35.139291,0.5091,-1.3675,0.2308,0.4235,0.3161,-0.2677,
35.140365,2.6185,3.9848,-1.4610,0.4235,0.3161,-0.2677,
35.195425,2.6185,3.9848,-1.4610,1.1025,-2.6670,-0.5321,
35.204617,2.6185,3.9848,-1.4610,1.1025,-2.6670,-0.5321,
35.205859,-0.6760,5.5757,-4.3233,1.1025,-2.6670,-0.5321,
35.261630,-0.6760,5.5757,-4.3233,0.5921,1.8381,-1.0936,
35.269713,-0.6760,5.5757,-4.3233,0.5921,1.8381,-1.0936,
35.270904,-5.9783,2.0173,-3.4215,0.5921,1.8381,-1.0936,
35.328102,-5.9783,2.0173,-3.4215,-0.6464,2.2468,-0.6130,
35.335078,-5.9783,2.0173,-3.4215,-0.6464,2.2468,-0.6130,
35.335590,-3.2569,-1.9459,-1.3222,-0.6464,2.2468,-0.6130,
35.393984,-3.2569,-1.9459,-1.3222,-1.5618,0.8566,-0.3071,
35.401353,-3.2569,-1.9459,-1.3222,-1.5618,0.8566,-0.3071,
35.401828,1.0432,-2.4259,6.1862,-1.5618,0.8566,-0.3071,
35.458588,1.0432,-2.4259,6.1862,-1.4616,-1.1579,0.1790,
35.466283,1.0432,-2.4259,6.1862,-1.4616,-1.1579,0.1790,
35.466765,-0.0635,0.0782,-2.1405,-1.4616,-1.1579,0.1790,
35.524724,-0.0635,0.0782,-2.1405,-1.6906,1.1666,0.4756,
35.531739,-0.0635,0.0782,-2.1405,-1.6906,1.1666,0.4756,
35.532637,-0.1880,-0.3466,-1.0270,-1.6906,1.1666,0.4756,
35.589528,-0.1880,-0.3466,-1.0270,-1.5611,0.4937,0.6051,
35.597715,-0.1880,-0.3466,-1.0270,-1.5611,0.4937,0.6051,
35.598252,-0.5047,-1.1409,0.8696,-1.5611,0.4937,0.6051,
35.654812,-0.5047,-1.1409,0.8696,-0.4044,0.9476,0.8923,
35.663377,-0.5047,-1.1409,0.8696,-0.4044,0.9476,0.8923,
35.664365,-0.1740,-1.2657,-1.6346,-0.4044,0.9476,0.8923,
35.720958,-0.1740,-1.2657,-1.6346,-0.5860,1.8592,0.6765,
35.729932,-0.1740,-1.2657,-1.6346,-0.5860,1.8592,0.6765,
35.731057,0.2328,-0.3990,0.0969,-0.5860,1.8592,0.6765,
35.785923,0.2328,-0.3990,0.0969,-0.2265,1.1322,0.6481,
35.793849,0.2328,-0.3990,0.0969,-0.2265,1.1322,0.6481,
35.794929,-1.3478,2.0443,1.6260,-0.2265,1.1322,0.6481,
35.851269,-1.3478,2.0443,1.6260,-0.1374,-0.6796,-0.0024,
35.859980,-1.3478,2.0443,1.6260,-0.1374,-0.6796,-0.0024,
35.861012,-3.2893,-3.6289,2.1341,-0.1374,-0.6796,-0.0024,
35.915829,-3.2893,-3.6289,2.1341,3.0988,-1.9652,0.3845,
35.924266,-3.2893,-3.6289,2.1341,3.0988,-1.9652,0.3845,
35.925189,-1.1279,-0.3945,-1.8025,3.0988,-1.9652,0.3845,
35.981891,-1.1279,-0.3945,-1.8025,-0.4215,-0.7155,0.2911,
35.990543,-1.1279,-0.3945,-1.8025,-0.4215,-0.7155,0.2911,
35.991859,2.9288,2.8465,-5.8215,-0.4215,-0.7155,0.2911,
36.046679,2.9288,2.8465,-5.8215,0.6981,0.9391,0.1658,
36.056842,2.9288,2.8465,-5.8215,0.6981,0.9391,0.1658,
36.058240,0.3893,-2.1849,-1.8133,0.6981,0.9391,0.1658,
36.112591,0.3893,-2.1849,-1.8133,2.3414,0.7863,-0.0060,
36.121085,0.3893,-2.1849,-1.8133,2.3414,0.7863,-0.0060,
36.122477,1.4817,-1.3486,-1.4887,2.3414,0.7863,-0.0060,
36.178301,1.4817,-1.3486,-1.4887,1.5988,0.5176,-0.3224,
36.187337,1.4817,-1.3486,-1.4887,1.5988,0.5176,-0.3224,
36.188426,-1.2383,-0.6386,0.0579,1.5988,0.5176,-0.3224,
36.243584,-1.2383,-0.6386,0.0579,0.6605,-0.6437,-0.1984,
36.251036,-1.2383,-0.6386,0.0579,0.6605,-0.6437,-0.1984,
36.251565,0.9833,0.3810,1.5466,0.6605,-0.6437,-0.1984,
36.308780,0.9833,0.3810,1.5466,0.4085,-1.8401,-0.6822,
36.317272,0.9833,0.3810,1.5466,0.4085,-1.8401,-0.6822,
36.317850,3.9036,0.3393,2.8440,0.4085,-1.8401,-0.6822,
36.373361,3.9036,0.3393,2.8440,0.1721,2.8103,0.4508,
36.382718,3.9036,0.3393,2.8440,0.1721,2.8103,0.4508,
36.383544,4.4719,5.1875,-1.9278,0.1721,2.8103,0.4508,
36.440724,4.4719,5.1875,-1.9278,0.2298,-0.7062,-0.3677,
36.447750,4.4719,5.1875,-1.9278,0.2298,-0.7062,-0.3677,
36.448719,-0.0617,-0.6221,-1.0933,0.2298,-0.7062,-0.3677,
36.507077,-0.0617,-0.6221,-1.0933,-0.7085,-0.6968,-0.5696,
36.515214,-0.0617,-0.6221,-1.0933,-0.7085,-0.6968,-0.5696,
36.515558,-6.8148,-2.2551,-4.2365,-0.7085,-0.6968,-0.5696,
36.571007,-6.8148,-2.2551,-4.2365,-2.1391,2.7559,0.8392,
36.579943,-6.8148,-2.2551,-4.2365,-2.1391,2.7559,0.8392,
36.580285,-3.3567,-2.0553,-3.6956,-2.1391,2.7559,0.8392,
36.636988,-3.3567,-2.0553,-3.6956,-4.7945,2.6973,0.2648,
36.644770,-3.3567,-2.0553,-3.6956,-4.7945,2.6973,0.2648,
36.645088,1.6254,0.1112,5.8939,-4.7945,2.6973,0.2648,
36.701975,1.6254,0.1112,5.8939,-1.5759,-0.7876,1.3190,
36.710343,1.6254,0.1112,5.8939,-1.5759,-0.7876,1.3190,
36.711225,1.1731,-0.7213,-1.2508,-1.5759,-0.7876,1.3190,
36.768634,1.1731,-0.7213,-1.2508,0.1706,1.9325,-0.0922,
36.777462,1.1731,-0.7213,-1.2508,0.1706,1.9325,-0.0922,
36.778399,-1.4310,-6.7229,-3.1293,0.1706,1.9325,-0.0922,
36.832919,-1.4310,-6.7229,-3.1293,-0.6603,-3.6511,1.1089,
36.841299,-1.4310,-6.7229,-3.1293,-0.6603,-3.6511,1.1089,
36.841803,-1.8056,7.4736,11.6981,-0.6603,-3.6511,1.1089,
36.899563,-1.8056,7.4736,11.6981,3.3318,-1.0246,0.2602,
36.907631,-1.8056,7.4736,11.6981,3.3318,-1.0246,0.2602,
36.908606,2.4166,3.0044,-8.6569,3.3318,-1.0246,0.2602,
36.965585,2.4166,3.0044,-8.6569,1.5962,-0.4068,-1.0405,
36.974002,2.4166,3.0044,-8.6569,1.5962,-0.4068,-1.0405,
36.975017,-3.6738,3.9199,-4.8795,1.5962,-0.4068,-1.0405,
37.031040,-3.6738,3.9199,-4.8795,-0.1171,0.6695,0.5453,
37.038889,-3.6738,3.9199,-4.8795,-0.1171,0.6695,0.5453,
37.039230,-1.7097,0.4628,-1.6838,-0.1171,0.6695,0.5453,
37.095820,-1.7097,0.4628,-1.6838,0.4667,-1.8479,-0.4366,
37.104816,-1.7097,0.4628,-1.6838,0.4667,-1.8479,-0.4366,
37.105243,-1.6057,-0.8333,3.0703,0.4667,-1.8479,-0.4366,
37.159139,-1.6057,-0.8333,3.0703,0.8491,-0.6481,-0.1723,
37.169532,-1.6057,-0.8333,3.0703,0.8491,-0.6481,-0.1723,
37.169877,-0.3606,-1.6972,-3.1906,0.8491,-0.6481,-0.1723,
37.224860,-0.3606,-1.6972,-3.1906,0.0368,0.1381,-0.2952,
37.233608,-0.3606,-1.6972,-3.1906,0.0368,0.1381,-0.2952,
37.233942,0.8188,-2.5973,1.5610,0.0368,0.1381,-0.2952,
37.291314,0.8188,-2.5973,1.5610,-0.2781,-1.1565,-0.4039,
37.300126,0.8188,-2.5973,1.5610,-0.2781,-1.1565,-0.4039,
37.300442,1.2461,-1.5141,-0.0086,-0.2781,-1.1565,-0.4039,
37.358329,1.2461,-1.5141,-0.0086,0.2923,-1.7953,-0.5707,
37.365443,1.2461,-1.5141,-0.0086,0.2923,-1.7953,-0.5707,
37.366164,2.4149,-0.5962,2.5633,0.2923,-1.7953,-0.5707,
37.423372,2.4149,-0.5962,2.5633,0.1797,0.9557,0.0206,
37.433419,2.4149,-0.5962,2.5633,0.1797,0.9557,0.0206,
37.434413,3.7263,4.2321,-1.3882,0.1797,0.9557,0.0206,
37.488648,3.7263,4.2321,-1.3882,0.0058,1.5824,-0.0780,
37.498549,3.7263,4.2321,-1.3882,0.0058,1.5824,-0.0780,
37.499114,0.2923,1.1477,-0.3378,0.0058,1.5824,-0.0780,
37.554648,0.2923,1.1477,-0.3378,-1.3062,0.7326,-0.8274,
37.562986,0.2923,1.1477,-0.3378,-1.3062,0.7326,-0.8274,
37.563910,-4.1302,2.0215,-2.7527,-1.3062,0.7326,-0.8274,
37.620830,-4.1302,2.0215,-2.7527,-1.9345,0.1448,-0.1188,
37.628874,-4.1302,2.0215,-2.7527,-1.9345,0.1448,-0.1188,
37.629477,-2.8336,0.2688,-3.0278,-1.9345,0.1448,-0.1188,
37.685279,-2.8336,0.2688,-3.0278,-2.7043,0.4148,-0.0260,
37.692915,-2.8336,0.2688,-3.0278,-2.7043,0.4148,-0.0260,
37.694561,-1.1641,-1.0452,-1.4350,-2.7043,0.4148,-0.0260,
37.750991,-1.1641,-1.0452,-1.4350,-1.3016,-0.2877,-0.2569,
37.759315,-1.1641,-1.0452,-1.4350,-1.3016,-0.2877,-0.2569,
37.760813,-0.5580,-0.6826,0.2214,-1.3016,-0.2877,-0.2569,
37.817234,-0.5580,-0.6826,0.2214,-0.3949,0.5986,0.1368,
37.824307,-0.5580,-0.6826,0.2214,-0.3949,0.5986,0.1368,
37.825990,-1.4175,-0.8433,-1.5681,-0.3949,0.5986,0.1368,
37.880667,-1.4175,-0.8433,-1.5681,-0.2758,0.5550,0.4273,
37.890292,-1.4175,-0.8433,-1.5681,-0.2758,0.5550,0.4273,
37.890775,0.1272,-2.1407,1.3940,-0.2758,0.5550,0.4273,
37.945856,0.1272,-2.1407,1.3940,0.1284,0.8267,-0.2140,
37.954303,0.1272,-2.1407,1.3940,0.1284,0.8267,-0.2140,
37.955340,0.0063,-1.4215,2.1833,0.1284,0.8267,-0.2140,
38.012253,0.0063,-1.4215,2.1833,1.6377,-1.1313,-0.9262,
38.020453,0.0063,-1.4215,2.1833,1.6377,-1.1313,-0.9262,
38.021441,-2.8484,4.9791,0.6461,1.6377,-1.1313,-0.9262,
38.077257,-2.8484,4.9791,0.6461,0.8025,-3.0653,0.4061,
38.085545,-2.8484,4.9791,0.6461,0.8025,-3.0653,0.4061,
38.086132,-0.8870,2.6524,-2.2343,0.8025,-3.0653,0.4061,
38.142855,-0.8870,2.6524,-2.2343,0.6784,-2.1147,0.1636,
38.151105,-0.8870,2.6524,-2.2343,0.6784,-2.1147,0.1636,
38.152111,-0.8125,-1.1334,-3.6170,0.6784,-2.1147,0.1636,
38.210108,-0.8125,-1.1334,-3.6170,0.6116,-1.2193,-0.0032,
38.216708,-0.8125,-1.1334,-3.6170,0.6116,-1.2193,-0.0032,
38.217772,3.7485,-1.4564,0.2404,0.6116,-1.2193,-0.0032,
38.273595,3.7485,-1.4564,0.2404,1.1083,-0.1235,-0.4879,
38.281816,3.7485,-1.4564,0.2404,1.1083,-0.1235,-0.4879,
38.282178,0.0982,-2.0984,0.7762,1.1083,-0.1235,-0.4879,
38.339029,0.0982,-2.0984,0.7762,1.4100,0.4336,-0.6211,
38.347718,0.0982,-2.0984,0.7762,1.4100,0.4336,-0.6211,
38.349087,0.8345,-1.5371,2.4602,1.4100,0.4336,-0.6211,
38.403950,0.8345,-1.5371,2.4602,1.0287,-1.4258,-0.6523,
38.412538,0.8345,-1.5371,2.4602,1.0287,-1.4258,-0.6523,
38.413461,4.2607,-0.3703,2.7798,1.0287,-1.4258,-0.6523,
38.470465,4.2607,-0.3703,2.7798,-1.2320,2.0411,0.7633,
38.480134,4.2607,-0.3703,2.7798,-1.2320,2.0411,0.7633,
38.480972,0.1300,0.5668,-0.2609,-1.2320,2.0411,0.7633,
38.535186,0.1300,0.5668,-0.2609,-2.2068,-0.1756,0.8554,
38.544794,0.1300,0.5668,-0.2609,-2.2068,-0.1756,0.8554,
38.546055,0.0482,6.9885,-4.0024,-2.2068,-0.1756,0.8554,
38.600633,0.0482,6.9885,-4.0024,-3.6684,-0.0096,-0.9056,
38.609821,0.0482,6.9885,-4.0024,-3.6684,-0.0096,-0.9056,
38.610555,-3.3297,2.5333,-2.9952,-3.6684,-0.0096,-0.9056,
38.667050,-3.3297,2.5333,-2.9952,-1.1866,2.2544,0.1432,
38.676050,-3.3297,2.5333,-2.9952,-1.1866,2.2544,0.1432,
38.677453,-2.0577,-7.0503,2.1203,-1.1866,2.2544,0.1432,
38.731626,-2.0577,-7.0503,2.1203,2.1365,-2.5701,0.1588,
38.740160,-2.0577,-7.0503,2.1203,2.1365,-2.5701,0.1588,
38.741336,-3.3707,-4.0297,2.1599,2.1365,-2.5701,0.1588,
38.797458,-3.3707,-4.0297,2.1599,3.3801,0.8436,0.8033,
38.806419,-3.3707,-4.0297,2.1599,3.3801,0.8436,0.8033,
38.807259,2.9400,4.6641,-11.8757,3.3801,0.8436,0.8033,
38.864199,2.9400,4.6641,-11.8757,0.7756,0.6295,-0.2376,
38.872233,2.9400,4.6641,-11.8757,0.7756,0.6295,-0.2376,
38.873409,-1.3978,-0.0109,-3.1600,0.7756,0.6295,-0.2376,
38.928802,-1.3978,-0.0109,-3.1600,-0.7613,-2.2623,0.2631,
38.936945,-1.3978,-0.0109,-3.1600,-0.7613,-2.2623,0.2631,
38.938041,-0.7405,-0.6523,1.6753,-0.7613,-2.2623,0.2631,
38.994108,-0.7405,-0.6523,1.6753,0.9094,-0.6736,-0.7399,
39.002433,-0.7405,-0.6523,1.6753,0.9094,-0.6736,-0.7399,
39.002861,-0.5661,-1.5520,-0.6342,0.9094,-0.6736,-0.7399,
39.061028,-0.5661,-1.5520,-0.6342,0.6926,-0.2019,-0.4494,
39.067795,-0.5661,-1.5520,-0.6342,0.6926,-0.2019,-0.4494,
39.068279,2.3118,-0.6886,2.7649,0.6926,-0.2019,-0.4494,
39.127267,2.3118,-0.6886,2.7649,-1.2115,-1.8109,-0.0182,
39.134214,2.3118,-0.6886,2.7649,-1.2115,-1.8109,-0.0182,
39.134612,4.5119,2.4612,3.9651,-1.2115,-1.8109,-0.0182,
39.190410,4.5119,2.4612,3.9651,-0.7081,1.6335,0.4629,
39.200379,4.5119,2.4612,3.9651,-0.7081,1.6335,0.4629,
39.201466,0.6592,1.8725,0.6600,-0.7081,1.6335,0.4629,
39.256092,0.6592,1.8725,0.6600,1.2246,1.9025,-0.3774,
39.266788,0.6592,1.8725,0.6600,1.2246,1.9025,-0.3774,
39.267133,0.7507,2.4333,-3.1257,1.2246,1.9025,-0.3774,
39.323485,0.7507,2.4333,-3.1257,-0.5105,0.7333,-0.3729,
39.332173,0.7507,2.4333,-3.1257,-0.5105,0.7333,-0.3729,
39.333596,-2.6328,0.3710,-4.2731,-0.5105,0.7333,-0.3729,
39.386066,-2.6328,0.3710,-4.2731,-1.8790,0.5490,-0.4313,
39.394905,-2.6328,0.3710,-4.2731,-1.8790,0.5490,-0.4313,
39.395910,-2.9122,-0.4184,-1.8452,-1.8790,0.5490,-0.4313,
39.451940,-2.9122,-0.4184,-1.8452,-1.5592,-0.3189,0.1930,
39.461862,-2.9122,-0.4184,-1.8452,-1.5592,-0.3189,0.1930,
39.462266,-0.6250,-1.6448,-0.0316,-1.5592,-0.3189,0.1930,
39.516870,-0.6250,-1.6448,-0.0316,-0.2824,0.4210,0.3856,
39.525624,-0.6250,-1.6448,-0.0316,-0.2824,0.4210,0.3856,
39.526695,0.5265,-1.5899,-1.4788,-0.2824,0.4210,0.3856,
39.583698,0.5265,-1.5899,-1.4788,-0.5215,1.4158,0.6910,
39.591410,0.5265,-1.5899,-1.4788,-0.5215,1.4158,0.6910,
39.592924,1.7794,-0.9363,0.7208,-0.5215,1.4158,0.6910,
39.648425,1.7794,-0.9363,0.7208,-0.0148,2.1293,0.4236,
39.656860,1.7794,-0.9363,0.7208,-0.0148,2.1293,0.4236,
39.657926,1.0872,-1.1630,0.5751,-0.0148,2.1293,0.4236,
39.714773,1.0872,-1.1630,0.5751,0.4311,2.3159,0.1849,
39.722338,1.0872,-1.1630,0.5751,0.4311,2.3159,0.1849,
39.722825,-0.8816,-0.7978,0.2809,0.4311,2.3159,0.1849,
39.780726,-0.8816,-0.7978,0.2809,1.2955,1.4476,0.5081,
39.788324,-0.8816,-0.7978,0.2809,1.2955,1.4476,0.5081,
39.788692,-0.5008,0.1912,5.5685,1.2955,1.4476,0.5081,
39.845954,-0.5008,0.1912,5.5685,2.7548,-2.2029,0.9194,
39.854223,-0.5008,0.1912,5.5685,2.7548,-2.2029,0.9194,
39.854597,1.3273,0.9633,-7.3218,2.7548,-2.2029,0.9194,
39.910645,1.3273,0.9633,-7.3218,0.5936,0.9505,0.3668,
39.918963,1.3273,0.9633,-7.3218,0.5936,0.9505,0.3668,
39.919303,-0.2811,0.6118,-6.4262,0.5936,0.9505,0.3668,
39.975598,-0.2811,0.6118,-6.4262,0.8230,3.2066,-0.0861,
39.984662,-0.2811,0.6118,-6.4262,0.8230,3.2066,-0.0861,
39.984988,0.6339,2.0846,-0.4121,0.8230,3.2066,-0.0861,
40.040696,0.6339,2.0846,-0.4121,1.0249,-1.0229,0.1197,
40.048592,0.6339,2.0846,-0.4121,1.0249,-1.0229,0.1197,
40.048916,-1.2797,-4.2668,1.6469,1.0249,-1.0229,0.1197,
40.106285,-1.2797,-4.2668,1.6469,1.5166,0.2705,0.2851,
40.114113,-1.2797,-4.2668,1.6469,1.5166,0.2705,0.2851,
40.114858,2.2225,-3.2311,-1.9919,1.5166,0.2705,0.2851,
40.172459,2.2225,-3.2311,-1.9919,1.0243,1.2773,-0.2712,
40.180718,2.2225,-3.2311,-1.9919,1.0243,1.2773,-0.2712,
40.181040,2.0239,0.5749,3.6335,1.0243,1.2773,-0.2712,
40.237788,2.0239,0.5749,3.6335,1.0774,0.1889,-0.4452,
40.246354,2.0239,0.5749,3.6335,1.0774,0.1889,-0.4452,
40.247178,3.4344,1.1554,1.7338,1.0774,0.1889,-0.4452,
40.302898,3.4344,1.1554,1.7338,0.7946,-0.1597,-0.3370,
40.311402,3.4344,1.1554,1.7338,0.7946,-0.1597,-0.3370,
40.311715,4.0641,1.5862,-0.4371,0.7946,-0.1597,-0.3370,
40.368823,4.0641,1.5862,-0.4371,0.4458,2.1102,0.1278,
40.376728,4.0641,1.5862,-0.4371,0.4458,2.1102,0.1278,
40.377981,1.7208,1.2015,-0.4116,0.4458,2.1102,0.1278,
40.434043,1.7208,1.2015,-0.4116,-0.5385,-0.6475,-0.1996,
40.441921,1.7208,1.2015,-0.4116,-0.5385,-0.6475,-0.1996,
40.442680,-0.5617,4.5188,-3.7139,-0.5385,-0.6475,-0.1996,
40.498958,-0.5617,4.5188,-3.7139,-0.5904,0.5875,-0.3615,
40.507315,-0.5617,4.5188,-3.7139,-0.5904,0.5875,-0.3615,
40.507898,-2.0589,-0.5230,-2.2827,-0.5904,0.5875,-0.3615,
40.565640,-2.0589,-0.5230,-2.2827,-0.0646,0.6547,-0.6168,
40.573242,-2.0589,-0.5230,-2.2827,-0.0646,0.6547,-0.6168,
40.574567,-1.8236,-2.8995,-1.7383,-0.0646,0.6547,-0.6168,
40.630419,-1.8236,-2.8995,-1.7383,-0.1605,0.9977,-0.6431,
40.639314,-1.8236,-2.8995,-1.7383,-0.1605,0.9977,-0.6431,
40.640157,-0.2909,-1.1737,-2.1134,-0.1605,0.9977,-0.6431,
40.697022,-0.2909,-1.1737,-2.1134,-2.0033,1.9288,-0.4743,
40.705161,-0.2909,-1.1737,-2.1134,-2.0033,1.9288,-0.4743,
40.706008,0.5253,-0.7467,1.1059,-2.0033,1.9288,-0.4743,
40.763250,0.5253,-0.7467,1.1059,-1.9542,-1.5963,0.1205,
40.770445,0.5253,-0.7467,1.1059,-1.9542,-1.5963,0.1205,
40.771510,0.3797,-1.5359,1.1954,-1.9542,-1.5963,0.1205,
40.827882,0.3797,-1.5359,1.1954,-1.0070,-0.6907,1.0035,
40.835744,0.3797,-1.5359,1.1954,-1.0070,-0.6907,1.0035,
40.836068,1.6349,1.3556,-0.4557,-1.0070,-0.6907,1.0035,
40.892939,1.6349,1.3556,-0.4557,-0.6216,1.0389,0.7233,
40.901467,1.6349,1.3556,-0.4557,-0.6216,1.0389,0.7233,
40.902281,2.1969,-1.0654,1.2937,-0.6216,1.0389,0.7233,
40.958846,2.1969,-1.0654,1.2937,1.2115,-0.2393,-0.2294,
40.967526,2.1969,-1.0654,1.2937,1.2115,-0.2393,-0.2294,
40.968340,-0.3864,-3.6870,-1.4805,1.2115,-0.2393,-0.2294,
41.023497,-0.3864,-3.6870,-1.4805,3.1573,0.4136,0.3535,
41.032122,-0.3864,-3.6870,-1.4805,3.1573,0.4136,0.3535,
41.032985,1.3041,3.0715,-4.7001,3.1573,0.4136,0.3535,
41.090214,1.3041,3.0715,-4.7001,0.9203,1.9360,-0.2121,
41.097916,1.3041,3.0715,-4.7001,0.9203,1.9360,-0.2121,
41.098799,-1.1171,-0.5550,-1.5800,0.9203,1.9360,-0.2121,
41.156935,-1.1171,-0.5550,-1.5800,0.1301,0.0331,-0.0481,
41.163779,-1.1171,-0.5550,-1.5800,0.1301,0.0331,-0.0481,
41.164639,1.4515,-0.9975,1.8994,0.1301,0.0331,-0.0481,
41.220600,1.4515,-0.9975,1.8994,-0.7088,-1.4418,-0.0612,
41.228419,1.4515,-0.9975,1.8994,-0.7088,-1.4418,-0.0612,
41.229732,2.9694,0.8050,-0.5837,-0.7088,-1.4418,-0.0612,
41.287625,2.9694,0.8050,-0.5837,-2.9378,-0.9673,1.3920,
41.295382,2.9694,0.8050,-0.5837,-2.9378,-0.9673,1.3920,
41.297206,-0.6289,4.5194,-5.2264,-2.9378,-0.9673,1.3920,
41.353734,-0.6289,4.5194,-5.2264,-3.6122,-0.7752,0.7566,
41.361494,-0.6289,4.5194,-5.2264,-3.6122,-0.7752,0.7566,
41.361869,-1.3430,-0.3550,2.2267,-3.6122,-0.7752,0.7566,
41.416435,-1.3430,-0.3550,2.2267,0.3658,-0.3558,0.1472,
41.425068,-1.3430,-0.3550,2.2267,0.3658,-0.3558,0.1472,
41.426123,-0.8748,-2.9533,-0.2172,0.3658,-0.3558,0.1472,
41.483127,-0.8748,-2.9533,-0.2172,1.5069,1.4919,0.9186,
41.490789,-0.8748,-2.9533,-0.2172,1.5069,1.4919,0.9186,
41.491313,1.0739,-5.5894,3.5030,1.5069,1.4919,0.9186,
41.547877,1.0739,-5.5894,3.5030,1.3638,-1.2990,0.9129,
41.556810,1.0739,-5.5894,3.5030,1.3638,-1.2990,0.9129,
41.557752,5.9213,-3.8009,-0.8764,1.3638,-1.2990,0.9129,
41.613793,5.9213,-3.8009,-0.8764,3.2258,6.6758,-0.8809,
41.622518,5.9213,-3.8009,-0.8764,3.2258,6.6758,-0.8809,
41.623951,3.6801,5.1064,-2.6887,3.2258,6.6758,-0.8809,
41.679060,3.6801,5.1064,-2.6887,3.5488,2.0256,-0.0441,
41.687175,3.6801,5.1064,-2.6887,3.5488,2.0256,-0.0441,
41.688091,0.0613,1.1344,-7.5308,3.5488,2.0256,-0.0441,
41.744176,0.0613,1.1344,-7.5308,-0.7550,-1.7150,0.1051,
41.751772,0.0613,1.1344,-7.5308,-0.7550,-1.7150,0.1051,
41.752080,-3.9299,-3.0165,-4.8013,-0.7550,-1.7150,0.1051,
41.811099,-3.9299,-3.0165,-4.8013,0.6014,0.1788,-1.0605,
41.819744,-3.9299,-3.0165,-4.8013,0.6014,0.1788,-1.0605,
41.822626,-4.6486,-1.7733,-1.1697,0.6014,0.1788,-1.0605,
41.876896,-4.6486,-1.7733,-1.1697,2.0571,0.7307,-0.1811,
41.883903,-4.6486,-1.7733,-1.1697,2.0571,0.7307,-0.1811,
41.884241,-0.2359,2.1869,2.4707,2.0571,0.7307,-0.1811,
41.939653,-0.2359,2.1869,2.4707,1.9134,-0.7938,-0.0845,
41.948843,-0.2359,2.1869,2.4707,1.9134,-0.7938,-0.0845,
41.949856,2.9838,4.3432,1.4090,1.9134,-0.7938,-0.0845,
42.004804,2.9838,4.3432,1.4090,-2.4479,-1.2740,-0.1503,
42.014213,2.9838,4.3432,1.4090,-2.4479,-1.2740,-0.1503,
42.014998,3.0001,0.4768,-3.9374,-2.4479,-1.2740,-0.1503,
42.071211,3.0001,0.4768,-3.9374,-2.2374,-1.3105,0.3317,
42.079899,3.0001,0.4768,-3.9374,-2.2374,-1.3105,0.3317,
42.080884,0.7860,-0.0817,-0.7088,-2.2374,-1.3105,0.3317,
42.136651,0.7860,-0.0817,-0.7088,-0.7683,0.6132,-0.1526,
42.144886,0.7860,-0.0817,-0.7088,-0.7683,0.6132,-0.1526,
42.145285,0.0573,-1.7004,-0.1661,-0.7683,0.6132,-0.1526,
42.203248,0.0573,-1.7004,-0.1661,-0.5525,0.9647,0.2315,
42.211809,0.0573,-1.7004,-0.1661,-0.5525,0.9647,0.2315,
42.212638,0.4087,-0.6748,0.2258,-0.5525,0.9647,0.2315,
42.268900,0.4087,-0.6748,0.2258,-0.6561,0.2688,0.1439,
42.277772,0.4087,-0.6748,0.2258,-0.6561,0.2688,0.1439,
42.278066,-1.0021,-0.5776,-1.1276,-0.6561,0.2688,0.1439,
42.333899,-1.0021,-0.5776,-1.1276,-0.5374,0.5835,0.3619,
42.341366,-1.0021,-0.5776,-1.1276,-0.5374,0.5835,0.3619,
42.342435,0.1815,-1.6632,0.4911,-0.5374,0.5835,0.3619,
42.398061,0.1815,-1.6632,0.4911,0.1967,0.7440,0.4644,
42.406362,0.1815,-1.6632,0.4911,0.1967,0.7440,0.4644,
42.407601,1.1270,-0.8691,-0.3932,0.1967,0.7440,0.4644,
42.464874,1.1270,-0.8691,-0.3932,0.1176,1.7451,0.3939,
42.473704,1.1270,-0.8691,-0.3932,0.1176,1.7451,0.3939,
42.475386,0.2962,0.0823,-0.2330,0.1176,1.7451,0.3939,
42.530063,0.2962,0.0823,-0.2330,-0.2124,1.3615,0.3013,
42.539733,0.2962,0.0823,-0.2330,-0.2124,1.3615,0.3013,
42.541333,-0.7270,0.0625,1.5861,-0.2124,1.3615,0.3013,
42.597696,-0.7270,0.0625,1.5861,0.1336,1.3864,0.6924,
42.602970,-0.7270,0.0625,1.5861,0.1336,1.3864,0.6924,
42.604085,-0.3869,-0.2135,3.3300,0.1336,1.3864,0.6924,
42.660024,-0.3869,-0.2135,3.3300,1.2289,-0.2979,0.4953,
42.669030,-0.3869,-0.2135,3.3300,1.2289,-0.2979,0.4953,
42.669990,-0.0307,0.8227,-0.5447,1.2289,-0.2979,0.4953,
42.727423,-0.0307,0.8227,-0.5447,0.9310,0.3196,-0.9331,
42.735047,-0.0307,0.8227,-0.5447,0.9310,0.3196,-0.9331,
42.735726,-0.9744,1.3280,-2.4286,0.9310,0.3196,-0.9331,
42.793276,-0.9744,1.3280,-2.4286,1.0136,-0.4084,-0.6486,
42.801004,-0.9744,1.3280,-2.4286,1.0136,-0.4084,-0.6486,
42.801812,-0.2652,-0.2115,-2.7475,1.0136,-0.4084,-0.6486,
42.857541,-0.2652,-0.2115,-2.7475,0.7249,0.3555,0.4968,
42.867860,-0.2652,-0.2115,-2.7475,0.7249,0.3555,0.4968,
42.868633,4.0110,-1.3167,-2.7836,0.7249,0.3555,0.4968,
42.922717,4.0110,-1.3167,-2.7836,-0.2871,-0.1407,-0.0498,
42.932155,4.0110,-1.3167,-2.7836,-0.2871,-0.1407,-0.0498,
42.933074,2.7916,-2.4866,0.0682,-0.2871,-0.1407,-0.0498,
42.989316,2.7916,-2.4866,0.0682,1.6038,0.7581,0.1982,
42.996831,2.7916,-2.4866,0.0682,1.6038,0.7581,0.1982,
42.998081,1.2436,-3.6277,0.2983,1.6038,0.7581,0.1982,
43.053684,1.2436,-3.6277,0.2983,2.1980,0.1133,-0.3632,
43.062030,1.2436,-3.6277,0.2983,2.1980,0.1133,-0.3632,
43.063070,0.9215,2.0809,2.0459,2.1980,0.1133,-0.3632,
43.119155,0.9215,2.0809,2.0459,-1.2123,-1.1848,0.0945,
43.127509,0.9215,2.0809,2.0459,-1.2123,-1.1848,0.0945,
43.129258,0.3915,4.4289,3.5521,-1.2123,-1.1848,0.0945,
43.185668,0.3915,4.4289,3.5521,-2.8350,-1.0255,0.9357,
43.193352,0.3915,4.4289,3.5521,-2.8350,-1.0255,0.9357,
43.193783,0.6698,4.0621,-1.4467,-2.8350,-1.0255,0.9357,
43.250022,0.6698,4.0621,-1.4467,-1.1942,0.0096,0.1199,
43.257673,0.6698,4.0621,-1.4467,-1.1942,0.0096,0.1199,
43.258157,-0.5413,2.3622,-1.9346,-1.1942,0.0096,0.1199,
43.316815,-0.5413,2.3622,-1.9346,-0.0409,0.7362,-0.1220,
43.325265,-0.5413,2.3622,-1.9346,-0.0409,0.7362,-0.1220,
43.326740,-1.9178,-6.5912,-1.5749,-0.0409,0.7362,-0.1220,
43.380737,-1.9178,-6.5912,-1.5749,-2.7793,-1.1475,0.2176,
43.388586,-1.9178,-6.5912,-1.5749,-2.7793,-1.1475,0.2176,
43.389320,-2.2172,-3.9843,11.1523,-2.7793,-1.1475,0.2176,
43.446452,-2.2172,-3.9843,11.1523,1.8046,-2.4271,0.1095,
43.455829,-2.2172,-3.9843,11.1523,1.8046,-2.4271,0.1095,
43.457326,1.4623,4.3675,-5.7041,1.8046,-2.4271,0.1095,
43.512298,1.4623,4.3675,-5.7041,1.4476,1.7182,-0.8473,
43.520589,1.4623,4.3675,-5.7041,1.4476,1.7182,-0.8473,
43.522006,-0.2641,-0.4546,-5.0203,1.4476,1.7182,-0.8473,
43.577697,-0.2641,-0.4546,-5.0203,1.6017,0.0719,-0.6637,
43.585630,-0.2641,-0.4546,-5.0203,1.6017,0.0719,-0.6637,
43.586554,-0.6266,-1.8759,-0.1490,1.6017,0.0719,-0.6637,
43.643239,-0.6266,-1.8759,-0.1490,0.7450,0.1939,-0.6545,
43.652159,-0.6266,-1.8759,-0.1490,0.7450,0.1939,-0.6545,
43.652642,4.2751,2.5182,5.2278,0.7450,0.1939,-0.6545,
43.708114,4.2751,2.5182,5.2278,0.1002,0.9891,0.2356,
43.716698,4.2751,2.5182,5.2278,0.1002,0.9891,0.2356,
43.717434,0.7916,1.8086,0.6106,0.1002,0.9891,0.2356,
43.773754,0.7916,1.8086,0.6106,-0.9088,0.0257,-0.2625,
43.781731,0.7916,1.8086,0.6106,-0.9088,0.0257,-0.2625,
43.782442,-0.7215,2.7510,-2.3395,-0.9088,0.0257,-0.2625,
43.838896,-0.7215,2.7510,-2.3395,-0.1387,0.7133,-0.4229,
43.848010,-0.7215,2.7510,-2.3395,-0.1387,0.7133,-0.4229,
43.848699,-1.6920,0.9518,-1.1208,-0.1387,0.7133,-0.4229,
43.904953,-1.6920,0.9518,-1.1208,-0.2659,0.8832,0.1298,
43.913385,-1.6920,0.9518,-1.1208,-0.2659,0.8832,0.1298,
43.914097,-0.9145,-1.4672,-0.6329,-0.2659,0.8832,0.1298,
43.969847,-0.9145,-1.4672,-0.6329,-0.9311,0.7408,-0.0159,
43.978785,-0.9145,-1.4672,-0.6329,-0.9311,0.7408,-0.0159,
43.979800,-0.8290,-2.5110,0.0881,-0.9311,0.7408,-0.0159,
44.037375,-0.8290,-2.5110,0.0881,-0.1671,-0.5979,0.1973,
44.044027,-0.8290,-2.5110,0.0881,-0.1671,-0.5979,0.1973,
44.044738,1.0060,-3.0231,5.5052,-0.1671,-0.5979,0.1973,
44.101952,1.0060,-3.0231,5.5052,0.2871,-0.0722,0.4870,
44.110414,1.0060,-3.0231,5.5052,0.2871,-0.0722,0.4870,
44.111020,0.0447,-1.2506,-1.1427,0.2871,-0.0722,0.4870,
44.166420,0.0447,-1.2506,-1.1427,-1.2628,-1.0490,0.9862,
44.174534,0.0447,-1.2506,-1.1427,-1.2628,-1.0490,0.9862,
44.176078,1.4907,-0.3654,-1.5826,-1.2628,-1.0490,0.9862,
44.232571,1.4907,-0.3654,-1.5826,0.5605,-0.6909,-0.1796,
44.241865,1.4907,-0.3654,-1.5826,0.5605,-0.6909,-0.1796,
44.242481,-0.1655,2.3460,-4.5632,0.5605,-0.6909,-0.1796,
44.298684,-0.1655,2.3460,-4.5632,1.4103,1.8560,-0.4951,
44.307131,-0.1655,2.3460,-4.5632,1.4103,1.8560,-0.4951,
44.310292,-1.4727,-0.2167,-2.9010,1.4103,1.8560,-0.4951,
44.362536,-1.4727,-0.2167,-2.9010,1.6625,0.4304,-0.3717,
44.372296,-1.4727,-0.2167,-2.9010,1.6625,0.4304,-0.3717,
44.373635,0.3642,-1.3897,3.7352,1.6625,0.4304,-0.3717,
44.429315,0.3642,-1.3897,3.7352,-0.3332,-0.8700,-0.7379,
44.437431,0.3642,-1.3897,3.7352,-0.3332,-0.8700,-0.7379,
44.438506,1.3450,-0.8697,1.3472,-0.3332,-0.8700,-0.7379,
44.494004,1.3450,-0.8697,1.3472,-0.2413,0.0408,0.4522,
44.503907,1.3450,-0.8697,1.3472,-0.2413,0.0408,0.4522,
44.504945,0.7364,4.4258,-2.3543,-0.2413,0.0408,0.4522,
44.560697,0.7364,4.4258,-2.3543,-0.6177,-0.0421,-0.0150,
44.568645,0.7364,4.4258,-2.3543,-0.6177,-0.0421,-0.0150,
44.569619,-0.7852,4.2026,-3.2088,-0.6177,-0.0421,-0.0150,
44.625061,-0.7852,4.2026,-3.2088,-0.4861,1.8555,-0.5893,
44.632947,-0.7852,4.2026,-3.2088,-0.4861,1.8555,-0.5893,
44.633765,-1.7734,0.4741,1.6421,-0.4861,1.8555,-0.5893,
44.689314,-1.7734,0.4741,1.6421,-0.9041,-1.3241,-0.1171,
44.698291,-1.7734,0.4741,1.6421,-0.9041,-1.3241,-0.1171,
44.699003,-0.7242,-2.1484,-0.6834,-0.9041,-1.3241,-0.1171,
44.755030,-0.7242,-2.1484,-0.6834,-1.2842,-1.0673,-0.1857,
44.763105,-0.7242,-2.1484,-0.6834,-1.2842,-1.0673,-0.1857,
44.763700,-0.6607,-2.5254,-2.1969,-1.2842,-1.0673,-0.1857,
44.820859,-0.6607,-2.5254,-2.1969,-1.5437,0.8751,0.2749,
44.829276,-0.6607,-2.5254,-2.1969,-1.5437,0.8751,0.2749,
44.829948,1.0020,-0.8375,-0.0600,-1.5437,0.8751,0.2749,
44.885991,1.0020,-0.8375,-0.0600,-0.7973,0.1939,0.3913,
44.894417,1.0020,-0.8375,-0.0600,-0.7973,0.1939,0.3913,
44.895349,1.7858,-1.1715,1.8459,-0.7973,0.1939,0.3913,
44.952819,1.7858,-1.1715,1.8459,0.1871,1.1319,0.5212,
44.960918,1.7858,-1.1715,1.8459,0.1871,1.1319,0.5212,
44.961689,1.7792,-0.6545,0.2405,0.1871,1.1319,0.5212,
45.017563,1.7792,-0.6545,0.2405,0.0849,1.8744,0.3887,
45.025577,1.7792,-0.6545,0.2405,0.0849,1.8744,0.3887,
45.026478,0.4156,-0.8555,2.6447,0.0849,1.8744,0.3887,
45.082723,0.4156,-0.8555,2.6447,1.1715,0.7940,0.9310,
45.091061,0.4156,-0.8555,2.6447,1.1715,0.7940,0.9310,
45.091736,0.3713,-2.5437,1.0904,1.1715,0.7940,0.9310,
45.149898,0.3713,-2.5437,1.0904,1.6840,-0.4090,0.3340,
45.157086,0.3713,-2.5437,1.0904,1.6840,-0.4090,0.3340,
45.158663,2.3802,3.7914,-8.2835,1.6840,-0.4090,0.3340,
45.214245,2.3802,3.7914,-8.2835,-0.5431,0.2372,-0.0124,
45.223805,2.3802,3.7914,-8.2835,-0.5431,0.2372,-0.0124,
45.225084,-1.8632,0.7259,-2.8000,-0.5431,0.2372,-0.0124,
45.281779,-1.8632,0.7259,-2.8000,0.4015,1.1590,-0.2592,
45.289993,-1.8632,0.7259,-2.8000,0.4015,1.1590,-0.2592,
45.291158,-1.4638,0.9442,-1.0985,0.4015,1.1590,-0.2592,
45.344896,-1.4638,0.9442,-1.0985,0.9520,0.1061,0.4597,
45.353793,-1.4638,0.9442,-1.0985,0.9520,0.1061,0.4597,
45.354474,2.5749,-1.6993,1.7168,0.9520,0.1061,0.4597,
45.411375,2.5749,-1.6993,1.7168,1.1437,-0.2176,-0.2787,
45.418799,2.5749,-1.6993,1.7168,1.1437,-0.2176,-0.2787,
45.419451,5.0148,-1.5642,1.4427,1.1437,-0.2176,-0.2787,
45.476300,5.0148,-1.5642,1.4427,1.0776,0.1103,-0.2129,
45.485063,5.0148,-1.5642,1.4427,1.0776,0.1103,-0.2129,
45.485493,5.9672,0.6479,1.3481,1.0776,0.1103,-0.2129,
45.541553,5.9672,0.6479,1.3481,1.5165,3.5468,0.4090,
45.550618,5.9672,0.6479,1.3481,1.5165,3.5468,0.4090,
45.551079,2.2312,-0.8494,0.8321,1.5165,3.5468,0.4090,
45.607679,2.2312,-0.8494,0.8321,1.4197,-0.7026,-1.0930,
45.615267,2.2312,-0.8494,0.8321,1.4197,-0.7026,-1.0930,
45.616105,-2.2760,0.0509,-4.6811,1.4197,-0.7026,-1.0930,
45.673222,-2.2760,0.0509,-4.6811,-1.1397,-0.0884,-0.0394,
45.681350,-2.2760,0.0509,-4.6811,-1.1397,-0.0884,-0.0394,
45.681883,-5.9603,1.2879,-4.6480,-1.1397,-0.0884,-0.0394,
45.737858,-5.9603,1.2879,-4.6480,-0.8563,1.5763,0.2610,
45.746695,-5.9603,1.2879,-4.6480,-0.8563,1.5763,0.2610,
45.747861,-1.8434,-0.1995,-2.2180,-0.8563,1.5763,0.2610,
45.803554,-1.8434,-0.1995,-2.2180,-1.1709,0.4841,-0.6897,
45.811942,-1.8434,-0.1995,-2.2180,-1.1709,0.4841,-0.6897,
45.813006,2.5081,-3.4790,8.9269,-1.1709,0.4841,-0.6897,
45.870983,2.5081,-3.4790,8.9269,0.1617,-1.7582,0.4197,
45.880520,2.5081,-3.4790,8.9269,0.1617,-1.7582,0.4197,
45.882111,0.7041,0.7614,-1.2925,0.1617,-1.7582,0.4197,
45.934815,0.7041,0.7614,-1.2925,0.2967,-1.2914,-0.3923,
45.943022,0.7041,0.7614,-1.2925,0.2967,-1.2914,-0.3923,
45.943715,0.4992,0.0500,-5.3325,0.2967,-1.2914,-0.3923,
45.999915,0.4992,0.0500,-5.3325,1.3158,-0.5643,-0.2920,
46.008095,0.4992,0.0500,-5.3325,1.3158,-0.5643,-0.2920,
46.009038,-1.7841,-1.5916,-2.7748,1.3158,-0.5643,-0.2920,
46.067039,-1.7841,-1.5916,-2.7748,0.9588,5.6861,-0.7807,
46.075877,-1.7841,-1.5916,-2.7748,0.9588,5.6861,-0.7807,
46.077480,0.8547,2.4185,7.6782,0.9588,5.6861,-0.7807,
46.132392,0.8547,2.4185,7.6782,1.7961,1.3144,0.1894,
46.140571,0.8547,2.4185,7.6782,1.7961,1.3144,0.1894,
46.142288,-1.0384,-1.1826,5.1946,1.7961,1.3144,0.1894,
46.196571,-1.0384,-1.1826,5.1946,-4.2469,-3.3372,0.6080,
46.205329,-1.0384,-1.1826,5.1946,-4.2469,-3.3372,0.6080,
46.206806,0.4230,-1.4744,-5.6626,-4.2469,-3.3372,0.6080,
46.261669,0.4230,-1.4744,-5.6626,-5.7273,-1.6674,1.1628,
46.270692,0.4230,-1.4744,-5.6626,-5.7273,-1.6674,1.1628,
46.271327,3.8936,6.8881,0.3299,-5.7273,-1.6674,1.1628,
46.327911,3.8936,6.8881,0.3299,1.0281,2.1841,1.2440,
46.335935,3.8936,6.8881,0.3299,1.0281,2.1841,1.2440,
46.336781,1.6524,0.6644,-1.9015,1.0281,2.1841,1.2440,
46.393082,1.6524,0.6644,-1.9015,0.7359,2.6356,0.3163,
46.400579,1.6524,0.6644,-1.9015,0.7359,2.6356,0.3163,
46.401201,-0.1427,-3.1838,-1.8588,0.7359,2.6356,0.3163,
46.458429,-0.1427,-3.1838,-1.8588,-1.0924,0.6655,-0.4519,
46.467558,-0.1427,-3.1838,-1.8588,-1.0924,0.6655,-0.4519,
46.468577,-3.5036,-2.2003,1.1401,-1.0924,0.6655,-0.4519,
46.523625,-3.5036,-2.2003,1.1401,0.2610,-3.0704,0.7358,
46.532125,-3.5036,-2.2003,1.1401,0.2610,-3.0704,0.7358,
46.533653,-1.3429,-1.9404,2.5718,0.2610,-3.0704,0.7358,
46.591213,-1.3429,-1.9404,2.5718,2.2454,-0.2728,2.0591,
46.598999,-1.3429,-1.9404,2.5718,2.2454,-0.2728,2.0591,
46.599850,2.7433,-2.0934,-1.9820,2.2454,-0.2728,2.0591,
46.655729,2.7433,-2.0934,-1.9820,0.8937,-2.1073,-0.6211,
46.665212,2.7433,-2.0934,-1.9820,0.8937,-2.1073,-0.6211,
46.666752,1.6667,3.8328,-3.3522,0.8937,-2.1073,-0.6211,
46.720632,1.6667,3.8328,-3.3522,0.5556,0.4160,-1.5188,
46.728778,1.6667,3.8328,-3.3522,0.5556,0.4160,-1.5188,
46.729948,-2.8817,1.5520,-1.9755,0.5556,0.4160,-1.5188,
46.786795,-2.8817,1.5520,-1.9755,1.6576,-0.8121,-0.3888,
46.795338,-2.8817,1.5520,-1.9755,1.6576,-0.8121,-0.3888,
46.796240,-3.0623,-0.4157,-2.8494,1.6576,-0.8121,-0.3888,
46.851629,-3.0623,-0.4157,-2.8494,-0.2199,0.9128,-0.0733,
46.860437,-3.0623,-0.4157,-2.8494,-0.2199,0.9128,-0.0733,
46.861628,-0.2863,0.0066,0.3679,-0.2199,0.9128,-0.0733,
46.916949,-0.2863,0.0066,0.3679,-0.8842,-1.6197,-0.7581,
46.925199,-0.2863,0.0066,0.3679,-0.8842,-1.6197,-0.7581,
46.925854,3.0409,-1.2463,9.4369,-0.8842,-1.6197,-0.7581,
46.982148,3.0409,-1.2463,9.4369,-2.6643,2.9726,1.0614,
46.990623,3.0409,-1.2463,9.4369,-2.6643,2.9726,1.0614,
46.991593,4.4678,2.4261,-1.9289,-2.6643,2.9726,1.0614,
47.048030,4.4678,2.4261,-1.9289,-1.9219,0.8618,0.1460,
47.056134,4.4678,2.4261,-1.9289,-1.9219,0.8618,0.1460,
