
time,ax,ay,az,wx,wy,wz,
0.018970,0.0000,0.0000,0.0000,0.0023,0.1080,0.0067,
0.019152,0.0000,0.0000,0.0000,0.0023,0.1080,0.0067,
0.027365,0.0000,0.0000,0.0000,-0.0136,0.1080,-0.0029,
0.080711,0.0000,0.0000,0.0000,-0.0136,0.1080,-0.0029,
0.092715,0.0000,0.0000,0.0000,-0.0052,0.0887,0.0067,
0.146456,0.0000,0.0000,0.0000,-0.0052,0.0887,0.0067,
0.158179,0.0000,0.0000,0.0000,-0.0224,-0.0524,-0.0191,
0.213276,0.0000,0.0000,0.0000,-0.0224,-0.0524,-0.0191,
0.224240,0.0000,0.0000,0.0000,0.0521,-0.0533,0.0483,
0.277527,0.0000,0.0000,0.0000,0.0521,-0.0533,0.0483,
0.289792,0.0000,0.0000,0.0000,0.1432,-0.0761,0.0191,
0.343163,0.0000,0.0000,0.0000,0.1432,-0.0761,0.0191,
0.355265,0.0000,0.0000,0.0000,0.1457,-0.1946,0.0573,
0.409517,0.0000,0.0000,0.0000,0.1457,-0.1946,0.0573,
0.420314,0.0000,0.0000,0.0000,0.0893,0.0768,0.3862,
0.475452,0.0000,0.0000,0.0000,0.0893,0.0768,0.3862,
0.476197,0.5073,0.7038,-0.2764,0.0893,0.0768,0.3862,
0.485839,0.5073,0.7038,-0.2764,0.0918,-0.0362,0.5438,
0.539566,0.5073,0.7038,-0.2764,0.0918,-0.0362,0.5438,
0.540366,0.1796,-0.3047,-0.4027,0.0918,-0.0362,0.5438,
0.551108,0.1796,-0.3047,-0.4027,0.1611,-0.0295,-0.0464,
0.605008,0.1796,-0.3047,-0.4027,0.1611,-0.0295,-0.0464,
0.605810,1.1131,-0.5622,-0.3856,0.1611,-0.0295,-0.0464,
0.616568,1.1131,-0.5622,-0.3856,0.3286,0.3735,-0.5122,
0.671616,1.1131,-0.5622,-0.3856,0.3286,0.3735,-0.5122,
0.672317,0.4965,0.4698,-0.0750,0.3286,0.3735,-0.5122,
0.682538,0.4965,0.4698,-0.0750,0.2647,0.8219,-0.9328,
0.736650,0.4965,0.4698,-0.0750,0.2647,0.8219,-0.9328,
0.737565,-0.1724,-0.1813,-0.0299,0.2647,0.8219,-0.9328,
0.749182,-0.1724,-0.1813,-0.0299,0.1255,1.3685,-0.5547,
0.801703,-0.1724,-0.1813,-0.0299,0.1255,1.3685,-0.5547,
0.802474,0.2206,0.2059,1.6251,0.1255,1.3685,-0.5547,
0.814193,0.2206,0.2059,1.6251,-0.5105,1.8040,0.0742,
0.868306,0.2206,0.2059,1.6251,-0.5105,1.8040,0.0742,
0.869072,0.5090,0.8385,0.6002,-0.5105,1.8040,0.0742,
0.878438,0.5090,0.8385,0.6002,0.0751,-0.3457,-0.1277,
0.932943,0.5090,0.8385,0.6002,0.0751,-0.3457,-0.1277,
0.933658,0.9233,-0.4792,0.6529,0.0751,-0.3457,-0.1277,
0.944023,0.9233,-0.4792,0.6529,0.0447,-0.3352,-0.1782,
0.997734,0.9233,-0.4792,0.6529,0.0447,-0.3352,-0.1782,
0.998549,1.5582,-0.1812,0.2334,0.0447,-0.3352,-0.1782,
1.009451,1.5582,-0.1812,0.2334,0.0373,-0.0938,-0.2214,
1.063596,1.5582,-0.1812,0.2334,0.0373,-0.0938,-0.2214,
1.064528,0.5675,-0.1516,0.0479,0.0373,-0.0938,-0.2214,
1.074963,0.5675,-0.1516,0.0479,0.1083,-0.0745,-0.2625,
1.130192,0.5675,-0.1516,0.0479,0.1083,-0.0745,-0.2625,
1.131326,0.3925,-0.0291,-0.0212,0.1083,-0.0745,-0.2625,
1.141279,0.3925,-0.0291,-0.0212,0.1237,-0.2483,-0.3053,
1.194864,0.3925,-0.0291,-0.0212,0.1237,-0.2483,-0.3053,
1.195875,1.2893,-0.2016,0.2896,0.1237,-0.2483,-0.3053,
1.206473,1.2893,-0.2016,0.2896,0.1397,-0.1069,-0.3063,
1.260567,1.2893,-0.2016,0.2896,0.1397,-0.1069,-0.3063,
1.261298,1.4661,0.0363,0.4457,0.1397,-0.1069,-0.3063,
1.271674,1.4661,0.0363,0.4457,0.2874,0.1124,-0.2353,
1.326314,1.4661,0.0363,0.4457,0.2874,0.1124,-0.2353,
1.327167,0.3725,0.4157,0.6885,0.2874,0.1124,-0.2353,
1.336853,0.3725,0.4157,0.6885,0.3867,0.0125,-0.2248,
1.390552,0.3725,0.4157,0.6885,0.3867,0.0125,-0.2248,
1.391361,-0.8027,1.7899,0.0158,0.3867,0.0125,-0.2248,
1.402270,-0.8027,1.7899,0.0158,0.2077,-0.3552,-0.0692,
1.456133,-0.8027,1.7899,0.0158,0.2077,-0.3552,-0.0692,
1.456954,0.4099,2.6611,-0.2830,0.2077,-0.3552,-0.0692,
1.467879,0.4099,2.6611,-0.2830,-0.8570,-0.6191,-0.1814,
1.521485,0.4099,2.6611,-0.2830,-0.8570,-0.6191,-0.1814,
1.522208,-0.1015,-1.0906,-0.1224,-0.8570,-0.6191,-0.1814,
1.537220,-0.1015,-1.0906,-0.1224,-0.9832,-0.3877,0.0015,
1.587750,-0.1015,-1.0906,-0.1224,-0.9832,-0.3877,0.0015,
1.588577,-0.2284,-0.0023,0.4406,-0.9832,-0.3877,0.0015,
1.600189,-0.2284,-0.0023,0.4406,-0.5612,-0.5261,-0.1378,
1.652750,-0.2284,-0.0023,0.4406,-0.5612,-0.5261,-0.1378,
1.653915,0.3616,-1.4057,0.1957,-0.5612,-0.5261,-0.1378,
1.665073,0.3616,-1.4057,0.1957,-0.2521,-0.4033,0.0199,
1.719012,0.3616,-1.4057,0.1957,-0.2521,-0.4033,0.0199,
1.720199,0.2992,-1.8753,0.4518,-0.2521,-0.4033,0.0199,
1.731062,0.2992,-1.8753,0.4518,0.0258,-0.1182,0.0435,
1.784599,0.2992,-1.8753,0.4518,0.0258,-0.1182,0.0435,
1.785849,0.8726,-2.5081,0.3394,0.0258,-0.1182,0.0435,
1.795903,0.8726,-2.5081,0.3394,0.2326,-0.1555,0.2236,
1.851712,0.8726,-2.5081,0.3394,0.2326,-0.1555,0.2236,
1.852490,-0.1061,-2.5196,1.0797,0.2326,-0.1555,0.2236,
1.860658,-0.1061,-2.5196,1.0797,0.7395,0.0512,0.4317,
1.915614,-0.1061,-2.5196,1.0797,0.7395,0.0512,0.4317,
1.916963,-0.8438,-0.1937,1.0726,0.7395,0.0512,0.4317,
1.927116,-0.8438,-0.1937,1.0726,0.1509,-0.3926,0.5020,
1.980952,-0.8438,-0.1937,1.0726,0.1509,-0.3926,0.5020,
1.982283,-1.8228,6.7836,-1.1037,0.1509,-0.3926,0.5020,
1.992746,-1.8228,6.7836,-1.1037,0.4270,-1.0139,-0.7876,
2.045651,-1.8228,6.7836,-1.1037,0.4270,-1.0139,-0.7876,
2.046988,2.2708,-3.2610,-1.8562,0.4270,-1.0139,-0.7876,
2.057637,2.2708,-3.2610,-1.8562,0.2758,0.3528,0.6025,
2.112066,2.2708,-3.2610,-1.8562,0.2758,0.3528,0.6025,
2.113778,-0.3425,1.2861,0.0982,0.2758,0.3528,0.6025,
2.123410,-0.3425,1.2861,0.0982,0.3777,0.3372,-0.0748,
2.177401,-0.3425,1.2861,0.0982,0.3777,0.3372,-0.0748,
2.178104,-0.4687,-0.1820,-1.7234,0.3777,0.3372,-0.0748,
2.188471,-0.4687,-0.1820,-1.7234,0.3668,-0.0701,0.0644,
2.242110,-0.4687,-0.1820,-1.7234,0.3668,-0.0701,0.0644,
2.243301,-0.2615,-0.1640,-1.3127,0.3668,-0.0701,0.0644,
2.254224,-0.2615,-0.1640,-1.3127,0.1481,-0.5559,0.0574,
2.308098,-0.2615,-0.1640,-1.3127,0.1481,-0.5559,0.0574,
2.309765,0.7090,-0.1893,-0.5124,0.1481,-0.5559,0.0574,
2.319324,0.7090,-0.1893,-0.5124,0.1203,-0.8769,0.2592,
2.374329,0.7090,-0.1893,-0.5124,0.1203,-0.8769,0.2592,
2.375727,-0.2668,-0.3876,-0.2627,0.1203,-0.8769,0.2592,
2.385129,-0.2668,-0.3876,-0.2627,-0.4148,-1.4094,0.1164,
2.439289,-0.2668,-0.3876,-0.2627,-0.4148,-1.4094,0.1164,
2.440525,1.0635,-0.3957,0.1047,-0.4148,-1.4094,0.1164,
2.451202,1.0635,-0.3957,0.1047,-0.0903,-1.7888,-0.1739,
2.504143,1.0635,-0.3957,0.1047,-0.0903,-1.7888,-0.1739,
2.505372,2.3658,0.5515,-0.2170,-0.0903,-1.7888,-0.1739,
2.516243,2.3658,0.5515,-0.2170,0.1625,-1.0566,-0.0594,
2.569640,2.3658,0.5515,-0.2170,0.1625,-1.0566,-0.0594,
2.570866,0.7355,2.5649,0.2878,0.1625,-1.0566,-0.0594,
2.581800,0.7355,2.5649,0.2878,-0.0394,-0.3690,0.1312,
2.634870,0.7355,2.5649,0.2878,-0.0394,-0.3690,0.1312,
2.635995,0.4772,4.5057,0.0097,-0.0394,-0.3690,0.1312,
2.647026,0.4772,4.5057,0.0097,-1.0398,0.1032,-0.4076,
2.701600,0.4772,4.5057,0.0097,-1.0398,0.1032,-0.4076,
2.703541,-1.1517,-1.5455,-0.2582,-1.0398,0.1032,-0.4076,
2.712307,-1.1517,-1.5455,-0.2582,-1.1710,0.0870,-0.1779,
2.765881,-1.1517,-1.5455,-0.2582,-1.1710,0.0870,-0.1779,
2.767985,-0.4350,-1.8411,-0.8898,-1.1710,0.0870,-0.1779,
2.777844,-0.4350,-1.8411,-0.8898,-0.8624,-0.1863,-0.3149,
2.831872,-0.4350,-1.8411,-0.8898,-0.8624,-0.1863,-0.3149,
2.833198,-0.9081,-2.6253,-1.1723,-0.8624,-0.1863,-0.3149,
2.843855,-0.9081,-2.6253,-1.1723,-0.4352,-0.3494,-0.0396,
2.897149,-0.9081,-2.6253,-1.1723,-0.4352,-0.3494,-0.0396,
2.898362,-0.5407,-2.1072,-0.6649,-0.4352,-0.3494,-0.0396,
2.909183,-0.5407,-2.1072,-0.6649,-0.1067,-0.7535,0.1804,
2.963203,-0.5407,-2.1072,-0.6649,-0.1067,-0.7535,0.1804,
2.964813,0.1310,-2.4570,0.0261,-0.1067,-0.7535,0.1804,
2.974573,0.1310,-2.4570,0.0261,0.6200,-1.0689,0.2329,
3.028863,0.1310,-2.4570,0.0261,0.6200,-1.0689,0.2329,
3.030055,0.0582,-2.3342,0.3010,0.6200,-1.0689,0.2329,
3.040372,0.0582,-2.3342,0.3010,0.9305,-1.2677,0.2283,
3.094560,0.0582,-2.3342,0.3010,0.9305,-1.2677,0.2283,
3.095571,0.7646,2.7767,0.9146,0.9305,-1.2677,0.2283,
3.105869,0.7646,2.7767,0.9146,0.3816,-1.1403,0.0530,
3.159105,0.7646,2.7767,0.9146,0.3816,-1.1403,0.0530,
3.159952,1.0715,4.0622,-1.3472,0.3816,-1.1403,0.0530,
3.170866,1.0715,4.0622,-1.3472,-0.2837,-0.2692,-0.3167,
3.226228,1.0715,4.0622,-1.3472,-0.2837,-0.2692,-0.3167,
3.228324,0.2159,0.0107,-0.4068,-0.2837,-0.2692,-0.3167,
3.235832,0.2159,0.0107,-0.4068,0.2167,0.5933,-0.0524,
3.290115,0.2159,0.0107,-0.4068,0.2167,0.5933,-0.0524,
3.291065,-0.0216,-0.4529,-1.7234,0.2167,0.5933,-0.0524,
3.302002,-0.0216,-0.4529,-1.7234,0.6857,0.5153,0.2349,
3.355882,-0.0216,-0.4529,-1.7234,0.6857,0.5153,0.2349,
3.357025,0.1292,-0.1149,-0.7263,0.6857,0.5153,0.2349,
3.367107,0.1292,-0.1149,-0.7263,0.2786,0.0092,0.0557,
3.421929,0.1292,-0.1149,-0.7263,0.2786,0.0092,0.0557,
3.423576,0.8325,-0.0001,-0.4333,0.2786,0.0092,0.0557,
3.433773,0.8325,-0.0001,-0.4333,0.3151,0.1019,0.0522,
3.487289,0.8325,-0.0001,-0.4333,0.3151,0.1019,0.0522,
3.488816,0.7656,-0.2015,-0.2755,0.3151,0.1019,0.0522,
3.499181,0.7656,-0.2015,-0.2755,0.1791,-0.0467,0.0029,
3.552827,0.7656,-0.2015,-0.2755,0.1791,-0.0467,0.0029,
3.554411,0.4164,-0.5465,0.0252,0.1791,-0.0467,0.0029,
3.564113,0.4164,-0.5465,0.0252,0.0722,-0.1804,-0.0910,
3.618244,0.4164,-0.5465,0.0252,0.0722,-0.1804,-0.0910,
3.619934,1.2828,-0.3573,0.5159,0.0722,-0.1804,-0.0910,
3.629154,1.2828,-0.3573,0.5159,0.0241,-0.3143,-0.1576,
3.683683,1.2828,-0.3573,0.5159,0.0241,-0.3143,-0.1576,
3.685147,1.9408,-0.6250,0.7702,0.0241,-0.3143,-0.1576,
3.695000,1.9408,-0.6250,0.7702,0.3172,0.0289,-0.0447,
3.750117,1.9408,-0.6250,0.7702,0.3172,0.0289,-0.0447,
3.752406,0.3835,1.6874,-0.6637,0.3172,0.0289,-0.0447,
3.760440,0.3835,1.6874,-0.6637,0.6038,0.0428,0.1061,
3.814262,0.3835,1.6874,-0.6637,0.6038,0.0428,0.1061,
3.816301,-0.1111,6.1177,-0.8851,0.6038,0.0428,0.1061,
3.826467,-0.1111,6.1177,-0.8851,-0.4869,0.2352,-0.0959,
3.881338,-0.1111,6.1177,-0.8851,-0.4869,0.2352,-0.0959,
3.883234,-0.2156,0.0322,-0.6617,-0.4869,0.2352,-0.0959,
3.892656,-0.2156,0.0322,-0.6617,-1.2694,0.3173,-0.1892,
3.945956,-0.2156,0.0322,-0.6617,-1.2694,0.3173,-0.1892,
3.947878,-0.5786,-0.9487,-0.4962,-1.2694,0.3173,-0.1892,
3.957423,-0.5786,-0.9487,-0.4962,-1.0725,0.3079,-0.3393,
4.011037,-0.5786,-0.9487,-0.4962,-1.0725,0.3079,-0.3393,
4.012167,-0.4027,-2.5812,-1.1111,-1.0725,0.3079,-0.3393,
4.021907,-0.4027,-2.5812,-1.1111,-0.8134,-0.0195,-0.2436,
4.076865,-0.4027,-2.5812,-1.1111,-0.8134,-0.0195,-0.2436,
4.078531,-0.3783,-3.0806,-0.9240,-0.8134,-0.0195,-0.2436,
4.088187,-0.3783,-3.0806,-0.9240,-0.3422,0.1765,-0.1568,
4.142697,-0.3783,-3.0806,-0.9240,-0.3422,0.1765,-0.1568,
4.144608,0.2105,-2.9311,-0.8000,-0.3422,0.1765,-0.1568,
4.153905,0.2105,-2.9311,-0.8000,0.0735,0.2402,0.0614,
4.207644,0.2105,-2.9311,-0.8000,0.0735,0.2402,0.0614,
4.208895,-0.5288,-2.1770,0.6463,0.0735,0.2402,0.0614,
4.218461,-0.5288,-2.1770,0.6463,0.2529,-0.1423,0.4667,
4.273470,-0.5288,-2.1770,0.6463,0.2529,-0.1423,0.4667,
4.274698,0.2004,-0.6534,1.1577,0.2529,-0.1423,0.4667,
4.284265,0.2004,-0.6534,1.1577,0.4484,-0.5851,0.5380,
4.338308,0.2004,-0.6534,1.1577,0.4484,-0.5851,0.5380,
4.339730,0.7586,0.7167,-1.0460,0.4484,-0.5851,0.5380,
4.349625,0.7586,0.7167,-1.0460,-0.4326,-0.0483,0.3488,
4.404395,0.7586,0.7167,-1.0460,-0.4326,-0.0483,0.3488,
4.405921,-1.0442,5.8767,-0.1334,-0.4326,-0.0483,0.3488,
4.416645,-1.0442,5.8767,-0.1334,0.4305,-0.1356,-0.0299,
4.469579,-1.0442,5.8767,-0.1334,0.4305,-0.1356,-0.0299,
4.471912,1.4584,-3.0452,-1.5860,0.4305,-0.1356,-0.0299,
4.480254,1.4584,-3.0452,-1.5860,0.3694,0.7330,0.3238,
4.536301,1.4584,-3.0452,-1.5860,0.3694,0.7330,0.3238,
4.537987,0.1732,1.2788,0.1358,0.3694,0.7330,0.3238,
4.545943,0.1732,1.2788,0.1358,0.7636,0.8296,0.0785,
4.601652,0.1732,1.2788,0.1358,0.7636,0.8296,0.0785,
4.603021,-0.3220,-0.0873,-0.9490,0.7636,0.8296,0.0785,
4.610869,-0.3220,-0.0873,-0.9490,0.4792,0.4609,0.0762,
4.666362,-0.3220,-0.0873,-0.9490,0.4792,0.4609,0.0762,
4.668246,0.0783,-0.7779,-0.0863,0.4792,0.4609,0.0762,
4.677639,0.0783,-0.7779,-0.0863,0.3896,0.1417,-0.1118,
4.731197,0.0783,-0.7779,-0.0863,0.3896,0.1417,-0.1118,
4.732010,0.9110,-0.5544,-0.2247,0.3896,0.1417,-0.1118,
4.742529,0.9110,-0.5544,-0.2247,0.3989,-0.1787,-0.1336,
4.797694,0.9110,-0.5544,-0.2247,0.3989,-0.1787,-0.1336,
4.799937,0.5153,-0.9772,0.3304,0.3989,-0.1787,-0.1336,
4.811399,0.5153,-0.9772,0.3304,0.4632,-0.2596,-0.2059,
4.862253,0.5153,-0.9772,0.3304,0.4632,-0.2596,-0.2059,
4.862959,1.4871,1.0142,0.5758,0.4632,-0.2596,-0.2059,
4.873528,1.4871,1.0142,0.5758,0.0777,-0.3239,-0.1284,
4.927687,1.4871,1.0142,0.5758,0.0777,-0.3239,-0.1284,
4.928442,1.0983,0.9532,-0.6320,0.0777,-0.3239,-0.1284,
4.939998,1.0983,0.9532,-0.6320,0.0040,-0.0864,0.2248,
4.994386,1.0983,0.9532,-0.6320,0.0040,-0.0864,0.2248,
4.996274,-0.0550,5.1405,-1.6818,0.0040,-0.0864,0.2248,
5.004519,-0.0550,5.1405,-1.6818,-0.4943,-0.1014,0.1333,
5.058289,-0.0550,5.1405,-1.6818,-0.4943,-0.1014,0.1333,
5.060033,0.0770,1.2249,-0.7272,-0.4943,-0.1014,0.1333,
5.069665,0.0770,1.2249,-0.7272,-1.1020,-0.2036,-0.3122,
5.125647,0.0770,1.2249,-0.7272,-1.1020,-0.2036,-0.3122,
5.127795,0.3814,-0.3559,0.0712,-1.1020,-0.2036,-0.3122,
5.136733,0.3814,-0.3559,0.0712,-1.2016,0.0738,-0.5947,
5.191024,0.3814,-0.3559,0.0712,-1.2016,0.0738,-0.5947,
5.192645,-0.3475,-2.1658,-0.2135,-1.2016,0.0738,-0.5947,
5.200912,-0.3475,-2.1658,-0.2135,-0.8187,-0.3079,-0.3338,
5.256361,-0.3475,-2.1658,-0.2135,-0.8187,-0.3079,-0.3338,
5.257888,-0.1972,-3.3739,-1.0296,-0.8187,-0.3079,-0.3338,
5.268099,-0.1972,-3.3739,-1.0296,-0.5334,-0.0615,-0.2611,
5.322491,-0.1972,-3.3739,-1.0296,-0.5334,-0.0615,-0.2611,
5.325279,0.1055,-2.1194,-1.1251,-0.5334,-0.0615,-0.2611,
5.335949,0.1055,-2.1194,-1.1251,-0.2683,-0.1356,0.0211,
5.386753,0.1055,-2.1194,-1.1251,-0.2683,-0.1356,0.0211,
5.387871,-0.6873,-3.0957,-0.0712,-0.2683,-0.1356,0.0211,
5.397479,-0.6873,-3.0957,-0.0712,0.1910,-0.4151,0.1906,
5.453119,-0.6873,-3.0957,-0.0712,0.1910,-0.4151,0.1906,
5.454094,0.9278,-1.7080,1.3244,0.1910,-0.4151,0.1906,
5.462458,0.9278,-1.7080,1.3244,0.5148,-0.2558,0.2770,
5.517738,0.9278,-1.7080,1.3244,0.5148,-0.2558,0.2770,
5.518825,0.4980,-0.5032,1.9798,0.5148,-0.2558,0.2770,
5.528171,0.4980,-0.5032,1.9798,0.5973,-0.3563,0.3680,
5.581675,0.4980,-0.5032,1.9798,0.5973,-0.3563,0.3680,
5.582983,0.4397,2.9767,0.1278,0.5973,-0.3563,0.3680,
5.592805,0.4397,2.9767,0.1278,0.1666,-0.1203,0.1110,
5.648377,0.4397,2.9767,0.1278,0.1666,-0.1203,0.1110,
5.649419,-0.3579,4.1111,-0.6724,0.1666,-0.1203,0.1110,
5.659035,-0.3579,4.1111,-0.6724,0.4580,0.2059,-0.2757,
5.712722,-0.3579,4.1111,-0.6724,0.4580,0.2059,-0.2757,
5.713954,0.7381,-2.8755,-3.9291,0.4580,0.2059,-0.2757,
5.724493,0.7381,-2.8755,-3.9291,0.8493,1.3954,0.2483,
5.779893,0.7381,-2.8755,-3.9291,0.8493,1.3954,0.2483,
5.781063,-0.2793,0.4319,-0.9836,0.8493,1.3954,0.2483,
5.790421,-0.2793,0.4319,-0.9836,0.6493,0.3080,0.1028,
5.844292,-0.2793,0.4319,-0.9836,0.6493,0.3080,0.1028,
5.845435,0.5628,-0.1232,-0.6740,0.6493,0.3080,0.1028,
5.855122,0.5628,-0.1232,-0.6740,0.5415,0.3784,0.0756,
5.909473,0.5628,-0.1232,-0.6740,0.5415,0.3784,0.0756,
5.911022,-0.3288,0.3116,-0.6971,0.5415,0.3784,0.0756,
5.920865,-0.3288,0.3116,-0.6971,0.3557,0.2798,0.0999,
5.975874,-0.3288,0.3116,-0.6971,0.3557,0.2798,0.0999,
5.977526,0.3996,-0.3231,-0.2352,0.3557,0.2798,0.0999,
5.986157,0.3996,-0.3231,-0.2352,0.2476,-0.2921,0.1628,
6.041791,0.3996,-0.3231,-0.2352,0.2476,-0.2921,0.1628,
6.043715,0.4960,-0.2932,1.1104,0.2476,-0.2921,0.1628,
6.052900,0.4960,-0.2932,1.1104,0.1419,-0.4925,-0.0105,
6.106429,0.4960,-0.2932,1.1104,0.1419,-0.4925,-0.0105,
6.108254,2.5057,0.1045,0.8416,0.1419,-0.4925,-0.0105,
6.117373,2.5057,0.1045,0.8416,0.1364,-0.3251,0.0139,
6.171946,2.5057,0.1045,0.8416,0.1364,-0.3251,0.0139,
6.172969,2.2751,1.8613,0.3222,0.1364,-0.3251,0.0139,
6.183979,2.2751,1.8613,0.3222,0.0948,0.0031,0.0641,
6.237666,2.2751,1.8613,0.3222,0.0948,0.0031,0.0641,
6.239571,0.3269,5.0810,-1.4962,0.0948,0.0031,0.0641,
6.248869,0.3269,5.0810,-1.4962,-0.7566,0.1628,-0.1440,
6.301164,0.3269,5.0810,-1.4962,-0.7566,0.1628,-0.1440,
6.301785,-2.3057,0.1068,-1.3434,-0.7566,0.1628,-0.1440,
6.314306,-2.3057,0.1068,-1.3434,-1.2956,0.0208,-0.2225,
6.367583,-2.3057,0.1068,-1.3434,-1.2956,0.0208,-0.2225,
6.369194,-0.6394,-0.8300,-0.6798,-1.2956,0.0208,-0.2225,
6.379971,-0.6394,-0.8300,-0.6798,-1.2454,-0.5307,-0.2440,
6.434351,-0.6394,-0.8300,-0.6798,-1.2454,-0.5307,-0.2440,
6.436379,-0.2713,-3.0088,-0.5952,-1.2454,-0.5307,-0.2440,
6.445439,-0.2713,-3.0088,-0.5952,-0.8552,-0.2066,-0.2271,
6.499352,-0.2713,-3.0088,-0.5952,-0.8552,-0.2066,-0.2271,
6.501525,0.2280,-2.9031,-0.6913,-0.8552,-0.2066,-0.2271,
6.510356,0.2280,-2.9031,-0.6913,-0.5147,0.2370,0.0434,
6.564735,0.2280,-2.9031,-0.6913,-0.5147,0.2370,0.0434,
6.567100,0.0205,-1.6947,0.2517,-0.5147,0.2370,0.0434,
6.575808,0.0205,-1.6947,0.2517,-0.0889,-0.1856,0.4249,
6.631300,0.0205,-1.6947,0.2517,-0.0889,-0.1856,0.4249,
6.633122,0.2848,-3.6875,0.5483,-0.0889,-0.1856,0.4249,
6.642809,0.2848,-3.6875,0.5483,0.8189,-0.2805,0.2129,
6.694167,0.2848,-3.6875,0.5483,0.8189,-0.2805,0.2129,
6.695751,1.7958,-1.8646,0.4672,0.8189,-0.2805,0.2129,
6.707039,1.7958,-1.8646,0.4672,1.0716,0.2642,0.4169,
6.761470,1.7958,-1.8646,0.4672,1.0716,0.2642,0.4169,
6.762391,-0.3561,-1.3316,1.3230,1.0716,0.2642,0.4169,
6.772086,-0.3561,-1.3316,1.3230,0.2866,0.5229,0.5542,
6.826411,-0.3561,-1.3316,1.3230,0.2866,0.5229,0.5542,
6.827534,-5.9705,11.8892,-4.3927,0.2866,0.5229,0.5542,
6.837199,-5.9705,11.8892,-4.3927,0.5621,-1.2150,-2.1466,
6.892402,-5.9705,11.8892,-4.3927,0.5621,-1.2150,-2.1466,
6.893265,2.0839,-5.9666,-3.8830,0.5621,-1.2150,-2.1466,
6.903012,2.0839,-5.9666,-3.8830,0.6177,1.6299,0.7278,
6.958313,2.0839,-5.9666,-3.8830,0.6177,1.6299,0.7278,
6.959176,-0.7724,4.0950,0.7758,0.6177,1.6299,0.7278,
6.969087,-0.7724,4.0950,0.7758,0.3303,-0.0941,-0.1732,
7.024003,-0.7724,4.0950,0.7758,0.3303,-0.0941,-0.1732,
7.025142,1.9885,-2.2333,-2.2536,0.3303,-0.0941,-0.1732,
7.033997,1.9885,-2.2333,-2.2536,0.4247,0.7807,0.3748,
7.088719,1.9885,-2.2333,-2.2536,0.4247,0.7807,0.3748,
7.089751,-1.2154,1.8071,-1.0496,0.4247,0.7807,0.3748,
7.100356,-1.2154,1.8071,-1.0496,0.2995,0.7274,-0.1765,
7.154236,-1.2154,1.8071,-1.0496,0.2995,0.7274,-0.1765,
7.155647,0.5300,-0.1242,0.0550,0.2995,0.7274,-0.1765,
7.164821,0.5300,-0.1242,0.0550,0.1177,-0.2334,0.4145,
7.219343,0.5300,-0.1242,0.0550,0.1177,-0.2334,0.4145,
7.220331,0.6363,0.0425,0.3024,0.1177,-0.2334,0.4145,
7.229693,0.6363,0.0425,0.3024,-0.1717,-0.0548,0.0832,
7.284586,0.6363,0.0425,0.3024,-0.1717,-0.0548,0.0832,
7.285719,0.4774,-0.3421,0.6204,-0.1717,-0.0548,0.0832,
7.295627,0.4774,-0.3421,0.6204,-0.2866,-0.3841,-0.0400,
7.349710,0.4774,-0.3421,0.6204,-0.2866,-0.3841,-0.0400,
7.351717,1.5168,-0.6160,0.7320,-0.2866,-0.3841,-0.0400,
7.361151,1.5168,-0.6160,0.7320,-0.1295,-0.5531,-0.1297,
7.416969,1.5168,-0.6160,0.7320,-0.1295,-0.5531,-0.1297,
7.417963,1.9185,-0.7190,0.2114,-0.1295,-0.5531,-0.1297,
7.427458,1.9185,-0.7190,0.2114,0.2347,-0.3589,-0.0744,
7.480283,1.9185,-0.7190,0.2114,0.2347,-0.3589,-0.0744,
7.481428,1.0930,0.5754,-0.2706,0.2347,-0.3589,-0.0744,
7.492501,1.0930,0.5754,-0.2706,0.4094,-0.0180,0.2133,
7.546945,1.0930,0.5754,-0.2706,0.4094,-0.0180,0.2133,
7.548164,1.1732,3.4547,-0.1367,0.4094,-0.0180,0.2133,
7.557903,1.1732,3.4547,-0.1367,0.1286,-0.0673,0.1520,
7.613393,1.1732,3.4547,-0.1367,0.1286,-0.0673,0.1520,
7.614488,0.6845,2.2253,-0.7410,0.1286,-0.0673,0.1520,
7.625125,0.6845,2.2253,-0.7410,-0.6107,0.5403,-0.1097,
7.677670,0.6845,2.2253,-0.7410,-0.6107,0.5403,-0.1097,
7.678871,-1.1109,-0.9081,-0.4562,-0.6107,0.5403,-0.1097,
7.688612,-1.1109,-0.9081,-0.4562,-1.1713,0.4916,-0.1491,
7.742999,-1.1109,-0.9081,-0.4562,-1.1713,0.4916,-0.1491,
7.744205,-0.9756,-0.6329,-0.5281,-1.1713,0.4916,-0.1491,
7.754500,-0.9756,-0.6329,-0.5281,-0.9610,0.0750,-0.0817,
7.808625,-0.9756,-0.6329,-0.5281,-0.9610,0.0750,-0.0817,
7.809941,-0.1160,-1.8194,-0.5422,-0.9610,0.0750,-0.0817,
7.819466,-0.1160,-1.8194,-0.5422,-0.5881,0.0111,-0.0061,
7.874208,-0.1160,-1.8194,-0.5422,-0.5881,0.0111,-0.0061,
7.875662,-0.4250,-1.6790,-0.0163,-0.5881,0.0111,-0.0061,
7.884646,-0.4250,-1.6790,-0.0163,-0.2543,0.0389,0.0878,
7.938633,-0.4250,-1.6790,-0.0163,-0.2543,0.0389,0.0878,
7.939257,0.0035,-2.9131,0.2326,-0.2543,0.0389,0.0878,
7.950931,0.0035,-2.9131,0.2326,0.3461,0.0154,0.0458,
8.005398,0.0035,-2.9131,0.2326,0.3461,0.0154,0.0458,
8.006503,0.1566,-2.6236,0.6859,0.3461,0.0154,0.0458,
8.017065,0.1566,-2.6236,0.6859,0.5910,0.1849,-0.0026,
8.070720,0.1566,-2.6236,0.6859,0.5910,0.1849,-0.0026,
8.071976,0.5003,-1.4441,1.3072,0.5910,0.1849,-0.0026,
8.081661,0.5003,-1.4441,1.3072,0.2520,0.0728,0.3073,
8.136270,0.5003,-1.4441,1.3072,0.2520,0.0728,0.3073,
8.137325,0.7363,-1.2222,-2.0059,0.2520,0.0728,0.3073,
8.147071,0.7363,-1.2222,-2.0059,-0.9053,0.3013,0.5600,
8.201556,0.7363,-1.2222,-2.0059,-0.9053,0.3013,0.5600,
8.203236,-5.7570,5.1152,-0.7176,-0.9053,0.3013,0.5600,
8.213532,-5.7570,5.1152,-0.7176,0.1028,-0.8935,0.2379,
8.267330,-5.7570,5.1152,-0.7176,0.1028,-0.8935,0.2379,
8.269080,4.6767,1.7633,-4.2284,0.1028,-0.8935,0.2379,
8.278783,4.6767,1.7633,-4.2284,0.9516,1.1710,-0.2046,
8.332989,4.6767,1.7633,-4.2284,0.9516,1.1710,-0.2046,
8.334742,-0.7772,-0.6072,-1.0877,0.9516,1.1710,-0.2046,
8.346925,-0.7772,-0.6072,-1.0877,0.5927,0.6333,-0.0370,
8.398760,-0.7772,-0.6072,-1.0877,0.5927,0.6333,-0.0370,
8.399601,-0.3795,-3.0322,-2.2436,0.5927,0.6333,-0.0370,
8.408078,-0.3795,-3.0322,-2.2436,0.6900,0.8693,0.0600,
8.463330,-0.3795,-3.0322,-2.2436,0.6900,0.8693,0.0600,
8.464961,0.6393,2.0838,-0.3549,0.6900,0.8693,0.0600,
8.475253,0.6393,2.0838,-0.3549,0.2677,0.3228,0.0081,
8.529735,0.6393,2.0838,-0.3549,0.2677,0.3228,0.0081,
8.531793,-0.0252,-1.3877,-0.7534,0.2677,0.3228,0.0081,
8.540473,-0.0252,-1.3877,-0.7534,0.3664,-0.1292,0.3616,
8.596738,-0.0252,-1.3877,-0.7534,0.3664,-0.1292,0.3616,
8.599096,0.3129,0.8537,0.1888,0.3664,-0.1292,0.3616,
8.606424,0.3129,0.8537,0.1888,-0.0929,-0.4838,0.1797,
8.662197,0.3129,0.8537,0.1888,-0.0929,-0.4838,0.1797,
8.664440,1.3071,-0.8299,0.0767,-0.0929,-0.4838,0.1797,
8.672952,1.3071,-0.8299,0.0767,-0.1495,-0.1028,0.1625,
8.725384,1.3071,-0.8299,0.0767,-0.1495,-0.1028,0.1625,
8.725940,0.5706,-0.5302,0.6612,-0.1495,-0.1028,0.1625,
8.736880,0.5706,-0.5302,0.6612,0.0258,-0.1538,-0.0999,
8.789754,0.5706,-0.5302,0.6612,0.0258,-0.1538,-0.0999,
8.790359,0.4597,-0.3665,0.6068,0.0258,-0.1538,-0.0999,
8.802449,0.4597,-0.3665,0.6068,0.0370,-0.3601,-0.1775,
8.855306,0.4597,-0.3665,0.6068,0.0370,-0.3601,-0.1775,
8.855975,1.8710,-0.3414,0.1018,0.0370,-0.3601,-0.1775,
8.868790,1.8710,-0.3414,0.1018,0.2925,-0.2764,-0.0157,
8.922371,1.8710,-0.3414,0.1018,0.2925,-0.2764,-0.0157,
8.923213,2.6356,3.4437,0.1616,0.2925,-0.2764,-0.0157,
8.932931,2.6356,3.4437,0.1616,0.4704,0.2720,0.1804,
8.986073,2.6356,3.4437,0.1616,0.4704,0.2720,0.1804,
8.986929,1.2881,3.8540,-0.4084,0.4704,0.2720,0.1804,
8.998316,1.2881,3.8540,-0.4084,-0.5605,0.5730,-0.1388,
9.052188,1.2881,3.8540,-0.4084,-0.5605,0.5730,-0.1388,
9.053076,-1.4225,-0.7933,-1.5151,-0.5605,0.5730,-0.1388,
9.063221,-1.4225,-0.7933,-1.5151,-1.1558,0.8989,-0.0848,
9.118334,-1.4225,-0.7933,-1.5151,-1.1558,0.8989,-0.0848,
9.120065,-0.4203,-1.2720,-0.8544,-1.1558,0.8989,-0.0848,
9.130950,-0.4203,-1.2720,-0.8544,-1.0244,0.3865,-0.0803,
9.184097,-0.4203,-1.2720,-0.8544,-1.0244,0.3865,-0.0803,
9.185650,-0.6277,-1.6419,-0.7126,-1.0244,0.3865,-0.0803,
9.194986,-0.6277,-1.6419,-0.7126,-0.7827,0.4262,-0.1298,
9.248635,-0.6277,-1.6419,-0.7126,-0.7827,0.4262,-0.1298,
9.249721,-0.9289,-1.7304,-0.0901,-0.7827,0.4262,-0.1298,
9.261239,-0.9289,-1.7304,-0.0901,-0.4458,0.2465,0.0823,
9.315302,-0.9289,-1.7304,-0.0901,-0.4458,0.2465,0.0823,
9.317241,0.2980,-2.1188,0.1294,-0.4458,0.2465,0.0823,
9.326219,0.2980,-2.1188,0.1294,-0.0218,0.0635,0.1495,
9.381743,0.2980,-2.1188,0.1294,-0.0218,0.0635,0.1495,
9.383680,0.8250,-3.2411,1.1067,-0.0218,0.0635,0.1495,
9.392424,0.8250,-3.2411,1.1067,0.6857,0.1240,0.0857,
9.446268,0.8250,-3.2411,1.1067,0.6857,0.1240,0.0857,
9.448183,1.2385,-2.1222,1.0123,0.6857,0.1240,0.0857,
9.458726,1.2385,-2.1222,1.0123,0.7234,0.8016,0.3564,
9.512331,1.2385,-2.1222,1.0123,0.7234,0.8016,0.3564,
9.513912,-0.2390,-0.7875,2.1856,0.7234,0.8016,0.3564,
9.522237,-0.2390,-0.7875,2.1856,0.4664,0.7868,0.4375,
9.576001,-0.2390,-0.7875,2.1856,0.4664,0.7868,0.4375,
9.577820,-2.6614,10.9878,-0.4747,0.4664,0.7868,0.4375,
9.588677,-2.6614,10.9878,-0.4747,-0.1620,-0.5270,-1.4215,
9.641745,-2.6614,10.9878,-0.4747,-0.1620,-0.5270,-1.4215,
9.643555,3.2886,-2.0390,-3.3823,-0.1620,-0.5270,-1.4215,
9.653158,3.2886,-2.0390,-3.3823,0.7336,1.5504,0.4490,
9.707362,3.2886,-2.0390,-3.3823,0.7336,1.5504,0.4490,
9.709378,-0.6531,1.0522,-2.1226,0.7336,1.5504,0.4490,
9.718542,-0.6531,1.0522,-2.1226,0.8347,1.0056,-0.0936,
9.773817,-0.6531,1.0522,-2.1226,0.8347,1.0056,-0.0936,
9.775208,-0.3504,-2.3423,-1.7488,0.8347,1.0056,-0.0936,
9.783688,-0.3504,-2.3423,-1.7488,0.5247,0.7482,-0.1077,
9.838518,-0.3504,-2.3423,-1.7488,0.5247,0.7482,-0.1077,
9.839803,0.5581,1.3148,-1.0612,0.5247,0.7482,-0.1077,
9.849549,0.5581,1.3148,-1.0612,0.3746,0.2263,0.1222,
9.903833,0.5581,1.3148,-1.0612,0.3746,0.2263,0.1222,
9.905420,0.0775,-0.0915,-0.7324,0.3746,0.2263,0.1222,
9.914760,0.0775,-0.0915,-0.7324,0.0802,-0.4417,0.4647,
9.968326,0.0775,-0.0915,-0.7324,0.0802,-0.4417,0.4647,
9.969404,0.0264,-0.3194,-0.0908,0.0802,-0.4417,0.4647,
9.980044,0.0264,-0.3194,-0.0908,0.0530,-0.5066,0.3086,
10.033650,0.0264,-0.3194,-0.0908,0.0530,-0.5066,0.3086,
10.034309,1.0863,-0.3511,0.0152,0.0530,-0.5066,0.3086,
10.046920,1.0863,-0.3511,0.0152,-0.1799,-0.7277,0.1148,
10.100086,1.0863,-0.3511,0.0152,-0.1799,-0.7277,0.1148,
10.101438,1.1692,-0.6404,1.0921,-0.1799,-0.7277,0.1148,
10.111022,1.1692,-0.6404,1.0921,-0.0683,-0.6326,-0.1507,
10.165880,1.1692,-0.6404,1.0921,-0.0683,-0.6326,-0.1507,
10.166431,1.5968,-0.4663,1.1629,-0.0683,-0.6326,-0.1507,
10.177180,1.5968,-0.4663,1.1629,0.0997,-0.3905,-0.3022,
10.232298,1.5968,-0.4663,1.1629,0.0997,-0.3905,-0.3022,
10.234180,2.5347,0.4979,0.1915,0.0997,-0.3905,-0.3022,
10.242147,2.5347,0.4979,0.1915,0.3424,0.2454,0.0119,
10.296538,2.5347,0.4979,0.1915,0.3424,0.2454,0.0119,
10.298039,1.0994,4.8342,-0.0969,0.3424,0.2454,0.0119,
10.308051,1.0994,4.8342,-0.0969,0.1529,0.1245,-0.0458,
10.361599,1.0994,4.8342,-0.0969,0.1529,0.1245,-0.0458,
10.362452,0.6513,1.9925,-0.5920,0.1529,0.1245,-0.0458,
10.374860,0.6513,1.9925,-0.5920,-0.8141,0.2772,-0.0941,
10.427019,0.6513,1.9925,-0.5920,-0.8141,0.2772,-0.0941,
10.428723,-0.3678,-1.5001,-0.8470,-0.8141,0.2772,-0.0941,
10.438999,-0.3678,-1.5001,-0.8470,-1.1153,0.7367,0.0640,
10.493095,-0.3678,-1.5001,-0.8470,-1.1153,0.7367,0.0640,
10.494566,-0.5596,-0.9557,-0.5993,-1.1153,0.7367,0.0640,
10.503865,-0.5596,-0.9557,-0.5993,-0.9397,0.3514,-0.0750,
10.557330,-0.5596,-0.9557,-0.5993,-0.9397,0.3514,-0.0750,
10.559143,-0.4218,-2.1415,-0.2015,-0.9397,0.3514,-0.0750,
10.569287,-0.4218,-2.1415,-0.2015,-0.5586,0.5877,-0.0545,
10.623044,-0.4218,-2.1415,-0.2015,-0.5586,0.5877,-0.0545,
10.624230,-0.1421,-1.5622,0.1401,-0.5586,0.5877,-0.0545,
10.634329,-0.1421,-1.5622,0.1401,-0.2355,0.5786,0.1472,
10.689785,-0.1421,-1.5622,0.1401,-0.2355,0.5786,0.1472,
10.690551,-0.4674,-2.1975,0.0689,-0.2355,0.5786,0.1472,
10.700712,-0.4674,-2.1975,0.0689,0.1651,0.1487,0.1556,
10.754737,-0.4674,-2.1975,0.0689,0.1651,0.1487,0.1556,
10.756931,-0.6981,-2.0151,-0.3581,0.1651,0.1487,0.1556,
10.766440,-0.6981,-2.0151,-0.3581,0.1410,-0.3225,0.1672,
10.822360,-0.6981,-2.0151,-0.3581,0.1410,-0.3225,0.1672,
10.824789,1.4465,-2.2572,1.4588,0.1410,-0.3225,0.1672,
10.831313,1.4465,-2.2572,1.4588,0.2376,-0.3682,0.4162,
10.885934,1.4465,-2.2572,1.4588,0.2376,-0.3682,0.4162,
10.887903,1.7441,-1.7982,-0.6317,0.2376,-0.3682,0.4162,
10.897097,1.7441,-1.7982,-0.6317,-0.0435,0.8874,0.1741,
10.950285,1.7441,-1.7982,-0.6317,-0.0435,0.8874,0.1741,
10.950904,-1.8894,5.6094,0.5815,-0.0435,0.8874,0.1741,
10.962202,-1.8894,5.6094,0.5815,0.8416,0.2330,-0.2789,
11.017400,-1.8894,5.6094,0.5815,0.8416,0.2330,-0.2789,
11.017939,1.8757,-2.9915,-4.3727,0.8416,0.2330,-0.2789,
11.028333,1.8757,-2.9915,-4.3727,1.1484,1.9096,-0.0008,
11.081857,1.8757,-2.9915,-4.3727,1.1484,1.9096,-0.0008,
11.084033,0.1264,-0.1011,-1.3474,1.1484,1.9096,-0.0008,
11.094318,0.1264,-0.1011,-1.3474,0.6125,1.3132,-0.0275,
11.147910,0.1264,-0.1011,-1.3474,0.6125,1.3132,-0.0275,
11.149674,0.4273,-1.0983,-1.1626,0.6125,1.3132,-0.0275,
11.160928,0.4273,-1.0983,-1.1626,0.7320,1.1467,0.0951,
11.214396,0.4273,-1.0983,-1.1626,0.7320,1.1467,0.0951,
11.216176,-0.0054,1.3819,-0.7061,0.7320,1.1467,0.0951,
11.226123,-0.0054,1.3819,-0.7061,0.2676,0.4323,0.2485,
11.281134,-0.0054,1.3819,-0.7061,0.2676,0.4323,0.2485,
11.282674,0.0928,-1.0515,-0.1593,0.2676,0.4323,0.2485,
11.290232,0.0928,-1.0515,-0.1593,0.2934,-0.2469,0.4598,
11.346520,0.0928,-1.0515,-0.1593,0.2934,-0.2469,0.4598,
11.348385,0.3383,0.0323,0.2919,0.2934,-0.2469,0.4598,
11.357189,0.3383,0.0323,0.2919,-0.0626,-0.2640,0.1665,
11.408946,0.3383,0.0323,0.2919,-0.0626,-0.2640,0.1665,
11.409724,1.1090,-0.6869,0.8310,-0.0626,-0.2640,0.1665,
11.421196,1.1090,-0.6869,0.8310,-0.1575,-0.3319,-0.1405,
11.476006,1.1090,-0.6869,0.8310,-0.1575,-0.3319,-0.1405,
11.476628,1.2406,-0.6440,0.9547,-0.1575,-0.3319,-0.1405,
11.486187,1.2406,-0.6440,0.9547,-0.0617,-0.0739,-0.3627,
11.541730,1.2406,-0.6440,0.9547,-0.0617,-0.0739,-0.3627,
11.542847,2.4970,1.3924,-0.1332,-0.0617,-0.0739,-0.3627,
11.552069,2.4970,1.3924,-0.1332,0.0447,0.2584,-0.3122,
11.604882,2.4970,1.3924,-0.1332,0.0447,0.2584,-0.3122,
11.605984,1.6834,3.3835,-0.0178,0.0447,0.2584,-0.3122,
11.617268,1.6834,3.3835,-0.0178,-0.1051,0.2836,-0.1805,
11.670992,1.6834,3.3835,-0.0178,-0.1051,0.2836,-0.1805,
11.671774,0.4448,1.6089,-1.2703,-0.1051,0.2836,-0.1805,
11.681813,0.4448,1.6089,-1.2703,-0.9523,0.5000,-0.1249,
11.737741,0.4448,1.6089,-1.2703,-0.9523,0.5000,-0.1249,
11.738496,-0.5093,-1.3436,-0.6602,-0.9523,0.5000,-0.1249,
11.748545,-0.5093,-1.3436,-0.6602,-1.1747,0.6159,-0.0987,
11.801933,-0.5093,-1.3436,-0.6602,-1.1747,0.6159,-0.0987,
11.802695,-0.2865,-0.4792,-0.2419,-1.1747,0.6159,-0.0987,
11.814163,-0.2865,-0.4792,-0.2419,-0.8636,0.2789,-0.0875,
11.867194,-0.2865,-0.4792,-0.2419,-0.8636,0.2789,-0.0875,
11.868671,-0.0040,-2.0025,0.1223,-0.8636,0.2789,-0.0875,
11.878708,-0.0040,-2.0025,0.1223,-0.5528,0.4389,0.0047,
11.933114,-0.0040,-2.0025,0.1223,-0.5528,0.4389,0.0047,
11.933859,0.2331,-2.4948,0.2844,-0.5528,0.4389,0.0047,
11.944146,0.2331,-2.4948,0.2844,-0.1180,0.5597,0.1524,
11.998263,0.2331,-2.4948,0.2844,-0.1180,0.5597,0.1524,
11.999322,-0.1975,-2.2776,0.9795,-0.1180,0.5597,0.1524,
12.009751,-0.1975,-2.2776,0.9795,0.3406,0.2485,0.2619,
12.063553,-0.1975,-2.2776,0.9795,0.3406,0.2485,0.2619,
12.064593,0.4956,-1.8558,1.0564,0.3406,0.2485,0.2619,
12.075000,0.4956,-1.8558,1.0564,0.6099,0.3372,0.2149,
12.129372,0.4956,-1.8558,1.0564,0.6099,0.3372,0.2149,
12.131423,1.5905,-1.8452,2.6248,0.6099,0.3372,0.2149,
12.141301,1.5905,-1.8452,2.6248,0.3624,0.2770,0.4898,
12.194508,1.5905,-1.8452,2.6248,0.3624,0.2770,0.4898,
12.195152,2.3292,9.0213,-0.8054,0.3624,0.2770,0.4898,
12.207450,2.3292,9.0213,-0.8054,-0.6306,1.4522,-0.5994,
12.260953,2.3292,9.0213,-0.8054,-0.6306,1.4522,-0.5994,
12.261535,0.2955,-2.6009,-3.7965,-0.6306,1.4522,-0.5994,
12.272299,0.2955,-2.6009,-3.7965,0.5939,1.4633,0.3862,
12.325991,0.2955,-2.6009,-3.7965,0.5939,1.4633,0.3862,
12.327814,-1.3326,0.3053,-3.1514,0.5939,1.4633,0.3862,
12.338021,-1.3326,0.3053,-3.1514,0.8094,1.4056,-0.0722,
12.393131,-1.3326,0.3053,-3.1514,0.8094,1.4056,-0.0722,
12.393824,0.0589,-0.9418,-1.6650,0.8094,1.4056,-0.0722,
12.402494,0.0589,-0.9418,-1.6650,0.5938,0.7201,-0.1232,
12.458095,0.0589,-0.9418,-1.6650,0.5938,0.7201,-0.1232,
12.458708,0.5543,-0.1391,-0.1039,0.5938,0.7201,-0.1232,
12.468611,0.5543,-0.1391,-0.1039,0.3041,0.4484,0.1463,
12.523542,0.5543,-0.1391,-0.1039,0.3041,0.4484,0.1463,
12.524929,0.1871,1.1091,-0.0969,0.3041,0.4484,0.1463,
12.535614,0.1871,1.1091,-0.0969,-0.0855,-0.1286,0.2488,
12.588748,0.1871,1.1091,-0.0969,-0.0855,-0.1286,0.2488,
12.589576,-0.3980,-1.3921,-0.4477,-0.0855,-0.1286,0.2488,
12.599165,-0.3980,-1.3921,-0.4477,-0.0536,-0.6170,0.2407,
12.653938,-0.3980,-1.3921,-0.4477,-0.0536,-0.6170,0.2407,
12.655198,0.8463,0.0551,0.4680,-0.0536,-0.6170,0.2407,
12.665962,0.8463,0.0551,0.4680,-0.2637,-0.7717,-0.0189,
12.719953,0.8463,0.0551,0.4680,-0.2637,-0.7717,-0.0189,
12.720696,1.2359,-0.3590,1.1957,-0.2637,-0.7717,-0.0189,
12.732718,1.2359,-0.3590,1.1957,-0.1558,-0.6695,-0.2376,
12.785749,1.2359,-0.3590,1.1957,-0.1558,-0.6695,-0.2376,
12.786964,1.4693,-0.5984,0.9926,-0.1558,-0.6695,-0.2376,
12.797077,1.4693,-0.5984,0.9926,0.1141,-0.6584,-0.2353,
12.849288,1.4693,-0.5984,0.9926,0.1141,-0.6584,-0.2353,
12.850946,2.1807,-0.0636,0.7850,0.1141,-0.6584,-0.2353,
12.860893,2.1807,-0.0636,0.7850,0.2786,-0.3920,-0.0820,
12.914412,2.1807,-0.0636,0.7850,0.2786,-0.3920,-0.0820,
12.915562,3.5076,2.8689,0.3334,0.2786,-0.3920,-0.0820,
12.926263,3.5076,2.8689,0.3334,0.2399,0.2114,-0.0110,
12.980259,3.5076,2.8689,0.3334,0.2399,0.2114,-0.0110,
12.981300,1.6934,3.8981,-0.2314,0.2399,0.2114,-0.0110,
12.991528,1.6934,3.8981,-0.2314,-0.6095,0.6846,-0.0069,
13.045720,1.6934,3.8981,-0.2314,-0.6095,0.6846,-0.0069,
13.046777,-1.4389,-1.0514,-0.6580,-0.6095,0.6846,-0.0069,
13.058424,-1.4389,-1.0514,-0.6580,-1.1678,1.1483,-0.1153,
13.111265,-1.4389,-1.0514,-0.6580,-1.1678,1.1483,-0.1153,
13.111974,-0.6141,-0.8464,-0.1252,-1.1678,1.1483,-0.1153,
13.123995,-0.6141,-0.8464,-0.1252,-0.9245,0.8888,-0.1142,
13.177868,-0.6141,-0.8464,-0.1252,-0.9245,0.8888,-0.1142,
13.179356,-1.7430,-2.1104,-0.1578,-0.9245,0.8888,-0.1142,
13.187870,-1.7430,-2.1104,-0.1578,-0.8065,0.0609,0.0577,
13.242647,-1.7430,-2.1104,-0.1578,-0.8065,0.0609,0.0577,
13.243398,-0.0774,-2.6179,0.2027,-0.8065,0.0609,0.0577,
13.255913,-0.0774,-2.6179,0.2027,-0.4224,0.6086,0.0192,
13.308415,-0.0774,-2.6179,0.2027,-0.4224,0.6086,0.0192,
13.310105,0.1946,-2.6474,1.1412,-0.4224,0.6086,0.0192,
13.320564,0.1946,-2.6474,1.1412,0.0116,0.2581,0.1118,
13.375210,0.1946,-2.6474,1.1412,0.0116,0.2581,0.1118,
13.375836,0.4341,-2.9120,1.1921,0.0116,0.2581,0.1118,
13.385426,0.4341,-2.9120,1.1921,0.7941,0.2886,-0.0948,
13.440478,0.4341,-2.9120,1.1921,0.7941,0.2886,-0.0948,
13.441182,0.6126,0.0210,2.8002,0.7941,0.2886,-0.0948,
13.451475,0.6126,0.0210,2.8002,0.4791,0.5878,-0.0699,
13.506028,0.6126,0.0210,2.8002,0.4791,0.5878,-0.0699,
13.508463,0.2329,-0.1965,2.5635,0.4791,0.5878,-0.0699,
13.516409,0.2329,-0.1965,2.5635,-0.5308,0.5084,0.0721,
13.570186,0.2329,-0.1965,2.5635,-0.5308,0.5084,0.0721,
13.570969,-2.1052,7.3657,-3.1403,-0.5308,0.5084,0.0721,
13.582222,-2.1052,7.3657,-3.1403,-0.5421,0.1854,-0.9917,
13.635881,-2.1052,7.3657,-3.1403,-0.5421,0.1854,-0.9917,
13.636548,3.6326,-1.4312,-5.0372,-0.5421,0.1854,-0.9917,
13.647403,3.6326,-1.4312,-5.0372,0.7856,1.5835,0.5959,
13.701383,3.6326,-1.4312,-5.0372,0.7856,1.5835,0.5959,
13.702955,-0.8273,0.5900,-2.4963,0.7856,1.5835,0.5959,
13.712385,-0.8273,0.5900,-2.4963,1.0469,0.6758,0.2928,
13.766842,-0.8273,0.5900,-2.4963,1.0469,0.6758,0.2928,
13.768748,-0.8665,-2.2606,-2.3399,1.0469,0.6758,0.2928,
13.778110,-0.8665,-2.2606,-2.3399,0.4044,-0.1142,0.1048,
13.832066,-0.8665,-2.2606,-2.3399,0.4044,-0.1142,0.1048,
13.832905,0.2987,0.0781,0.2013,0.4044,-0.1142,0.1048,
13.844231,0.2987,0.0781,0.2013,0.5044,-0.5330,0.3241,
13.899477,0.2987,0.0781,0.2013,0.5044,-0.5330,0.3241,
13.901037,1.8312,1.3833,0.3804,0.5044,-0.5330,0.3241,
13.909755,1.8312,1.3833,0.3804,0.1953,-0.2402,0.1355,
13.962819,1.8312,1.3833,0.3804,0.1953,-0.2402,0.1355,
13.964491,0.9293,-0.5024,1.2289,0.1953,-0.2402,0.1355,
13.973558,0.9293,-0.5024,1.2289,0.1492,-0.0918,0.1811,
14.028118,0.9293,-0.5024,1.2289,0.1492,-0.0918,0.1811,
14.030064,1.4273,-0.7327,1.0937,0.1492,-0.0918,0.1811,
14.041400,1.4273,-0.7327,1.0937,0.1799,-0.0341,-0.0383,
14.093997,1.4273,-0.7327,1.0937,0.1799,-0.0341,-0.0383,
14.095535,1.4771,-0.5937,1.9716,0.1799,-0.0341,-0.0383,
14.105776,1.4771,-0.5937,1.9716,0.1833,-0.2260,-0.1926,
14.159794,1.4771,-0.5937,1.9716,0.1833,-0.2260,-0.1926,
14.161519,2.4126,0.5896,1.3874,0.1833,-0.2260,-0.1926,
14.170828,2.4126,0.5896,1.3874,0.3286,-0.2615,-0.1643,
14.225651,2.4126,0.5896,1.3874,0.3286,-0.2615,-0.1643,
14.226668,3.7577,4.2255,0.9664,0.3286,-0.2615,-0.1643,
14.236449,3.7577,4.2255,0.9664,0.1793,0.2615,0.1755,
14.293025,3.7577,4.2255,0.9664,0.1793,0.2615,0.1755,
14.296642,0.1185,2.4415,-1.3965,0.1793,0.2615,0.1755,
14.302333,0.1185,2.4415,-1.3965,-0.9001,0.5350,0.0786,
14.357965,0.1185,2.4415,-1.3965,-0.9001,0.5350,0.0786,
14.358892,-2.9340,0.6614,-0.6524,-0.9001,0.5350,0.0786,
14.367968,-2.9340,0.6614,-0.6524,-1.1504,0.5089,0.0423,
14.421931,-2.9340,0.6614,-0.6524,-1.1504,0.5089,0.0423,
14.423449,0.0683,-1.1280,-0.5875,-1.1504,0.5089,0.0423,
14.434153,0.0683,-1.1280,-0.5875,-1.1782,0.4852,-0.1891,
14.487266,0.0683,-1.1280,-0.5875,-1.1782,0.4852,-0.1891,
14.488388,0.0937,-2.7861,-0.4242,-1.1782,0.4852,-0.1891,
14.498264,0.0937,-2.7861,-0.4242,-0.7691,0.9727,-0.0570,
14.551556,0.0937,-2.7861,-0.4242,-0.7691,0.9727,-0.0570,
14.552271,-0.8708,-2.3783,0.1564,-0.7691,0.9727,-0.0570,
14.563675,-0.8708,-2.3783,0.1564,-0.3755,0.8460,0.0780,
14.617487,-0.8708,-2.3783,0.1564,-0.3755,0.8460,0.0780,
14.618187,0.1716,-2.3537,0.9366,-0.3755,0.8460,0.0780,
14.629179,0.1716,-2.3537,0.9366,0.0452,0.7094,0.0935,
14.683915,0.1716,-2.3537,0.9366,0.0452,0.7094,0.0935,
14.684557,0.6359,-2.0138,1.6400,0.0452,0.7094,0.0935,
14.695726,0.6359,-2.0138,1.6400,0.4774,0.4772,0.1833,
14.749010,0.6359,-2.0138,1.6400,0.4774,0.4772,0.1833,
14.749811,-0.2086,-1.0073,2.5775,0.4774,0.4772,0.1833,
14.760732,-0.2086,-1.0073,2.5775,0.1964,0.5286,0.0232,
14.815093,-0.2086,-1.0073,2.5775,0.1964,0.5286,0.0232,
14.815877,1.1659,-3.4803,2.2476,0.1964,0.5286,0.0232,
14.826211,1.1659,-3.4803,2.2476,0.1990,0.5162,0.1678,
14.879673,1.1659,-3.4803,2.2476,0.1990,0.5162,0.1678,
14.881359,-5.0618,15.1892,-3.9308,0.1990,0.5162,0.1678,
14.891457,-5.0618,15.1892,-3.9308,0.0956,-0.1110,-1.5003,
14.944382,-5.0618,15.1892,-3.9308,0.0956,-0.1110,-1.5003,
14.945070,2.4933,-4.7378,-5.0582,0.0956,-0.1110,-1.5003,
14.956913,2.4933,-4.7378,-5.0582,0.3995,1.3769,1.0205,
15.010162,2.4933,-4.7378,-5.0582,0.3995,1.3769,1.0205,
15.010846,-1.4618,1.7551,-1.3138,0.3995,1.3769,1.0205,
15.022098,-1.4618,1.7551,-1.3138,0.7420,0.3902,0.3818,
15.077739,-1.4618,1.7551,-1.3138,0.7420,0.3902,0.3818,
15.078355,-0.0268,-2.4538,-1.3851,0.7420,0.3902,0.3818,
15.088257,-0.0268,-2.4538,-1.3851,0.4435,-0.2262,0.2498,
15.143304,-0.0268,-2.4538,-1.3851,0.4435,-0.2262,0.2498,
15.143832,1.1714,1.4051,0.9462,0.4435,-0.2262,0.2498,
15.154350,1.1714,1.4051,0.9462,0.4795,-0.3807,0.2132,
15.208195,1.1714,1.4051,0.9462,0.4795,-0.3807,0.2132,
15.208972,-0.5745,-0.7769,0.1199,0.4795,-0.3807,0.2132,
15.219662,-0.5745,-0.7769,0.1199,0.5577,-0.4148,0.3085,
15.274022,-0.5745,-0.7769,0.1199,0.5577,-0.4148,0.3085,
15.275953,1.6622,-0.8202,1.2174,0.5577,-0.4148,0.3085,
15.285222,1.6622,-0.8202,1.2174,0.2698,-0.5826,0.1413,
15.339864,1.6622,-0.8202,1.2174,0.2698,-0.5826,0.1413,
15.340372,1.0503,-0.4228,1.4472,0.2698,-0.5826,0.1413,
15.348833,1.0503,-0.4228,1.4472,0.2225,-0.3509,-0.1775,
15.405311,1.0503,-0.4228,1.4472,0.2225,-0.3509,-0.1775,
15.406116,1.5973,-0.5177,1.6737,0.2225,-0.3509,-0.1775,
15.417019,1.5973,-0.5177,1.6737,0.3467,-0.5029,-0.2793,
15.470018,1.5973,-0.5177,1.6737,0.3467,-0.5029,-0.2793,
15.472016,3.0302,2.3317,0.1855,0.3467,-0.5029,-0.2793,
15.482289,3.0302,2.3317,0.1855,0.2243,-0.3080,-0.0151,
15.535771,3.0302,2.3317,0.1855,0.2243,-0.3080,-0.0151,
15.536272,1.3741,5.5515,-0.1940,0.2243,-0.3080,-0.0151,
15.546955,1.3741,5.5515,-0.1940,-0.1787,-0.0263,0.1199,
15.600820,1.3741,5.5515,-0.1940,-0.1787,-0.0263,0.1199,
15.602212,-1.3164,0.7664,-1.0577,-0.1787,-0.0263,0.1199,
15.611637,-1.3164,0.7664,-1.0577,-1.2155,0.2674,0.0994,
15.665858,-1.3164,0.7664,-1.0577,-1.2155,0.2674,0.0994,
15.667530,-1.5050,0.1282,-0.6431,-1.2155,0.2674,0.0994,
15.677084,-1.5050,0.1282,-0.6431,-1.2593,0.1503,0.0063,
15.732559,-1.5050,0.1282,-0.6431,-1.2593,0.1503,0.0063,
15.733762,0.4492,-1.1878,-0.6512,-1.2593,0.1503,0.0063,
15.742520,0.4492,-1.1878,-0.6512,-1.3037,0.6574,-0.3282,
15.795988,0.4492,-1.1878,-0.6512,-1.3037,0.6574,-0.3282,
15.797876,-0.4719,-2.0651,-0.2794,-1.3037,0.6574,-0.3282,
15.807833,-0.4719,-2.0651,-0.2794,-0.9511,0.6842,-0.2178,
15.861325,-0.4719,-2.0651,-0.2794,-0.9511,0.6842,-0.2178,
15.862332,-0.6574,-3.6086,-0.1348,-0.9511,0.6842,-0.2178,
15.873137,-0.6574,-3.6086,-0.1348,-0.3033,0.7465,-0.0415,
15.927987,-0.6574,-3.6086,-0.1348,-0.3033,0.7465,-0.0415,
15.929500,0.0492,-3.3039,0.5530,-0.3033,0.7465,-0.0415,
15.939156,0.0492,-3.3039,0.5530,0.1695,0.8508,0.0828,
15.991925,0.0492,-3.3039,0.5530,0.1695,0.8508,0.0828,
15.992946,-0.3120,-3.4484,2.1125,0.1695,0.8508,0.0828,
16.003950,-0.3120,-3.4484,2.1125,0.8079,0.3267,0.6028,
16.058227,-0.3120,-3.4484,2.1125,0.8079,0.3267,0.6028,
16.060707,0.3290,0.1976,1.4500,0.8079,0.3267,0.6028,
16.069260,0.3290,0.1976,1.4500,0.6555,0.4443,0.0336,
16.124915,0.3290,0.1976,1.4500,0.6555,0.4443,0.0336,
16.126805,-1.0220,0.1902,3.4856,0.6555,0.4443,0.0336,
16.136699,-1.0220,0.1902,3.4856,0.0153,-0.2613,-0.2016,
16.190428,-1.0220,0.1902,3.4856,0.0153,-0.2613,-0.2016,
16.192468,2.1371,5.9253,1.4374,0.0153,-0.2613,-0.2016,
16.201711,2.1371,5.9253,1.4374,0.0706,-0.5101,-0.9621,
16.255548,2.1371,5.9253,1.4374,0.0706,-0.5101,-0.9621,
16.257107,-0.4002,0.0424,-3.7506,0.0706,-0.5101,-0.9621,
16.265152,-0.4002,0.0424,-3.7506,0.5547,0.8512,-0.2972,
16.320904,-0.4002,0.0424,-3.7506,0.5547,0.8512,-0.2972,
16.322937,-2.8804,-0.8368,-1.9093,0.5547,0.8512,-0.2972,
16.333470,-2.8804,-0.8368,-1.9093,0.6014,0.4090,0.6403,
16.386560,-2.8804,-0.8368,-1.9093,0.6014,0.4090,0.6403,
16.387484,0.6334,-0.5163,-3.1130,0.6014,0.4090,0.6403,
16.397534,0.6334,-0.5163,-3.1130,0.0440,-0.4795,0.5331,
16.450812,0.6334,-0.5163,-3.1130,0.0440,-0.4795,0.5331,
16.451565,-0.9443,-1.5610,-0.2963,0.0440,-0.4795,0.5331,
16.462010,-0.9443,-1.5610,-0.2963,0.6527,-1.0061,0.4591,
16.517228,-0.9443,-1.5610,-0.2963,0.6527,-1.0061,0.4591,
16.518005,1.4409,0.1649,0.3938,0.6527,-1.0061,0.4591,
16.528171,1.4409,0.1649,0.3938,0.5092,-0.8170,0.3002,
16.582012,1.4409,0.1649,0.3938,0.5092,-0.8170,0.3002,
16.583254,1.6394,0.0281,0.8351,0.5092,-0.8170,0.3002,
16.593628,1.6394,0.0281,0.8351,0.1408,-0.4600,0.0770,
16.647955,1.6394,0.0281,0.8351,0.1408,-0.4600,0.0770,
16.649127,0.9875,-0.4814,1.5493,0.1408,-0.4600,0.0770,
16.658419,0.9875,-0.4814,1.5493,0.2781,-0.0980,0.0150,
16.713380,0.9875,-0.4814,1.5493,0.2781,-0.0980,0.0150,
16.714463,1.3580,-0.3000,1.8251,0.2781,-0.0980,0.0150,
16.725106,1.3580,-0.3000,1.8251,0.3502,-0.2666,0.0330,
16.777988,1.3580,-0.3000,1.8251,0.3502,-0.2666,0.0330,
16.778718,0.3919,3.6896,0.6986,0.3502,-0.2666,0.0330,
16.789872,0.3919,3.6896,0.6986,0.0560,-0.4224,0.3496,
16.843698,0.3919,3.6896,0.6986,0.0560,-0.4224,0.3496,
16.844787,0.1973,3.4743,-3.3243,0.0560,-0.4224,0.3496,
16.855017,0.1973,3.4743,-3.3243,-1.3334,-0.3149,0.2488,
16.909929,0.1973,3.4743,-3.3243,-1.3334,-0.3149,0.2488,
16.911287,-1.9514,1.9903,-0.1163,-1.3334,-0.3149,0.2488,
16.921122,-1.9514,1.9903,-0.1163,-1.2984,-0.2253,-0.1768,
16.974519,-1.9514,1.9903,-0.1163,-1.2984,-0.2253,-0.1768,
16.975670,1.5714,-1.1471,-0.6429,-1.2984,-0.2253,-0.1768,
16.985983,1.5714,-1.1471,-0.6429,-1.2649,0.7175,-0.5322,
17.040177,1.5714,-1.1471,-0.6429,-1.2649,0.7175,-0.5322,
17.041399,-0.8677,-4.3616,-0.4279,-1.2649,0.7175,-0.5322,
17.052346,-0.8677,-4.3616,-0.4279,-0.8972,0.6904,-0.2031,
17.107474,-0.8677,-4.3616,-0.4279,-0.8972,0.6904,-0.2031,
17.109325,-0.1391,-3.8669,-0.4465,-0.8972,0.6904,-0.2031,
17.117259,-0.1391,-3.8669,-0.4465,-0.2477,0.8057,-0.0388,
17.173394,-0.1391,-3.8669,-0.4465,-0.2477,0.8057,-0.0388,
17.176948,0.2023,-2.0062,1.0684,-0.2477,0.8057,-0.0388,
17.183145,0.2023,-2.0062,1.0684,0.2358,0.7187,0.3024,
17.237881,0.2023,-2.0062,1.0684,0.2358,0.7187,0.3024,
17.240196,-0.0134,-1.7932,1.5273,0.2358,0.7187,0.3024,
17.250765,-0.0134,-1.7932,1.5273,0.6435,0.5811,0.5253,
17.303331,-0.0134,-1.7932,1.5273,0.6435,0.5811,0.5253,
17.305758,-0.8734,-0.2922,1.7707,0.6435,0.5811,0.5253,
17.314978,-0.8734,-0.2922,1.7707,0.8992,0.5899,0.1312,
17.367736,-0.8734,-0.2922,1.7707,0.8992,0.5899,0.1312,
17.368519,-1.1913,-0.4120,3.8936,0.8992,0.5899,0.1312,
17.378854,-1.1913,-0.4120,3.8936,0.3386,-0.0061,0.2653,
17.432958,-1.1913,-0.4120,3.8936,0.3386,-0.0061,0.2653,
17.433702,1.2245,1.4324,-1.7675,0.3386,-0.0061,0.2653,
17.445098,1.2245,1.4324,-1.7675,-0.8008,1.3173,0.1611,
17.498878,1.2245,1.4324,-1.7675,-0.8008,1.3173,0.1611,
17.499862,-1.2204,3.6321,-3.2099,-0.8008,1.3173,0.1611,
17.509863,-1.2204,3.6321,-3.2099,-0.2721,1.3370,-0.8731,
17.565497,-1.2204,3.6321,-3.2099,-0.2721,1.3370,-0.8731,
17.566922,-0.4128,-5.0926,-2.0306,-0.2721,1.3370,-0.8731,
17.576465,-0.4128,-5.0926,-2.0306,0.9470,0.4643,0.8741,
17.630066,-0.4128,-5.0926,-2.0306,0.9470,0.4643,0.8741,
17.631393,0.4496,0.7610,-1.4674,0.9470,0.4643,0.8741,
17.641344,0.4496,0.7610,-1.4674,0.1313,-0.7876,0.1633,
17.694133,0.4496,0.7610,-1.4674,0.1313,-0.7876,0.1633,
17.694855,1.4979,-0.4974,-0.7658,0.1313,-0.7876,0.1633,
17.706398,1.4979,-0.4974,-0.7658,0.2941,-0.6154,0.1348,
17.761900,1.4979,-0.4974,-0.7658,0.2941,-0.6154,0.1348,
17.763970,1.0369,-0.1240,-0.9992,0.2941,-0.6154,0.1348,
17.773653,1.0369,-0.1240,-0.9992,0.5214,-0.3566,0.3558,
17.827426,1.0369,-0.1240,-0.9992,0.5214,-0.3566,0.3558,
17.829052,-0.7484,0.1839,-0.2909,0.5214,-0.3566,0.3558,
17.837803,-0.7484,0.1839,-0.2909,0.1541,-0.9117,0.3109,
17.893090,-0.7484,0.1839,-0.2909,0.1541,-0.9117,0.3109,
17.897555,0.8529,-0.7606,0.2390,0.1541,-0.9117,0.3109,
17.907338,0.8529,-0.7606,0.2390,0.3080,-1.0004,0.2396,
17.957104,0.8529,-0.7606,0.2390,0.3080,-1.0004,0.2396,
17.958477,1.3191,-0.2248,0.8740,0.3080,-1.0004,0.2396,
17.968376,1.3191,-0.2248,0.8740,0.3685,-0.7643,0.0745,
18.023103,1.3191,-0.2248,0.8740,0.3685,-0.7643,0.0745,
18.024482,1.1693,-0.1508,1.2997,0.3685,-0.7643,0.0745,
18.034157,1.1693,-0.1508,1.2997,0.2527,-0.4450,-0.1234,
18.088351,1.1693,-0.1508,1.2997,0.2527,-0.4450,-0.1234,
18.089468,1.9038,-0.0820,1.6759,0.2527,-0.4450,-0.1234,
18.099324,1.9038,-0.0820,1.6759,0.1306,-0.3306,-0.1903,
18.153211,1.9038,-0.0820,1.6759,0.1306,-0.3306,-0.1903,
18.154958,3.3703,1.3686,0.7208,0.1306,-0.3306,-0.1903,
18.165975,3.3703,1.3686,0.7208,0.1329,0.3338,-0.0536,
18.219183,3.3703,1.3686,0.7208,0.1329,0.3338,-0.0536,
18.220640,1.6797,4.4671,-0.5691,0.1329,0.3338,-0.0536,
18.231103,1.6797,4.4671,-0.5691,-0.4258,0.6025,0.0440,
18.285398,1.6797,4.4671,-0.5691,-0.4258,0.6025,0.0440,
18.287369,-1.2238,0.3564,-1.4901,-0.4258,0.6025,0.0440,
18.296344,-1.2238,0.3564,-1.4901,-1.1631,0.5270,0.2124,
18.351004,-1.2238,0.3564,-1.4901,-1.1631,0.5270,0.2124,
18.352677,-0.4530,0.1274,-1.0086,-1.1631,0.5270,0.2124,
18.362209,-0.4530,0.1274,-1.0086,-0.6585,1.5437,-0.4299,
18.416291,-0.4530,0.1274,-1.0086,-0.6585,1.5437,-0.4299,
18.417884,-0.1662,-0.5838,-0.2979,-0.6585,1.5437,-0.4299,
18.428168,-0.1662,-0.5838,-0.2979,-0.7721,1.3222,-0.3890,
18.481383,-0.1662,-0.5838,-0.2979,-0.7721,1.3222,-0.3890,
18.483330,-1.2405,-1.9769,-0.3016,-0.7721,1.3222,-0.3890,
18.493212,-1.2405,-1.9769,-0.3016,-0.6883,0.9572,-0.1040,
18.548438,-1.2405,-1.9769,-0.3016,-0.6883,0.9572,-0.1040,
18.551364,0.2975,-3.0185,-0.5756,-0.6883,0.9572,-0.1040,
18.559114,0.2975,-3.0185,-0.5756,-0.2604,1.2543,-0.1698,
18.613250,0.2975,-3.0185,-0.5756,-0.2604,1.2543,-0.1698,
18.615157,-0.3263,-1.7696,0.4037,-0.2604,1.2543,-0.1698,
18.623346,-0.3263,-1.7696,0.4037,0.0722,0.6529,0.0426,
18.679716,-0.3263,-1.7696,0.4037,0.0722,0.6529,0.0426,
18.682028,-0.4540,-1.5936,1.2741,0.0722,0.6529,0.0426,
18.690304,-0.4540,-1.5936,1.2741,0.4962,0.2228,0.0295,
18.746070,-0.4540,-1.5936,1.2741,0.4962,0.2228,0.0295,
18.747066,1.3936,-0.5167,2.0427,0.4962,0.2228,0.0295,
18.754648,1.3936,-0.5167,2.0427,0.5980,0.4482,0.0811,
18.807729,1.3936,-0.5167,2.0427,0.5980,0.4482,0.0811,
18.808362,0.8072,-0.4590,3.4822,0.5980,0.4482,0.0811,
18.819957,0.8072,-0.4590,3.4822,0.6301,0.6901,0.1744,
18.874545,0.8072,-0.4590,3.4822,0.6301,0.6901,0.1744,
18.875327,1.3890,-0.0704,0.2043,0.6301,0.6901,0.1744,
18.885747,1.3890,-0.0704,0.2043,-0.5939,1.4468,0.2882,
18.939376,1.3890,-0.0704,0.2043,-0.5939,1.4468,0.2882,
18.940233,-4.8273,4.6011,-8.0739,-0.5939,1.4468,0.2882,
18.950727,-4.8273,4.6011,-8.0739,0.0139,0.9737,-1.6558,
19.005476,-4.8273,4.6011,-8.0739,0.0139,0.9737,-1.6558,
19.006103,1.4237,-1.1726,-2.0000,0.0139,0.9737,-1.6558,
19.015197,1.4237,-1.1726,-2.0000,0.6493,0.7590,0.9423,
19.071916,1.4237,-1.1726,-2.0000,0.6493,0.7590,0.9423,
19.072649,-1.2647,1.9909,-0.7996,0.6493,0.7590,0.9423,
19.081982,-1.2647,1.9909,-0.7996,-0.1575,-0.8167,1.0686,
19.136005,-1.2647,1.9909,-0.7996,-0.1575,-0.8167,1.0686,
19.137254,0.1323,-3.1822,-0.5688,-0.1575,-0.8167,1.0686,
19.146868,0.1323,-3.1822,-0.5688,0.0811,-0.7995,0.4649,
19.200598,0.1323,-3.1822,-0.5688,0.0811,-0.7995,0.4649,
19.201712,1.8235,-0.1875,0.5325,0.0811,-0.7995,0.4649,
19.212518,1.8235,-0.1875,0.5325,0.4307,-0.2447,0.1006,
19.267099,1.8235,-0.1875,0.5325,0.4307,-0.2447,0.1006,
19.267905,0.7837,0.3180,-0.2864,0.4307,-0.2447,0.1006,
19.280029,0.7837,0.3180,-0.2864,0.4055,-0.0391,0.0018,
19.334326,0.7837,0.3180,-0.2864,0.4055,-0.0391,0.0018,
19.336008,0.6283,-0.3039,0.2275,0.4055,-0.0391,0.0018,
19.343353,0.6283,-0.3039,0.2275,0.1292,-0.3115,-0.0127,
19.398499,0.6283,-0.3039,0.2275,0.1292,-0.3115,-0.0127,
19.399691,1.0390,-0.2248,0.6402,0.1292,-0.3115,-0.0127,
19.409320,1.0390,-0.2248,0.6402,0.2233,-0.3427,-0.0342,
19.463331,1.0390,-0.2248,0.6402,0.2233,-0.3427,-0.0342,
19.464900,1.8122,-0.1457,1.2996,0.2233,-0.3427,-0.0342,
19.475752,1.8122,-0.1457,1.2996,0.2390,-0.1753,-0.1952,
19.529366,1.8122,-0.1457,1.2996,0.2390,-0.1753,-0.1952,
19.530773,2.6129,2.2261,0.8616,0.2390,-0.1753,-0.1952,
19.539754,2.6129,2.2261,0.8616,0.1825,0.1964,-0.0318,
19.593918,2.6129,2.2261,0.8616,0.1825,0.1964,-0.0318,
19.594769,1.0964,3.0220,-1.2186,0.1825,0.1964,-0.0318,
19.605188,1.0964,3.0220,-1.2186,-0.5892,0.6228,0.0745,
19.660684,1.0964,3.0220,-1.2186,-0.5892,0.6228,0.0745,
19.661349,-3.0512,1.0682,-1.0288,-0.5892,0.6228,0.0745,
19.671445,-3.0512,1.0682,-1.0288,-1.2877,0.6629,0.2106,
19.724995,-3.0512,1.0682,-1.0288,-1.2877,0.6629,0.2106,
19.726358,-0.2361,-0.2926,-0.7811,-1.2877,0.6629,0.2106,
19.736575,-0.2361,-0.2926,-0.7811,-1.1736,0.7222,-0.0522,
19.790934,-0.2361,-0.2926,-0.7811,-1.1736,0.7222,-0.0522,
19.792018,-0.1242,-1.9091,-0.3733,-1.1736,0.7222,-0.0522,
19.801713,-0.1242,-1.9091,-0.3733,-0.7973,1.0240,-0.1080,
19.856405,-0.1242,-1.9091,-0.3733,-0.7973,1.0240,-0.1080,
19.858545,-1.2370,-1.7868,0.1330,-0.7973,1.0240,-0.1080,
19.867901,-1.2370,-1.7868,0.1330,-0.5680,0.6335,-0.0105,
19.920494,-1.2370,-1.7868,0.1330,-0.5680,0.6335,-0.0105,
19.922356,-0.1412,-2.7788,0.0831,-0.5680,0.6335,-0.0105,
19.933028,-0.1412,-2.7788,0.0831,-0.1393,0.5082,-0.0657,
19.985617,-0.1412,-2.7788,0.0831,-0.1393,0.5082,-0.0657,
19.986237,0.1223,-2.9029,0.6022,-0.1393,0.5082,-0.0657,
19.998895,0.1223,-2.9029,0.6022,0.3604,0.1865,0.0121,
20.052300,0.1223,-2.9029,0.6022,0.3604,0.1865,0.0121,
20.053006,0.3788,-3.2904,1.6299,0.3604,0.1865,0.0121,
20.064255,0.3788,-3.2904,1.6299,1.2323,0.4730,-0.1078,
20.117874,0.3788,-3.2904,1.6299,1.2323,0.4730,-0.1078,
20.118456,1.0231,0.6031,2.4853,1.2323,0.4730,-0.1078,
20.129072,1.0231,0.6031,2.4853,0.7732,0.4435,0.2784,
20.184288,1.0231,0.6031,2.4853,0.7732,0.4435,0.2784,
20.184979,1.1716,2.6818,-0.4802,0.7732,0.4435,0.2784,
20.194111,1.1716,2.6818,-0.4802,-0.2698,1.1022,-0.0124,
20.249128,1.1716,2.6818,-0.4802,-0.2698,1.1022,-0.0124,
20.249884,-3.5180,4.0064,-4.9852,-0.2698,1.1022,-0.0124,
20.261013,-3.5180,4.0064,-4.9852,0.0609,1.3871,-1.4277,
20.316158,-3.5180,4.0064,-4.9852,0.0609,1.3871,-1.4277,
20.318092,3.0681,-3.8796,-3.1887,0.0609,1.3871,-1.4277,
20.324768,3.0681,-3.8796,-3.1887,0.3812,1.9682,0.3980,
20.381264,3.0681,-3.8796,-3.1887,0.3812,1.9682,0.3980,
20.381902,-1.2765,2.2949,-1.0269,0.3812,1.9682,0.3980,
20.391677,-1.2765,2.2949,-1.0269,0.1568,1.0655,0.0715,
20.445232,-1.2765,2.2949,-1.0269,0.1568,1.0655,0.0715,
20.445916,-1.0834,-1.9315,-0.7195,0.1568,1.0655,0.0715,
20.457568,-1.0834,-1.9315,-0.7195,0.1813,-0.2422,0.3280,
20.510841,-1.0834,-1.9315,-0.7195,0.1813,-0.2422,0.3280,
20.511487,0.6712,0.6440,-0.2441,0.1813,-0.2422,0.3280,
20.522464,0.6712,0.6440,-0.2441,0.3960,-0.0919,0.3120,
20.576981,0.6712,0.6440,-0.2441,0.3960,-0.0919,0.3120,
20.577776,-0.2247,0.1669,0.2099,0.3960,-0.0919,0.3120,
20.589031,-0.2247,0.1669,0.2099,-0.1255,-0.4453,0.3905,
20.642476,-0.2247,0.1669,0.2099,-0.1255,-0.4453,0.3905,
20.643270,0.5140,-1.1612,0.7457,-0.1255,-0.4453,0.3905,
20.653987,0.5140,-1.1612,0.7457,0.0925,-0.3763,0.2428,
20.706735,0.5140,-1.1612,0.7457,0.0925,-0.3763,0.2428,
20.707484,1.0247,-0.4654,1.1309,0.0925,-0.3763,0.2428,
20.718809,1.0247,-0.4654,1.1309,0.2341,-0.3798,0.0797,
20.773684,1.0247,-0.4654,1.1309,0.2341,-0.3798,0.0797,
20.774306,1.7054,-0.1406,1.1463,0.2341,-0.3798,0.0797,
20.785223,1.7054,-0.1406,1.1463,0.3322,-0.4042,0.0327,
20.837742,1.7054,-0.1406,1.1463,0.3322,-0.4042,0.0327,
20.838741,1.8502,2.2228,1.2689,0.3322,-0.4042,0.0327,
20.850835,1.8502,2.2228,1.2689,0.2801,-0.3290,0.3404,
20.904204,1.8502,2.2228,1.2689,0.2801,-0.3290,0.3404,
20.904847,0.8758,3.7330,-1.6478,0.2801,-0.3290,0.3404,
20.917138,0.8758,3.7330,-1.6478,-0.8642,0.0180,0.1188,
20.970841,0.8758,3.7330,-1.6478,-0.8642,0.0180,0.1188,
20.971522,-4.7872,0.9515,0.1042,-0.8642,0.0180,0.1188,
20.982203,-4.7872,0.9515,0.1042,-1.1697,-0.4420,-0.0838,
21.034640,-4.7872,0.9515,0.1042,-1.1697,-0.4420,-0.0838,
21.035447,-0.1965,-0.5458,-0.0057,-1.1697,-0.4420,-0.0838,
21.046151,-0.1965,-0.5458,-0.0057,-0.9682,-0.5137,-0.2017,
21.099874,-0.1965,-0.5458,-0.0057,-0.9682,-0.5137,-0.2017,
21.100493,0.9520,-1.6752,-0.0890,-0.9682,-0.5137,-0.2017,
21.111611,0.9520,-1.6752,-0.0890,-0.6148,0.4247,-0.2961,
21.166672,0.9520,-1.6752,-0.0890,-0.6148,0.4247,-0.2961,
21.167317,-1.5393,-2.4257,-0.0487,-0.6148,0.4247,-0.2961,
21.176880,-1.5393,-2.4257,-0.0487,-0.2627,0.2789,0.0819,
21.231354,-1.5393,-2.4257,-0.0487,-0.2627,0.2789,0.0819,
21.233100,-0.6785,-2.7597,0.3868,-0.2627,0.2789,0.0819,
21.241859,-0.6785,-2.7597,0.3868,-0.1973,-0.1394,0.0509,
21.297846,-0.6785,-2.7597,0.3868,-0.1973,-0.1394,0.0509,
21.298480,-0.4274,-2.9410,1.2156,-0.1973,-0.1394,0.0509,
21.309194,-0.4274,-2.9410,1.2156,0.1571,-0.1419,0.0889,
21.362571,-0.4274,-2.9410,1.2156,0.1571,-0.1419,0.0889,
21.363285,0.5335,-1.6542,2.4862,0.1571,-0.1419,0.0889,
21.374812,0.5335,-1.6542,2.4862,0.6764,0.3323,-0.0267,
21.428463,0.5335,-1.6542,2.4862,0.6764,0.3323,-0.0267,
21.429002,1.3984,-0.7990,3.0595,0.6764,0.3323,-0.0267,
21.440458,1.3984,-0.7990,3.0595,0.5209,0.6912,0.0113,
21.494918,1.3984,-0.7990,3.0595,0.5209,0.6912,0.0113,
21.495513,1.3472,10.0725,1.8522,0.5209,0.6912,0.0113,
21.506304,1.3472,10.0725,1.8522,-0.1739,0.8095,-1.0621,
21.558478,1.3472,10.0725,1.8522,-0.1739,0.8095,-1.0621,
21.559126,-3.0351,0.7723,-6.3499,-0.1739,0.8095,-1.0621,
21.570955,-3.0351,0.7723,-6.3499,-0.0023,2.1328,-0.9235,
21.624517,-3.0351,0.7723,-6.3499,-0.0023,2.1328,-0.9235,
21.625074,1.7880,-3.9125,-1.3778,-0.0023,2.1328,-0.9235,
21.634970,1.7880,-3.9125,-1.3778,0.5589,0.4443,1.0414,
21.690257,1.7880,-3.9125,-1.3778,0.5589,0.4443,1.0414,
21.692651,0.0940,0.4160,-1.2506,0.5589,0.4443,1.0414,
21.701841,0.0940,0.4160,-1.2506,0.1240,-0.6512,0.2156,
21.755242,0.0940,0.4160,-1.2506,0.1240,-0.6512,0.2156,
21.757340,0.7876,-1.0055,-0.0883,0.1240,-0.6512,0.2156,
21.766096,0.7876,-1.0055,-0.0883,0.2918,-0.6603,0.3612,
21.821142,0.7876,-1.0055,-0.0883,0.2918,-0.6603,0.3612,
21.822827,0.7477,0.6668,0.3297,0.2918,-0.6603,0.3612,
21.832878,0.7477,0.6668,0.3297,0.1694,0.1704,0.4934,
21.887658,0.7477,0.6668,0.3297,0.1694,0.1704,0.4934,
21.889551,-0.7564,-0.5550,0.0330,0.1694,0.1704,0.4934,
21.899123,-0.7564,-0.5550,0.0330,-0.0538,0.2033,0.3106,
21.950519,-0.7564,-0.5550,0.0330,-0.0538,0.2033,0.3106,
21.951636,-0.4070,-0.7273,-0.0873,-0.0538,0.2033,0.3106,
21.962749,-0.4070,-0.7273,-0.0873,0.1474,-0.1697,0.2001,
22.016891,-0.4070,-0.7273,-0.0873,0.1474,-0.1697,0.2001,
22.017916,-0.1571,0.0141,0.1753,0.1474,-0.1697,0.2001,
22.028610,-0.1571,0.0141,0.1753,0.1451,-0.5788,0.0819,
22.082878,-0.1571,0.0141,0.1753,0.1451,-0.5788,0.0819,
22.083634,1.2593,0.1597,0.5136,0.1451,-0.5788,0.0819,
22.094372,1.2593,0.1597,0.5136,0.3288,-0.6629,-0.0011,
22.147874,1.2593,0.1597,0.5136,0.3288,-0.6629,-0.0011,
22.149032,2.6750,1.3091,1.0110,0.3288,-0.6629,-0.0011,
22.159478,2.6750,1.3091,1.0110,0.4213,-0.2842,-0.1796,
22.214491,2.6750,1.3091,1.0110,0.4213,-0.2842,-0.1796,
22.215168,1.4420,3.0184,-0.2343,0.4213,-0.2842,-0.1796,
22.224493,1.4420,3.0184,-0.2343,0.0223,0.0915,-0.0638,
22.279516,1.4420,3.0184,-0.2343,0.0223,0.0915,-0.0638,
22.280675,-2.1199,0.5170,-1.3879,0.0223,0.0915,-0.0638,
22.289517,-2.1199,0.5170,-1.3879,-0.9826,0.2753,0.2427,
22.343724,-2.1199,0.5170,-1.3879,-0.9826,0.2753,0.2427,
22.344532,-2.0525,-0.9867,-0.7817,-0.9826,0.2753,0.2427,
22.355230,-2.0525,-0.9867,-0.7817,-1.0311,0.2065,0.0947,
22.410295,-2.0525,-0.9867,-0.7817,-1.0311,0.2065,0.0947,
22.411037,-1.9435,-0.7411,-0.0471,-1.0311,0.2065,0.0947,
22.420818,-1.9435,-0.7411,-0.0471,-0.8700,-0.2430,-0.1069,
22.475185,-1.9435,-0.7411,-0.0471,-0.8700,-0.2430,-0.1069,
22.476012,-0.6789,-1.7344,0.3599,-0.8700,-0.2430,-0.1069,
22.486449,-0.6789,-1.7344,0.3599,-0.4241,0.0573,-0.1225,
22.539809,-0.6789,-1.7344,0.3599,-0.4241,0.0573,-0.1225,
22.540442,0.0595,-2.0958,0.8044,-0.4241,0.0573,-0.1225,
22.552482,0.0595,-2.0958,0.8044,0.0652,0.3390,-0.0736,
22.606053,0.0595,-2.0958,0.8044,0.0652,0.3390,-0.0736,
22.607580,0.1225,-1.6279,1.5274,0.0652,0.3390,-0.0736,
22.617216,0.1225,-1.6279,1.5274,0.4053,0.0351,-0.0046,
22.672183,0.1225,-1.6279,1.5274,0.4053,0.0351,-0.0046,
22.673671,-0.5018,1.9521,2.7770,0.4053,0.0351,-0.0046,
22.684109,-0.5018,1.9521,2.7770,-0.5205,0.6938,0.0907,
22.736345,-0.5018,1.9521,2.7770,-0.5205,0.6938,0.0907,
22.737628,1.8349,-3.2146,-0.6499,-0.5205,0.6938,0.0907,
22.747761,1.8349,-3.2146,-0.6499,0.6248,0.9632,0.1907,
22.803219,1.8349,-3.2146,-0.6499,0.6248,0.9632,0.1907,
22.803886,-2.7237,5.1245,-2.6337,0.6248,0.9632,0.1907,
22.814339,-2.7237,5.1245,-2.6337,0.4803,1.6231,-0.7477,
22.868859,-2.7237,5.1245,-2.6337,0.4803,1.6231,-0.7477,
22.870080,-0.4504,1.4028,-2.5895,0.4803,1.6231,-0.7477,
22.879155,-0.4504,1.4028,-2.5895,0.1301,0.4989,-0.0583,
22.932798,-0.4504,1.4028,-2.5895,0.1301,0.4989,-0.0583,
22.933445,-1.4715,1.5278,-2.1200,0.1301,0.4989,-0.0583,
22.945707,-1.4715,1.5278,-2.1200,-0.1182,0.1472,-0.1126,
23.000352,-1.4715,1.5278,-2.1200,-0.1182,0.1472,-0.1126,
23.002159,0.5215,-0.2727,-1.5275,-0.1182,0.1472,-0.1126,
23.009784,0.5215,-0.2727,-1.5275,-0.1393,-0.1936,0.1594,
23.065315,0.5215,-0.2727,-1.5275,-0.1393,-0.1936,0.1594,
23.065918,0.4348,-4.3298,-0.7049,-0.1393,-0.1936,0.1594,
23.075614,0.4348,-4.3298,-0.7049,0.4078,0.0956,0.1946,
23.130900,0.4348,-4.3298,-0.7049,0.4078,0.0956,0.1946,
23.131635,-0.0015,-5.2904,-0.3897,0.4078,0.0956,0.1946,
23.141787,-0.0015,-5.2904,-0.3897,1.0464,0.0945,0.3978,
23.195251,-0.0015,-5.2904,-0.3897,1.0464,0.0945,0.3978,
23.196758,-1.6117,-6.3254,-3.6344,1.0464,0.0945,0.3978,
23.206532,-1.6117,-6.3254,-3.6344,1.4690,0.5122,1.2280,
23.261433,-1.6117,-6.3254,-3.6344,1.4690,0.5122,1.2280,
23.262089,5.4484,18.3772,3.6389,1.4690,0.5122,1.2280,
23.272832,5.4484,18.3772,3.6389,-1.0983,-0.2187,-0.9383,
23.327220,5.4484,18.3772,3.6389,-1.0983,-0.2187,-0.9383,
23.327794,-0.1106,-5.2357,-0.2660,-1.0983,-0.2187,-0.9383,
23.337404,-0.1106,-5.2357,-0.2660,0.6420,1.4901,0.7669,
23.392958,-0.1106,-5.2357,-0.2660,0.6420,1.4901,0.7669,
23.393548,-0.9461,0.1133,-0.1583,0.6420,1.4901,0.7669,
23.403186,-0.9461,0.1133,-0.1583,-0.1092,-0.7268,0.1770,
23.458801,-0.9461,0.1133,-0.1583,-0.1092,-0.7268,0.1770,
23.459351,0.7216,0.1686,0.7864,-0.1092,-0.7268,0.1770,
23.468601,0.7216,0.1686,0.7864,0.2396,-0.8384,-0.0857,
23.525539,0.7216,0.1686,0.7864,0.2396,-0.8384,-0.0857,
23.527738,1.9871,1.0126,1.8672,0.2396,-0.8384,-0.0857,
23.534845,1.9871,1.0126,1.8672,0.2821,-0.5315,-0.2983,
23.587316,1.9871,1.0126,1.8672,0.2821,-0.5315,-0.2983,
23.587983,1.3549,3.5498,1.2973,0.2821,-0.5315,-0.2983,
23.600702,1.3549,3.5498,1.2973,0.0622,-0.2262,-0.0440,
23.653922,1.3549,3.5498,1.2973,0.0622,-0.2262,-0.0440,
23.654501,-1.0493,1.1118,-0.6907,0.0622,-0.2262,-0.0440,
23.665643,-1.0493,1.1118,-0.6907,-0.8431,0.0435,-0.1466,
23.720370,-1.0493,1.1118,-0.6907,-0.8431,0.0435,-0.1466,
23.720995,-2.7578,-0.5773,-0.0799,-0.8431,0.0435,-0.1466,
23.732035,-2.7578,-0.5773,-0.0799,-1.1849,-0.4307,-0.0057,
23.785200,-2.7578,-0.5773,-0.0799,-1.1849,-0.4307,-0.0057,
23.787185,-0.2388,-0.3485,-0.2834,-1.1849,-0.4307,-0.0057,
23.796241,-0.2388,-0.3485,-0.2834,-0.8702,-0.2899,-0.0927,
23.849794,-0.2388,-0.3485,-0.2834,-0.8702,-0.2899,-0.0927,
23.850384,-1.0646,-1.4526,0.2761,-0.8702,-0.2899,-0.0927,
23.862188,-1.0646,-1.4526,0.2761,-0.6982,-0.5927,0.0657,
23.915905,-1.0646,-1.4526,0.2761,-0.6982,-0.5927,0.0657,
23.916793,0.2055,-3.3057,-0.1479,-0.6982,-0.5927,0.0657,
23.927393,0.2055,-3.3057,-0.1479,-0.1023,0.1897,-0.1107,
23.981267,0.2055,-3.3057,-0.1479,-0.1023,0.1897,-0.1107,
23.982150,0.7657,-2.5633,0.6653,-0.1023,0.1897,-0.1107,
23.992030,0.7657,-2.5633,0.6653,0.2248,0.7411,-0.0744,
24.045516,0.7657,-2.5633,0.6653,0.2248,0.7411,-0.0744,
24.046764,-0.0616,-0.6620,1.4955,0.2248,0.7411,-0.0744,
24.059081,-0.0616,-0.6620,1.4955,0.1019,0.5545,0.2097,
24.110901,-0.0616,-0.6620,1.4955,0.1019,0.5545,0.2097,
24.111591,-1.0736,-0.5757,2.1064,0.1019,0.5545,0.2097,
24.123368,-1.0736,-0.5757,2.1064,0.1356,0.1733,0.3459,
24.177613,-1.0736,-0.5757,2.1064,0.1356,0.1733,0.3459,
24.178102,-1.7210,-1.9344,0.0923,0.1356,0.1733,0.3459,
24.188742,-1.7210,-1.9344,0.0923,-0.7814,0.7822,0.0875,
24.243752,-1.7210,-1.9344,0.0923,-0.7814,0.7822,0.0875,
24.244905,-0.2730,4.0184,-3.0125,-0.7814,0.7822,0.0875,
24.253701,-0.2730,4.0184,-3.0125,-0.0351,0.3975,-0.5246,
24.308875,-0.2730,4.0184,-3.0125,-0.0351,0.3975,-0.5246,
24.309728,2.4287,2.7172,-2.2251,-0.0351,0.3975,-0.5246,
24.321473,2.4287,2.7172,-2.2251,0.6701,1.2152,0.3972,
24.376569,2.4287,2.7172,-2.2251,0.6701,1.2152,0.3972,
24.377372,-1.1360,-1.1241,-2.1243,0.6701,1.2152,0.3972,
24.386023,-1.1360,-1.1241,-2.1243,0.6891,0.2135,-0.0194,
24.440389,-1.1360,-1.1241,-2.1243,0.6891,0.2135,-0.0194,
24.442185,0.5664,-2.1161,-0.7618,0.6891,0.2135,-0.0194,
24.451265,0.5664,-2.1161,-0.7618,0.5296,0.2993,-0.1255,
24.507194,0.5664,-2.1161,-0.7618,0.5296,0.2993,-0.1255,
24.509421,1.5989,0.6501,0.4205,0.5296,0.2993,-0.1255,
24.517098,1.5989,0.6501,0.4205,0.3935,0.3885,-0.1516,
24.570451,1.5989,0.6501,0.4205,0.3935,0.3885,-0.1516,
24.572780,0.3343,-0.4037,-0.0070,0.3935,0.3885,-0.1516,
24.582150,0.3343,-0.4037,-0.0070,0.2758,0.5356,0.0035,
24.638003,0.3343,-0.4037,-0.0070,0.2758,0.5356,0.0035,
24.639243,0.0140,0.0159,0.2498,0.2758,0.5356,0.0035,
24.649003,0.0140,0.0159,0.2498,0.1260,0.2618,-0.0817,
24.701094,0.0140,0.0159,0.2498,0.1260,0.2618,-0.0817,
24.702372,0.8226,-0.2745,0.3887,0.1260,0.2618,-0.0817,
24.711867,0.8226,-0.2745,0.3887,0.0640,0.1805,-0.0704,
24.766139,0.8226,-0.2745,0.3887,0.0640,0.1805,-0.0704,
24.767856,1.5400,-0.7374,0.6744,0.0640,0.1805,-0.0704,
24.778274,1.5400,-0.7374,0.6744,0.3280,0.4381,0.0641,
24.832255,1.5400,-0.7374,0.6744,0.3280,0.4381,0.0641,
24.832959,1.5851,0.4959,0.6374,0.3280,0.4381,0.0641,
24.842909,1.5851,0.4959,0.6374,0.5386,0.6724,0.0023,
24.897353,1.5851,0.4959,0.6374,0.5386,0.6724,0.0023,
24.898003,1.5707,4.1556,-0.2451,0.5386,0.6724,0.0023,
24.908272,1.5707,4.1556,-0.2451,0.1329,1.0571,-0.1785,
24.962824,1.5707,4.1556,-0.2451,0.1329,1.0571,-0.1785,
24.963650,-0.0846,1.7989,-1.1568,0.1329,1.0571,-0.1785,
24.975055,-0.0846,1.7989,-1.1568,-0.8163,1.1119,-0.2647,
25.028909,-0.0846,1.7989,-1.1568,-0.8163,1.1119,-0.2647,
25.029616,-2.9700,-2.1766,-1.4178,-0.8163,1.1119,-0.2647,
25.040823,-2.9700,-2.1766,-1.4178,-1.0591,0.7856,0.0559,
25.094131,-2.9700,-2.1766,-1.4178,-1.0591,0.7856,0.0559,
25.095596,-0.5466,-0.3270,-0.5267,-1.0591,0.7856,0.0559,
25.104998,-0.5466,-0.3270,-0.5267,-0.7966,0.5003,-0.0846,
25.159509,-0.5466,-0.3270,-0.5267,-0.7966,0.5003,-0.0846,
25.160080,-0.6868,-0.7785,0.4483,-0.7966,0.5003,-0.0846,
25.171296,-0.6868,-0.7785,0.4483,-0.4809,0.2949,0.0061,
25.225425,-0.6868,-0.7785,0.4483,-0.4809,0.2949,0.0061,
25.226200,-0.0026,-1.6486,0.8306,-0.4809,0.2949,0.0061,
25.236661,-0.0026,-1.6486,0.8306,-0.1269,0.4194,0.0153,
25.291520,-0.0026,-1.6486,0.8306,-0.1269,0.4194,0.0153,
25.292092,0.4919,-2.3915,0.6383,-0.1269,0.4194,0.0153,
25.301654,0.4919,-2.3915,0.6383,0.2442,0.5362,0.1506,
25.357024,0.4919,-2.3915,0.6383,0.2442,0.5362,0.1506,
25.358965,-0.0631,-1.8017,0.9345,0.2442,0.5362,0.1506,
25.368525,-0.0631,-1.8017,0.9345,0.6484,0.8396,0.0874,
25.421598,-0.0631,-1.8017,0.9345,0.6484,0.8396,0.0874,
25.422333,-0.0977,-0.6814,1.6764,0.6484,0.8396,0.0874,
25.433133,-0.0977,-0.6814,1.6764,0.1271,0.9475,0.2666,
25.488378,-0.0977,-0.6814,1.6764,0.1271,0.9475,0.2666,
25.489443,0.0057,-1.8521,-3.3361,0.1271,0.9475,0.2666,
25.499562,0.0057,-1.8521,-3.3361,-0.6611,2.4958,0.0591,
25.554812,0.0057,-1.8521,-3.3361,-0.6611,2.4958,0.0591,
25.555884,-4.0830,5.4181,-0.2775,-0.6611,2.4958,0.0591,
25.565796,-4.0830,5.4181,-0.2775,0.1558,0.3780,-0.6681,
25.617446,-4.0830,5.4181,-0.2775,0.1558,0.3780,-0.6681,
25.618036,3.5583,-4.8151,-3.5091,0.1558,0.3780,-0.6681,
25.628285,3.5583,-4.8151,-3.5091,0.8114,1.3625,0.5741,
25.684568,3.5583,-4.8151,-3.5091,0.8114,1.3625,0.5741,
25.685940,-4.5248,1.1619,-1.9003,0.8114,1.3625,0.5741,
25.695173,-4.5248,1.1619,-1.9003,0.3858,-0.3906,-0.1831,
25.750368,-4.5248,1.1619,-1.9003,0.3858,-0.3906,-0.1831,
25.752082,2.1509,0.1132,-1.7275,0.3858,-0.3906,-0.1831,
25.761209,2.1509,0.1132,-1.7275,0.2595,-0.7865,0.3926,
25.814186,2.1509,0.1132,-1.7275,0.2595,-0.7865,0.3926,
25.814890,0.1953,0.1794,-0.8790,0.2595,-0.7865,0.3926,
25.826908,0.1953,0.1794,-0.8790,0.0640,-0.0644,0.2892,
25.881799,0.1953,0.1794,-0.8790,0.0640,-0.0644,0.2892,
25.883571,0.3214,-0.0203,-0.2359,0.0640,-0.0644,0.2892,
25.890923,0.3214,-0.0203,-0.2359,0.1110,-0.5661,0.3508,
25.946479,0.3214,-0.0203,-0.2359,0.1110,-0.5661,0.3508,
25.947660,0.4597,-0.6391,0.2377,0.1110,-0.5661,0.3508,
25.957114,0.4597,-0.6391,0.2377,0.1860,-0.2447,0.1773,
26.011388,0.4597,-0.6391,0.2377,0.1860,-0.2447,0.1773,
26.012952,0.3787,-0.2257,0.6322,0.1860,-0.2447,0.1773,
26.020965,0.3787,-0.2257,0.6322,0.1451,-0.2338,-0.0470,
26.077168,0.3787,-0.2257,0.6322,0.1451,-0.2338,-0.0470,
26.079146,0.3130,-0.2775,1.0708,0.1451,-0.2338,-0.0470,
26.087456,0.3130,-0.2775,1.0708,0.1159,-0.3758,-0.1283,
26.141455,0.3130,-0.2775,1.0708,0.1159,-0.3758,-0.1283,
26.143269,1.3764,-0.5041,1.2307,0.1159,-0.3758,-0.1283,
26.153623,1.3764,-0.5041,1.2307,0.0481,-0.3604,-0.1504,
26.207242,1.3764,-0.5041,1.2307,0.0481,-0.3604,-0.1504,
26.208064,2.2574,-0.1635,0.4301,0.0481,-0.3604,-0.1504,
26.219136,2.2574,-0.1635,0.4301,0.2350,0.0820,0.0244,
26.273362,2.2574,-0.1635,0.4301,0.2350,0.0820,0.0244,
26.275692,1.5401,3.7264,0.3537,0.2350,0.0820,0.0244,
26.284860,1.5401,3.7264,0.3537,0.1790,0.1753,0.0157,
26.339234,1.5401,3.7264,0.3537,0.1790,0.1753,0.0157,
26.340877,0.4449,3.1608,-0.4813,0.1790,0.1753,0.0157,
26.349018,0.4449,3.1608,-0.4813,-0.6177,0.2271,0.0536,
26.403639,0.4449,3.1608,-0.4813,-0.6177,0.2271,0.0536,
26.405774,-1.8705,-1.0442,-0.8014,-0.6177,0.2271,0.0536,
26.415691,-1.8705,-1.0442,-0.8014,-1.0263,0.3102,0.0704,
26.469894,-1.8705,-1.0442,-0.8014,-1.0263,0.3102,0.0704,
26.471862,-1.5058,0.2524,-0.0450,-1.0263,0.3102,0.0704,
26.483070,-1.5058,0.2524,-0.0450,-0.9751,-0.1109,0.1483,
26.535475,-1.5058,0.2524,-0.0450,-0.9751,-0.1109,0.1483,
26.537274,-0.3260,-1.2098,-0.0347,-0.9751,-0.1109,0.1483,
26.545998,-0.3260,-1.2098,-0.0347,-0.6736,0.1830,-0.0073,
26.600064,-0.3260,-1.2098,-0.0347,-0.6736,0.1830,-0.0073,
26.600691,-0.6623,-1.8887,-0.0404,-0.6736,0.1830,-0.0073,
26.611253,-0.6623,-1.8887,-0.0404,-0.2456,0.5658,-0.0951,
26.665440,-0.6623,-1.8887,-0.0404,-0.2456,0.5658,-0.0951,
26.666380,-0.2333,-2.4796,0.4817,-0.2456,0.5658,-0.0951,
26.676949,-0.2333,-2.4796,0.4817,0.1646,0.6211,-0.1100,
26.729641,-0.2333,-2.4796,0.4817,0.1646,0.6211,-0.1100,
26.730291,0.2251,-2.3923,0.7643,0.1646,0.6211,-0.1100,
26.742511,0.2251,-2.3923,0.7643,0.5980,0.6768,-0.0770,
26.796836,0.2251,-2.3923,0.7643,0.5980,0.6768,-0.0770,
26.797932,0.0872,-1.5382,1.1849,0.5980,0.6768,-0.0770,
26.809101,0.0872,-1.5382,1.1849,0.6863,0.6573,0.1567,
26.863454,0.0872,-1.5382,1.1849,0.6863,0.6573,0.1567,
26.865075,-0.9702,-0.3008,2.5086,0.6863,0.6573,0.1567,
26.873856,-0.9702,-0.3008,2.5086,0.2479,0.4908,0.1472,
26.927471,-0.9702,-0.3008,2.5086,0.2479,0.4908,0.1472,
26.928343,-0.3072,2.9505,-1.1579,0.2479,0.4908,0.1472,
26.939816,-0.3072,2.9505,-1.1579,0.4939,0.2714,-0.3471,
26.994027,-0.3072,2.9505,-1.1579,0.4939,0.2714,-0.3471,
26.996641,-1.8119,7.0297,-1.4231,0.4939,0.2714,-0.3471,
27.005511,-1.8119,7.0297,-1.4231,0.4355,0.3193,-0.9331,
27.060261,-1.8119,7.0297,-1.4231,0.4355,0.3193,-0.9331,
27.061964,0.8840,-3.2514,-3.2663,0.4355,0.3193,-0.9331,
27.070329,0.8840,-3.2514,-3.2663,0.5794,0.3057,0.2824,
27.124716,0.8840,-3.2514,-3.2663,0.5794,0.3057,0.2824,
27.125994,-2.8151,0.8738,-0.3318,0.5794,0.3057,0.2824,
27.134141,-2.8151,0.8738,-0.3318,0.6048,-0.6209,0.0738,
27.189100,-2.8151,0.8738,-0.3318,0.6048,-0.6209,0.0738,
27.190532,1.6737,0.3254,-1.4796,0.6048,-0.6209,0.0738,
27.200503,1.6737,0.3254,-1.4796,0.2211,-0.4337,0.1237,
27.255288,1.6737,0.3254,-1.4796,0.2211,-0.4337,0.1237,
27.256922,-0.9791,0.0066,-0.5638,0.2211,-0.4337,0.1237,
27.267680,-0.9791,0.0066,-0.5638,0.3267,-0.5461,0.3106,
27.319821,-0.9791,0.0066,-0.5638,0.3267,-0.5461,0.3106,
27.321968,0.0600,-0.1677,0.0530,0.3267,-0.5461,0.3106,
27.332008,0.0600,-0.1677,0.0530,0.3238,-1.1602,0.4143,
27.385802,0.0600,-0.1677,0.0530,0.3238,-1.1602,0.4143,
27.387813,0.6211,-0.3741,0.5413,0.3238,-1.1602,0.4143,
27.397697,0.6211,-0.3741,0.5413,0.0667,-0.9491,0.1717,
27.451317,0.6211,-0.3741,0.5413,0.0667,-0.9491,0.1717,
27.453515,1.2062,0.3101,1.3326,0.0667,-0.9491,0.1717,
27.462733,1.2062,0.3101,1.3326,0.0812,-0.7831,0.1158,
27.517187,1.2062,0.3101,1.3326,0.0812,-0.7831,0.1158,
27.517791,1.1920,-0.4578,1.7668,0.0812,-0.7831,0.1158,
27.529267,1.1920,-0.4578,1.7668,0.0113,-0.5148,0.0704,
27.583471,1.1920,-0.4578,1.7668,0.0113,-0.5148,0.0704,
27.585332,1.1525,0.6755,0.4649,0.0113,-0.5148,0.0704,
27.594305,1.1525,0.6755,0.4649,-0.0996,-0.4986,-0.0130,
27.649355,1.1525,0.6755,0.4649,-0.0996,-0.4986,-0.0130,
27.650419,-0.0616,3.6063,0.3260,-0.0996,-0.4986,-0.0130,
27.660495,-0.0616,3.6063,0.3260,-0.4142,-0.3231,0.0765,
27.715782,-0.0616,3.6063,0.3260,-0.4142,-0.3231,0.0765,
27.716964,-0.6274,1.0671,-0.5774,-0.4142,-0.3231,0.0765,
27.725922,-0.6274,1.0671,-0.5774,-0.8465,-0.2237,0.0467,
27.779136,-0.6274,1.0671,-0.5774,-0.8465,-0.2237,0.0467,
27.781033,-3.0583,-0.1797,-0.8822,-0.8465,-0.2237,0.0467,
27.790717,-3.0583,-0.1797,-0.8822,-0.7842,-0.3563,-0.1098,
27.843349,-3.0583,-0.1797,-0.8822,-0.7842,-0.3563,-0.1098,
27.844551,-0.7307,-0.1674,-0.2893,-0.7842,-0.3563,-0.1098,
27.854904,-0.7307,-0.1674,-0.2893,-0.8358,-0.5692,-0.1246,
27.909387,-0.7307,-0.1674,-0.2893,-0.8358,-0.5692,-0.1246,
27.911544,-1.2264,-2.3110,0.0572,-0.8358,-0.5692,-0.1246,
27.921051,-1.2264,-2.3110,0.0572,-0.4997,-0.3253,-0.1219,
27.975336,-1.2264,-2.3110,0.0572,-0.4997,-0.3253,-0.1219,
27.976883,0.0566,-2.4434,-0.2066,-0.4997,-0.3253,-0.1219,
27.986116,0.0566,-2.4434,-0.2066,-0.3534,-0.2282,0.0739,
28.040745,0.0566,-2.4434,-0.2066,-0.3534,-0.2282,0.0739,
28.042267,-1.5969,-3.5701,-0.1885,-0.3534,-0.2282,0.0739,
28.052489,-1.5969,-3.5701,-0.1885,0.0345,-0.4844,0.3123,
28.107254,-1.5969,-3.5701,-0.1885,0.0345,-0.4844,0.3123,
28.108887,-0.8392,-2.1651,0.9983,0.0345,-0.4844,0.3123,
28.119124,-0.8392,-2.1651,0.9983,0.1767,-0.5921,0.0509,
28.173367,-0.8392,-2.1651,0.9983,0.1767,-0.5921,0.0509,
28.175497,0.8064,-1.5456,2.5600,0.1767,-0.5921,0.0509,
28.183744,0.8064,-1.5456,2.5600,-0.2275,-0.1112,0.3908,
28.237623,0.8064,-1.5456,2.5600,-0.2275,-0.1112,0.3908,
28.240167,-4.1295,13.6345,0.8705,-0.2275,-0.1112,0.3908,
28.248145,-4.1295,13.6345,0.8705,-0.6666,-1.2335,-1.1034,
28.302521,-4.1295,13.6345,0.8705,-0.6666,-1.2335,-1.1034,
28.304307,6.3174,-3.3467,-1.9641,-0.6666,-1.2335,-1.1034,
28.314245,6.3174,-3.3467,-1.9641,0.2112,1.0792,0.7147,
28.368123,6.3174,-3.3467,-1.9641,0.2112,1.0792,0.7147,
28.369736,-5.1952,3.7630,-2.1824,0.2112,1.0792,0.7147,
28.379882,-5.1952,3.7630,-2.1824,1.0037,1.0806,-0.5333,
28.433669,-5.1952,3.7630,-2.1824,1.0037,1.0806,-0.5333,
28.435709,-1.0669,-2.6919,-1.3176,1.0037,1.0806,-0.5333,
28.446106,-1.0669,-2.6919,-1.3176,0.7405,-0.3803,0.2433,
28.500392,-1.0669,-2.6919,-1.3176,0.7405,-0.3803,0.2433,
28.502981,0.6628,0.7013,-0.3489,0.7405,-0.3803,0.2433,
28.511340,0.6628,0.7013,-0.3489,0.4468,-0.0336,-0.0976,
28.563280,0.6628,0.7013,-0.3489,0.4468,-0.0336,-0.0976,
28.563861,0.7028,-0.6122,-0.8983,0.4468,-0.0336,-0.0976,
28.576439,0.7028,-0.6122,-0.8983,0.4221,0.2998,0.2246,
28.629736,0.7028,-0.6122,-0.8983,0.4221,0.2998,0.2246,
28.632051,-0.7470,0.2532,-0.4335,0.4221,0.2998,0.2246,
28.641851,-0.7470,0.2532,-0.4335,0.3459,0.3519,0.1336,
28.694819,-0.7470,0.2532,-0.4335,0.3459,0.3519,0.1336,
28.696384,-0.4664,-0.3569,-0.4248,0.3459,0.3519,0.1336,
28.706453,-0.4664,-0.3569,-0.4248,0.2647,0.0684,0.1703,
28.760135,-0.4664,-0.3569,-0.4248,0.2647,0.0684,0.1703,
28.761750,-0.8233,0.1416,-0.1158,0.2647,0.0684,0.1703,
28.772044,-0.8233,0.1416,-0.1158,0.1289,-0.1733,0.1379,
28.826324,-0.8233,0.1416,-0.1158,0.1289,-0.1733,0.1379,
28.826931,-0.3900,-0.2960,0.0730,0.1289,-0.1733,0.1379,
28.839214,-0.3900,-0.2960,0.0730,0.0669,-0.4684,0.0710,
28.892956,-0.3900,-0.2960,0.0730,0.0669,-0.4684,0.0710,
28.893784,0.1701,0.2417,0.0617,0.0669,-0.4684,0.0710,
28.904405,0.1701,0.2417,0.0617,-0.1254,-0.5362,0.0127,
28.958511,0.1701,0.2417,0.0617,-0.1254,-0.5362,0.0127,
28.960151,0.5691,-0.0873,0.3678,-0.1254,-0.5362,0.0127,
28.969019,0.5691,-0.0873,0.3678,-0.2384,-0.5663,-0.0837,
29.025497,0.5691,-0.0873,0.3678,-0.2384,-0.5663,-0.0837,
29.027971,-0.1301,-0.4439,0.6122,-0.2384,-0.5663,-0.0837,
29.034830,-0.1301,-0.4439,0.6122,-0.2615,-0.5696,-0.1058,
29.089246,-0.1301,-0.4439,0.6122,-0.2615,-0.5696,-0.1058,
29.092421,0.3071,-0.8667,0.0614,-0.2615,-0.5696,-0.1058,
29.099669,0.3071,-0.8667,0.0614,-0.3157,-0.6037,-0.0498,
29.154542,0.3071,-0.8667,0.0614,-0.3157,-0.6037,-0.0498,
29.155652,1.3165,-0.1557,0.2673,-0.3157,-0.6037,-0.0498,
29.166959,1.3165,-0.1557,0.2673,0.1078,0.1431,0.2546,
29.220588,1.3165,-0.1557,0.2673,0.1078,0.1431,0.2546,
29.222552,-0.3755,-0.0663,0.3938,0.1078,0.1431,0.2546,
29.232126,-0.3755,-0.0663,0.3938,0.1793,-0.0675,-0.1596,
29.285012,-0.3755,-0.0663,0.3938,0.1793,-0.0675,-0.1596,
29.285818,-0.6287,1.2451,0.8077,0.1793,-0.0675,-0.1596,
29.296325,-0.6287,1.2451,0.8077,0.5276,-0.1944,-0.2378,
29.350123,-0.6287,1.2451,0.8077,0.5276,-0.1944,-0.2378,
29.350738,1.9599,3.0091,0.3430,0.5276,-0.1944,-0.2378,
29.361784,1.9599,3.0091,0.3430,0.2703,-0.1249,-0.2912,
29.414871,1.9599,3.0091,0.3430,0.2703,-0.1249,-0.2912,
29.416170,0.5983,2.1672,0.2906,0.2703,-0.1249,-0.2912,
29.426971,0.5983,2.1672,0.2906,-0.3716,0.1466,-0.3839,
29.481396,0.5983,2.1672,0.2906,-0.3716,0.1466,-0.3839,
29.482124,-0.8697,-1.2904,-0.1589,-0.3716,0.1466,-0.3839,
29.492619,-0.8697,-1.2904,-0.1589,-0.8300,-0.1281,-0.1965,
29.546374,-0.8697,-1.2904,-0.1589,-0.8300,-0.1281,-0.1965,
29.547238,-0.8234,-1.8337,-0.6994,-0.8300,-0.1281,-0.1965,
29.557425,-0.8234,-1.8337,-0.6994,-0.6788,-0.0941,0.0835,
29.612672,-0.8234,-1.8337,-0.6994,-0.6788,-0.0941,0.0835,
29.614465,-0.8747,-1.5380,-0.5212,-0.6788,-0.0941,0.0835,
29.625107,-0.8747,-1.5380,-0.5212,-0.4675,-0.4869,0.1594,
29.676756,-0.8747,-1.5380,-0.5212,-0.4675,-0.4869,0.1594,
29.677344,-0.6277,-1.4535,-0.4102,-0.4675,-0.4869,0.1594,
29.689505,-0.6277,-1.4535,-0.4102,-0.0722,-0.6581,0.0163,
29.743596,-0.6277,-1.4535,-0.4102,-0.0722,-0.6581,0.0163,
29.746025,0.1171,-2.2018,0.3141,-0.0722,-0.6581,0.0163,
29.755186,0.1171,-2.2018,0.3141,0.4487,-0.5809,0.0104,
29.808715,0.1171,-2.2018,0.3141,0.4487,-0.5809,0.0104,
29.809811,-0.1207,-0.8411,0.4491,0.4487,-0.5809,0.0104,
29.820521,-0.1207,-0.8411,0.4491,0.3409,-0.4171,0.2651,
29.874281,-0.1207,-0.8411,0.4491,0.3409,-0.4171,0.2651,
29.875944,-1.4549,-1.6937,-0.0602,0.3409,-0.4171,0.2651,
29.885169,-1.4549,-1.6937,-0.0602,-0.1413,-0.4391,0.8147,
29.940463,-1.4549,-1.6937,-0.0602,-0.1413,-0.4391,0.8147,
29.941374,-1.3135,6.6289,0.6068,-0.1413,-0.4391,0.8147,
29.951441,-1.3135,6.6289,0.6068,0.0299,-1.5435,0.0008,
30.004574,-1.3135,6.6289,0.6068,0.0299,-1.5435,0.0008,
30.005333,1.6171,-1.6029,0.1945,0.0299,-1.5435,0.0008,
30.016934,1.6171,-1.6029,0.1945,0.0925,0.9891,-0.1943,
30.071841,1.6171,-1.6029,0.1945,0.0925,0.9891,-0.1943,
30.074441,-0.6207,1.5140,1.4007,0.0925,0.9891,-0.1943,
30.082346,-0.6207,1.5140,1.4007,0.4603,0.7937,-0.1396,
30.136327,-0.6207,1.5140,1.4007,0.4603,0.7937,-0.1396,
30.136964,0.0825,-0.6378,-0.5401,0.4603,0.7937,-0.1396,
30.146744,0.0825,-0.6378,-0.5401,0.4549,0.7167,0.1344,
30.201063,0.0825,-0.6378,-0.5401,0.4549,0.7167,0.1344,
30.202041,-0.0888,-0.0505,-0.1097,0.4549,0.7167,0.1344,
30.214540,-0.0888,-0.0505,-0.1097,0.2781,0.6263,0.0287,
30.266749,-0.0888,-0.0505,-0.1097,0.2781,0.6263,0.0287,
30.267410,-0.0574,-0.2685,-0.2427,0.2781,0.6263,0.0287,
30.278554,-0.0574,-0.2685,-0.2427,0.2001,0.4113,0.1387,
30.332301,-0.0574,-0.2685,-0.2427,0.2001,0.4113,0.1387,
30.332868,0.2120,-0.2221,-0.1787,0.2001,0.4113,0.1387,
30.343662,0.2120,-0.2221,-0.1787,0.0180,0.3512,0.0710,
30.397729,0.2120,-0.2221,-0.1787,0.0180,0.3512,0.0710,
30.398469,-0.2974,-0.5733,-0.1515,0.0180,0.3512,0.0710,
30.409077,-0.2974,-0.5733,-0.1515,0.0098,0.1533,-0.0811,
30.465315,-0.2974,-0.5733,-0.1515,0.0098,0.1533,-0.0811,
30.466101,0.2972,-0.2012,-0.0610,0.0098,0.1533,-0.0811,
30.475293,0.2972,-0.2012,-0.0610,-0.0829,-0.2268,-0.2518,
30.531009,0.2972,-0.2012,-0.0610,-0.0829,-0.2268,-0.2518,
30.532152,0.9148,-0.2118,1.0845,-0.0829,-0.2268,-0.2518,
30.540970,0.9148,-0.2118,1.0845,0.0680,-0.4783,-0.4061,
30.594487,0.9148,-0.2118,1.0845,0.0680,-0.4783,-0.4061,
30.595382,1.6821,-0.6796,0.7404,0.0680,-0.4783,-0.4061,
30.605600,1.6821,-0.6796,0.7404,0.4033,-0.1545,0.1715,
30.659523,1.6821,-0.6796,0.7404,0.4033,-0.1545,0.1715,
30.660057,0.3122,-1.0107,0.0380,0.4033,-0.1545,0.1715,
30.672077,0.3122,-1.0107,0.0380,0.6565,0.2665,-0.1523,
30.725295,0.3122,-1.0107,0.0380,0.6565,0.2665,-0.1523,
30.725936,0.2862,1.7135,0.0157,0.6565,0.2665,-0.1523,
30.736404,0.2862,1.7135,0.0157,0.3378,0.4291,0.0609,
30.790210,0.2862,1.7135,0.0157,0.3378,0.4291,0.0609,
30.792282,-0.3380,3.7691,-0.9130,0.3378,0.4291,0.0609,
30.801673,-0.3380,3.7691,-0.9130,-0.0163,0.5037,-0.2075,
30.856214,-0.3380,3.7691,-0.9130,-0.0163,0.5037,-0.2075,
30.858374,-1.6561,1.0350,-0.3876,-0.0163,0.5037,-0.2075,
30.866745,-1.6561,1.0350,-0.3876,-0.7152,0.0958,-0.2082,
30.922285,-1.6561,1.0350,-0.3876,-0.7152,0.0958,-0.2082,
30.924311,-1.8477,-0.8916,-1.0537,-0.7152,0.0958,-0.2082,
30.932794,-1.8477,-0.8916,-1.0537,-1.1251,-0.4812,-0.2390,
30.986930,-1.8477,-0.8916,-1.0537,-1.1251,-0.4812,-0.2390,
30.987462,-0.5842,-1.3524,-0.4316,-1.1251,-0.4812,-0.2390,
30.997711,-0.5842,-1.3524,-0.4316,-0.7347,-0.6312,-0.4724,
31.054002,-0.5842,-1.3524,-0.4316,-0.7347,-0.6312,-0.4724,
31.054642,0.2728,-1.6440,0.0290,-0.7347,-0.6312,-0.4724,
31.064885,0.2728,-1.6440,0.0290,-0.3105,-0.4285,-0.7332,
31.118336,0.2728,-1.6440,0.0290,-0.3105,-0.4285,-0.7332,
31.119003,0.6991,-1.0132,0.4542,-0.3105,-0.4285,-0.7332,
31.129992,0.6991,-1.0132,0.4542,0.3236,-0.3900,-0.7619,
31.184603,0.6991,-1.0132,0.4542,0.3236,-0.3900,-0.7619,
31.185152,0.1413,0.0679,0.6729,0.3236,-0.3900,-0.7619,
31.198111,0.1413,0.0679,0.6729,0.3016,-0.2395,-0.8202,
31.249437,0.1413,0.0679,0.6729,0.3016,-0.2395,-0.8202,
31.250033,0.2111,-1.6379,0.9797,0.3016,-0.2395,-0.8202,
31.261478,0.2111,-1.6379,0.9797,0.5299,-0.1869,-0.6826,
31.314131,0.2111,-1.6379,0.9797,0.5299,-0.1869,-0.6826,
31.315013,1.2829,-2.8342,1.7983,0.5299,-0.1869,-0.6826,
31.326758,1.2829,-2.8342,1.7983,0.5148,0.3091,-0.0570,
31.380594,1.2829,-2.8342,1.7983,0.5148,0.3091,-0.0570,
31.381093,1.1947,-1.4679,1.0774,0.5148,0.3091,-0.0570,
31.391918,1.1947,-1.4679,1.0774,-0.2421,1.2714,0.2521,
31.445593,1.1947,-1.4679,1.0774,-0.2421,1.2714,0.2521,
31.446202,-2.5710,5.1753,-1.9411,-0.2421,1.2714,0.2521,
31.458124,-2.5710,5.1753,-1.9411,1.1774,0.4548,-0.7230,
31.511371,-2.5710,5.1753,-1.9411,1.1774,0.4548,-0.7230,
31.512103,1.4535,1.2679,-0.6250,1.1774,0.4548,-0.7230,
31.523335,1.4535,1.2679,-0.6250,-0.8685,1.5922,0.0733,
31.576844,1.4535,1.2679,-0.6250,-0.8685,1.5922,0.0733,
31.578072,-1.2221,-0.8855,-1.0177,-0.8685,1.5922,0.0733,
31.587837,-1.2221,-0.8855,-1.0177,-0.0693,0.5276,0.3723,
31.643045,-1.2221,-0.8855,-1.0177,-0.0693,0.5276,0.3723,
31.643671,0.0916,-0.1835,-1.5627,-0.0693,0.5276,0.3723,
31.653469,0.0916,-0.1835,-1.5627,-0.1445,1.0968,0.1631,
31.706293,0.0916,-0.1835,-1.5627,-0.1445,1.0968,0.1631,
31.707502,-1.4899,-0.1719,-0.9678,-0.1445,1.0968,0.1631,
31.718173,-1.4899,-0.1719,-0.9678,-0.0202,-0.1124,0.4003,
31.773199,-1.4899,-0.1719,-0.9678,-0.0202,-0.1124,0.4003,
31.773907,0.6077,0.1679,-0.2100,-0.0202,-0.1124,0.4003,
31.785198,0.6077,0.1679,-0.2100,-0.1251,0.2095,0.2007,
31.839342,0.6077,0.1679,-0.2100,-0.1251,0.2095,0.2007,
31.841178,0.8009,-0.2337,0.3703,-0.1251,0.2095,0.2007,
31.849576,0.8009,-0.2337,0.3703,-0.0124,0.2912,0.2932,
31.904023,0.8009,-0.2337,0.3703,-0.0124,0.2912,0.2932,
31.905836,0.0808,0.1823,0.4918,-0.0124,0.2912,0.2932,
31.914114,0.0808,0.1823,0.4918,-0.1358,0.4316,0.1139,
31.969453,0.0808,0.1823,0.4918,-0.1358,0.4316,0.1139,
31.971792,-0.5059,-0.0843,0.6714,-0.1358,0.4316,0.1139,
31.981753,-0.5059,-0.0843,0.6714,-0.2888,0.1900,0.1182,
32.035283,-0.5059,-0.0843,0.6714,-0.2888,0.1900,0.1182,
32.036853,-0.1328,-0.5652,0.5379,-0.2888,0.1900,0.1182,
32.048715,-0.1328,-0.5652,0.5379,-0.2408,-0.2601,0.0576,
32.101177,-0.1328,-0.5652,0.5379,-0.2408,-0.2601,0.0576,
32.102139,1.6765,-0.3970,-0.4361,-0.2408,-0.2601,0.0576,
32.111877,1.6765,-0.3970,-0.4361,0.0531,-0.1110,-0.0550,
32.165526,1.6765,-0.3970,-0.4361,0.0531,-0.1110,-0.0550,
32.166129,0.5595,-0.0735,0.0494,0.0531,-0.1110,-0.0550,
32.177758,0.5595,-0.0735,0.0494,0.3464,-0.1329,-0.1139,
32.231623,0.5595,-0.0735,0.0494,0.3464,-0.1329,-0.1139,
32.232284,0.9137,1.6861,0.0238,0.3464,-0.1329,-0.1139,
32.242384,0.9137,1.6861,0.0238,0.3879,-0.0567,-0.1629,
32.297837,0.9137,1.6861,0.0238,0.3879,-0.0567,-0.1629,
32.299297,1.3098,3.0112,0.3398,0.3879,-0.0567,-0.1629,
32.308899,1.3098,3.0112,0.3398,-0.1378,0.2973,-0.2511,
32.361742,1.3098,3.0112,0.3398,-0.1378,0.2973,-0.2511,
32.363270,0.1411,1.1884,-0.5288,-0.1378,0.2973,-0.2511,
32.374518,0.1411,1.1884,-0.5288,-0.6414,0.6019,-0.3983,
32.427867,0.1411,1.1884,-0.5288,-0.6414,0.6019,-0.3983,
32.428699,-0.9039,-0.8382,-0.6052,-0.6414,0.6019,-0.3983,
32.439267,-0.9039,-0.8382,-0.6052,-1.2755,0.3543,-0.0945,
32.494483,-0.9039,-0.8382,-0.6052,-1.2755,0.3543,-0.0945,
32.495090,-1.1744,-1.6995,-0.6302,-1.2755,0.3543,-0.0945,
32.505551,-1.1744,-1.6995,-0.6302,-0.9103,0.3774,0.1350,
32.558752,-1.1744,-1.6995,-0.6302,-0.9103,0.3774,0.1350,
32.559449,-0.1010,-1.6890,-0.1346,-0.9103,0.3774,0.1350,
32.569976,-0.1010,-1.6890,-0.1346,-0.3822,0.3096,0.1026,
32.622823,-0.1010,-1.6890,-0.1346,-0.3822,0.3096,0.1026,
32.623416,-0.2510,-1.9423,0.2795,-0.3822,0.3096,0.1026,
32.635149,-0.2510,-1.9423,0.2795,0.0887,0.2978,0.1060,
32.689820,-0.2510,-1.9423,0.2795,0.0887,0.2978,0.1060,
32.691221,0.3055,-2.5416,0.6307,0.0887,0.2978,0.1060,
32.700469,0.3055,-2.5416,0.6307,0.4701,0.3111,0.0533,
32.755723,0.3055,-2.5416,0.6307,0.4701,0.3111,0.0533,
32.757472,0.9719,-2.9066,0.7051,0.4701,0.3111,0.0533,
32.766019,0.9719,-2.9066,0.7051,0.8190,0.5889,-0.1203,
32.819193,0.9719,-2.9066,0.7051,0.8190,0.5889,-0.1203,
32.820767,-0.1534,-0.9295,2.4205,0.8190,0.5889,-0.1203,
32.831690,-0.1534,-0.9295,2.4205,0.2404,0.5363,0.2303,
32.887275,-0.1534,-0.9295,2.4205,0.2404,0.5363,0.2303,
32.888805,-2.9823,12.6097,0.9108,0.2404,0.5363,0.2303,
32.898177,-2.9823,12.6097,0.9108,-0.1591,-1.5295,-0.5198,
32.952612,-2.9823,12.6097,0.9108,-0.1591,-1.5295,-0.5198,
32.954493,2.7656,-1.1665,-1.3778,-0.1591,-1.5295,-0.5198,
32.967074,2.7656,-1.1665,-1.3778,-0.4884,1.6852,1.1874,
33.019053,2.7656,-1.1665,-1.3778,-0.4884,1.6852,1.1874,
33.020885,-1.0949,1.3643,-3.7088,-0.4884,1.6852,1.1874,
33.029261,-1.0949,1.3643,-3.7088,0.5537,1.5145,-0.6967,
33.083794,-1.0949,1.3643,-3.7088,0.5537,1.5145,-0.6967,
33.085757,0.0423,-1.9076,-2.0426,0.5537,1.5145,-0.6967,
33.094824,0.0423,-1.9076,-2.0426,0.3068,0.9186,0.2298,
33.147530,0.0423,-1.9076,-2.0426,0.3068,0.9186,0.2298,
33.148151,-0.0143,0.2052,-0.1060,0.3068,0.9186,0.2298,
33.160011,-0.0143,0.2052,-0.1060,0.3074,0.6384,0.0122,
33.213597,-0.0143,0.2052,-0.1060,0.3074,0.6384,0.0122,
33.214110,0.0523,-0.5300,-0.2041,0.3074,0.6384,0.0122,
33.225069,0.0523,-0.5300,-0.2041,0.3222,0.1761,0.0490,
33.279543,0.0523,-0.5300,-0.2041,0.3222,0.1761,0.0490,
33.280115,0.2132,0.0118,0.5951,0.3222,0.1761,0.0490,
33.290730,0.2132,0.0118,0.5951,0.2724,-0.0956,0.0295,
33.343668,0.2132,0.0118,0.5951,0.2724,-0.0956,0.0295,
33.345657,0.8507,0.3632,0.8201,0.2724,-0.0956,0.0295,
33.355445,0.8507,0.3632,0.8201,-0.0916,-0.0128,-0.1141,
33.410956,0.8507,0.3632,0.8201,-0.0916,-0.0128,-0.1141,
33.411518,0.6123,-0.8017,1.8635,-0.0916,-0.0128,-0.1141,
33.422159,0.6123,-0.8017,1.8635,-0.0664,-0.2515,-0.3705,
33.476288,0.6123,-0.8017,1.8635,-0.0664,-0.2515,-0.3705,
33.476846,1.6149,1.0163,0.0924,-0.0664,-0.2515,-0.3705,
33.486063,1.6149,1.0163,0.0924,0.1610,0.3995,0.1562,
33.540448,1.6149,1.0163,0.0924,0.1610,0.3995,0.1562,
33.541041,-0.2109,3.8163,-0.8908,0.1610,0.3995,0.1562,
33.551613,-0.2109,3.8163,-0.8908,-0.1810,-0.0521,-0.1071,
33.606758,-0.2109,3.8163,-0.8908,-0.1810,-0.0521,-0.1071,
33.607338,0.5780,0.9083,-1.6991,-0.1810,-0.0521,-0.1071,
33.617182,0.5780,0.9083,-1.6991,-0.8215,0.4496,0.0622,
33.671964,0.5780,0.9083,-1.6991,-0.8215,0.4496,0.0622,
33.673842,-1.5849,-1.5005,-0.3372,-0.8215,0.4496,0.0622,
33.683082,-1.5849,-1.5005,-0.3372,-0.9110,0.3213,0.0108,
33.736827,-1.5849,-1.5005,-0.3372,-0.9110,0.3213,0.0108,
33.738738,-0.8814,-0.4382,0.2123,-0.9110,0.3213,0.0108,
33.748084,-0.8814,-0.4382,0.2123,-0.6524,0.0507,-0.0073,
33.803083,-0.8814,-0.4382,0.2123,-0.6524,0.0507,-0.0073,
33.804713,-0.2546,-1.4764,0.4020,-0.6524,0.0507,-0.0073,
33.815862,-0.2546,-1.4764,0.4020,-0.4082,0.1830,0.1837,
33.868092,-0.2546,-1.4764,0.4020,-0.4082,0.1830,0.1837,
33.869773,0.4361,-1.7576,0.4706,-0.4082,0.1830,0.1837,
33.882100,0.4361,-1.7576,0.4706,-0.0183,0.3972,0.1784,
33.933517,0.4361,-1.7576,0.4706,-0.0183,0.3972,0.1784,
33.935482,-0.0652,-2.2463,0.8618,-0.0183,0.3972,0.1784,
33.944480,-0.0652,-2.2463,0.8618,0.3693,0.3468,0.2990,
33.999184,-0.0652,-2.2463,0.8618,0.3693,0.3468,0.2990,
34.001037,-0.0012,-1.8918,0.2906,0.3693,0.3468,0.2990,
34.011665,-0.0012,-1.8918,0.2906,0.6567,0.8858,0.1248,
34.065031,-0.0012,-1.8918,0.2906,0.6567,0.8858,0.1248,
34.065681,-0.3408,-1.7529,2.3495,0.6567,0.8858,0.1248,
34.076872,-0.3408,-1.7529,2.3495,0.4322,0.9059,0.0961,
34.130831,-0.3408,-1.7529,2.3495,0.4322,0.9059,0.0961,
34.131459,0.8160,9.9762,-1.6589,0.4322,0.9059,0.0961,
34.142320,0.8160,9.9762,-1.6589,0.4475,0.2714,-1.0643,
34.196141,0.8160,9.9762,-1.6589,0.4475,0.2714,-1.0643,
34.196667,0.3946,-1.3636,-3.5853,0.4475,0.2714,-1.0643,
34.205924,0.3946,-1.3636,-3.5853,0.2744,1.2462,-0.1646,
34.260913,0.3946,-1.3636,-3.5853,0.2744,1.2462,-0.1646,
34.261591,-0.7904,0.5706,-0.8860,0.2744,1.2462,-0.1646,
34.273321,-0.7904,0.5706,-0.8860,0.1237,-0.2896,0.4835,
34.327314,-0.7904,0.5706,-0.8860,0.1237,-0.2896,0.4835,
34.327915,0.9110,-1.0542,-1.7518,0.1237,-0.2896,0.4835,
34.338298,0.9110,-1.0542,-1.7518,0.2240,0.5029,-0.0125,
34.393148,0.9110,-1.0542,-1.7518,0.2240,0.5029,-0.0125,
34.393698,0.1696,-0.3532,-1.1494,0.2240,0.5029,-0.0125,
34.403329,0.1696,-0.3532,-1.1494,0.5935,0.1947,0.1038,
34.456876,0.1696,-0.3532,-1.1494,0.5935,0.1947,0.1038,
34.458311,0.2855,1.2062,-0.1599,0.5935,0.1947,0.1038,
34.468901,0.2855,1.2062,-0.1599,0.1681,0.3135,0.2294,
34.522848,0.2855,1.2062,-0.1599,0.1681,0.3135,0.2294,
34.523506,0.1876,-0.3730,0.1457,0.1681,0.3135,0.2294,
34.533196,0.1876,-0.3730,0.1457,0.0535,0.2372,0.2651,
34.588171,0.1876,-0.3730,0.1457,0.0535,0.2372,0.2651,
34.589843,0.0826,-0.1679,0.4094,0.0535,0.2372,0.2651,
34.599439,0.0826,-0.1679,0.4094,0.0907,0.0770,0.1410,
34.653269,0.0826,-0.1679,0.4094,0.0907,0.0770,0.1410,
34.654287,0.3026,-0.3621,0.7659,0.0907,0.0770,0.1410,
34.664414,0.3026,-0.3621,0.7659,0.0136,-0.0301,-0.1109,
34.718965,0.3026,-0.3621,0.7659,0.0136,-0.0301,-0.1109,
34.720640,0.5812,-0.0829,1.1554,0.0136,-0.0301,-0.1109,
34.730297,0.5812,-0.0829,1.1554,0.0713,-0.2808,-0.1539,
34.783740,0.5812,-0.0829,1.1554,0.0713,-0.2808,-0.1539,
34.785435,2.4068,0.3166,0.2703,0.0713,-0.2808,-0.1539,
34.795244,2.4068,0.3166,0.2703,0.1727,0.0722,-0.0591,
34.849320,2.4068,0.3166,0.2703,0.1727,0.0722,-0.0591,
34.850484,1.6426,2.9244,-0.1955,0.1727,0.0722,-0.0591,
34.865024,1.6426,2.9244,-0.1955,0.2298,0.3007,-0.0470,
34.915009,1.6426,2.9244,-0.1955,0.2298,0.3007,-0.0470,
34.916504,0.9517,2.9605,-0.1532,0.2298,0.3007,-0.0470,
34.926043,0.9517,2.9605,-0.1532,-0.3645,0.4342,-0.2673,
34.980843,0.9517,2.9605,-0.1532,-0.3645,0.4342,-0.2673,
34.982375,-0.4467,-0.9206,-1.1447,-0.3645,0.4342,-0.2673,
34.993039,-0.4467,-0.9206,-1.1447,-0.9843,0.9389,-0.1119,
35.047563,-0.4467,-0.9206,-1.1447,-0.9843,0.9389,-0.1119,
35.049371,-1.7955,-0.9410,-0.5968,-0.9843,0.9389,-0.1119,
35.058755,-1.7955,-0.9410,-0.5968,-1.0948,0.6979,-0.0730,
35.112060,-1.7955,-0.9410,-0.5968,-1.0948,0.6979,-0.0730,
35.114996,-1.0961,-0.6365,-0.3848,-1.0948,0.6979,-0.0730,
35.124416,-1.0961,-0.6365,-0.3848,-0.8696,0.4942,-0.0510,
35.177322,-1.0961,-0.6365,-0.3848,-0.8696,0.4942,-0.0510,
35.178008,-0.1317,-1.8344,-0.4309,-0.8696,0.4942,-0.0510,
35.188713,-0.1317,-1.8344,-0.4309,-0.4727,0.6248,0.0318,
35.242268,-0.1317,-1.8344,-0.4309,-0.4727,0.6248,0.0318,
35.244029,-0.1905,-1.3982,0.0177,-0.4727,0.6248,0.0318,
35.253721,-0.1905,-1.3982,0.0177,-0.1975,0.5124,0.1348,
35.308253,-0.1905,-1.3982,0.0177,-0.1975,0.5124,0.1348,
35.310058,-0.1994,-1.5200,0.2761,-0.1975,0.5124,0.1348,
35.318927,-0.1994,-1.5200,0.2761,0.0209,0.2028,0.1356,
35.372826,-0.1994,-1.5200,0.2761,0.0209,0.2028,0.1356,
35.373577,-1.0925,-0.4698,1.4691,0.0209,0.2028,0.1356,
35.384564,-1.0925,-0.4698,1.4691,0.0150,-0.2790,0.0919,
35.439236,-1.0925,-0.4698,1.4691,0.0150,-0.2790,0.0919,
35.440969,0.2854,-2.3201,2.2673,0.0150,-0.2790,0.0919,
35.449733,0.2854,-2.3201,2.2673,-0.0557,-0.6460,0.2289,
35.504484,0.2854,-2.3201,2.2673,-0.0557,-0.6460,0.2289,
35.505791,0.4841,3.8090,-1.2316,-0.0557,-0.6460,0.2289,
35.515824,0.4841,3.8090,-1.2316,0.4328,0.2240,-0.4884,
35.569312,0.4841,3.8090,-1.2316,0.4328,0.2240,-0.4884,
35.571469,-0.3721,-3.0017,-2.6669,0.4328,0.2240,-0.4884,
35.582058,-0.3721,-3.0017,-2.6669,0.2862,0.4763,0.1097,
35.636350,-0.3721,-3.0017,-2.6669,0.2862,0.4763,0.1097,
35.638462,0.3171,3.6137,-3.0668,0.2862,0.4763,0.1097,
35.647716,0.3171,3.6137,-3.0668,-0.0808,0.9432,-0.4710,
35.701431,0.3171,3.6137,-3.0668,-0.0808,0.9432,-0.4710,
35.702811,2.2598,-0.4399,-2.6768,-0.0808,0.9432,-0.4710,
35.712174,2.2598,-0.4399,-2.6768,0.4943,2.0852,0.1628,
35.767148,2.2598,-0.4399,-2.6768,0.4943,2.0852,0.1628,
35.768629,-1.4542,-0.0725,-0.1169,0.4943,2.0852,0.1628,
35.777550,-1.4542,-0.0725,-0.1169,0.3945,1.1353,0.1002,
35.833233,-1.4542,-0.0725,-0.1169,0.3945,1.1353,0.1002,
35.834938,-0.2302,0.0270,0.3269,0.3945,1.1353,0.1002,
35.843540,-0.2302,0.0270,0.3269,0.3322,0.5169,0.1216,
35.897708,-0.2302,0.0270,0.3269,0.3322,0.5169,0.1216,
35.899408,0.6108,0.1130,0.5897,0.3322,0.5169,0.1216,
35.909355,0.6108,0.1130,0.5897,0.0719,0.3016,0.0997,
35.963408,0.6108,0.1130,0.5897,0.0719,0.3016,0.0997,
35.965189,0.5730,-0.5215,1.1804,0.0719,0.3016,0.0997,
35.973497,0.5730,-0.5215,1.1804,0.2008,0.0780,0.0003,
36.027997,0.5730,-0.5215,1.1804,0.2008,0.0780,0.0003,
36.029922,0.7673,-0.1106,0.6913,0.2008,0.0780,0.0003,
36.040603,0.7673,-0.1106,0.6913,0.1910,-0.1129,-0.1607,
36.093731,0.7673,-0.1106,0.6913,0.1910,-0.1129,-0.1607,
36.095411,1.4487,1.0352,-0.3435,0.1910,-0.1129,-0.1607,
36.105531,1.4487,1.0352,-0.3435,0.2309,0.0312,-0.0321,
36.160491,1.4487,1.0352,-0.3435,0.2309,0.0312,-0.0321,
36.162195,1.9294,4.9113,0.0484,0.2309,0.0312,-0.0321,
36.170810,1.9294,4.9113,0.0484,0.1906,-0.0875,0.0052,
36.226682,1.9294,4.9113,0.0484,0.1906,-0.0875,0.0052,
36.229193,-0.0021,2.3580,-0.6659,0.1906,-0.0875,0.0052,
36.236725,-0.0021,2.3580,-0.6659,-0.6834,0.1310,-0.1187,
36.289754,-0.0021,2.3580,-0.6659,-0.6834,0.1310,-0.1187,
36.291116,-1.3602,-2.0277,-0.3558,-0.6834,0.1310,-0.1187,
36.300892,-1.3602,-2.0277,-0.3558,-1.1403,0.3401,-0.2013,
36.355859,-1.3602,-2.0277,-0.3558,-1.1403,0.3401,-0.2013,
36.357333,0.2913,-0.7124,-0.1795,-1.1403,0.3401,-0.2013,
36.366523,0.2913,-0.7124,-0.1795,-1.2103,0.3902,-0.0254,
36.421231,0.2913,-0.7124,-0.1795,-1.2103,0.3902,-0.0254,
36.424328,-0.7441,-2.1629,-0.1874,-1.2103,0.3902,-0.0254,
36.432867,-0.7441,-2.1629,-0.1874,-0.7208,0.6089,0.0336,
36.486360,-0.7441,-2.1629,-0.1874,-0.7208,0.6089,0.0336,
36.488044,0.0047,-2.0692,-0.2238,-0.7208,0.6089,0.0336,
36.497763,0.0047,-2.0692,-0.2238,-0.3709,0.7249,0.1779,
36.552484,0.0047,-2.0692,-0.2238,-0.3709,0.7249,0.1779,
36.553803,-0.5421,-2.0355,0.5756,-0.3709,0.7249,0.1779,
36.564170,-0.5421,-2.0355,0.5756,0.0548,0.4395,0.2894,
36.617611,-0.5421,-2.0355,0.5756,0.0548,0.4395,0.2894,
36.619543,0.1892,-4.2922,0.6333,0.0548,0.4395,0.2894,
36.629984,0.1892,-4.2922,0.6333,0.8858,0.2080,0.3300,
36.683129,0.1892,-4.2922,0.6333,0.8858,0.2080,0.3300,
36.684866,0.3311,-2.3408,0.8650,0.8858,0.2080,0.3300,
36.693844,0.3311,-2.3408,0.8650,1.2191,0.4229,0.5218,
36.748230,0.3311,-2.3408,0.8650,1.2191,0.4229,0.5218,
36.750368,-1.9611,5.4461,-0.1822,1.2191,0.4229,0.5218,
36.759887,-1.9611,5.4461,-0.1822,-0.0997,-0.6962,-0.0373,
36.813161,-1.9611,5.4461,-0.1822,-0.0997,-0.6962,-0.0373,
36.814138,-0.2017,4.3394,-2.4746,-0.0997,-0.6962,-0.0373,
36.825169,-0.2017,4.3394,-2.4746,-0.2694,0.3509,-0.7349,
36.879433,-0.2017,4.3394,-2.4746,-0.2694,0.3509,-0.7349,
36.881147,1.3376,-1.6146,-3.5378,-0.2694,0.3509,-0.7349,
36.891364,1.3376,-1.6146,-3.5378,0.1567,0.4934,0.5194,
36.945455,1.3376,-1.6146,-3.5378,0.1567,0.4934,0.5194,
36.947423,-1.0124,-0.3751,-0.2728,0.1567,0.4934,0.5194,
36.956723,-1.0124,-0.3751,-0.2728,0.3138,-0.2053,0.0371,
37.010971,-1.0124,-0.3751,-0.2728,0.3138,-0.2053,0.0371,
37.012682,1.4968,-0.2542,-0.1695,0.3138,-0.2053,0.0371,
37.022271,1.4968,-0.2542,-0.1695,0.5469,-0.0011,-0.0392,
37.076387,1.4968,-0.2542,-0.1695,0.5469,-0.0011,-0.0392,
37.077995,0.9096,-0.0584,0.4426,0.5469,-0.0011,-0.0392,
37.087997,0.9096,-0.0584,0.4426,0.1341,0.1138,0.0205,
37.142948,0.9096,-0.0584,0.4426,0.1341,0.1138,0.0205,
37.144524,-0.6191,0.2664,0.0224,0.1341,0.1138,0.0205,
37.153575,-0.6191,0.2664,0.0224,0.1946,0.1080,-0.2005,
37.208118,-0.6191,0.2664,0.0224,0.1946,0.1080,-0.2005,
37.209748,1.3781,-0.4230,1.5556,0.1946,0.1080,-0.2005,
37.219296,1.3781,-0.4230,1.5556,-0.0341,-0.4120,-0.0437,
37.273288,1.3781,-0.4230,1.5556,-0.0341,-0.4120,-0.0437,
37.275262,1.3185,-0.0199,1.0434,-0.0341,-0.4120,-0.0437,
37.283917,1.3185,-0.0199,1.0434,0.3384,0.0069,0.0925,
37.337615,1.3185,-0.0199,1.0434,0.3384,0.0069,0.0925,
37.339523,0.6718,3.4055,-0.4324,0.3384,0.0069,0.0925,
37.350059,0.6718,3.4055,-0.4324,0.2526,-0.2115,0.0202,
37.403844,0.6718,3.4055,-0.4324,0.2526,-0.2115,0.0202,
37.405466,-0.6070,2.6767,-0.0694,0.2526,-0.2115,0.0202,
37.415010,-0.6070,2.6767,-0.0694,-0.4246,0.0698,-0.0867,
37.470079,-0.6070,2.6767,-0.0694,-0.4246,0.0698,-0.0867,
37.471893,-0.1485,-1.2669,-0.4020,-0.4246,0.0698,-0.0867,
37.481416,-0.1485,-1.2669,-0.4020,-0.7987,0.5892,-0.0148,
37.535199,-0.1485,-1.2669,-0.4020,-0.7987,0.5892,-0.0148,
37.536923,-1.4483,-0.7401,-0.3842,-0.7987,0.5892,-0.0148,
37.547747,-1.4483,-0.7401,-0.3842,-0.8204,0.2040,0.0753,
37.599841,-1.4483,-0.7401,-0.3842,-0.8204,0.2040,0.0753,
37.601429,-0.9030,-0.9663,-0.0382,-0.8204,0.2040,0.0753,
37.610924,-0.9030,-0.9663,-0.0382,-0.7407,0.1295,-0.2810,
37.666020,-0.9030,-0.9663,-0.0382,-0.7407,0.1295,-0.2810,
37.668409,-0.0594,-1.8518,0.2234,-0.7407,0.1295,-0.2810,
37.677971,-0.0594,-1.8518,0.2234,-0.3943,0.0932,-0.0603,
37.732137,-0.0594,-1.8518,0.2234,-0.3943,0.0932,-0.0603,
37.733840,0.1472,-2.5974,0.4332,-0.3943,0.0932,-0.0603,
37.742880,0.1472,-2.5974,0.4332,-0.0026,0.0348,0.0864,
37.797558,0.1472,-2.5974,0.4332,-0.0026,0.0348,0.0864,
37.800468,0.3604,-3.6931,0.7827,-0.0026,0.0348,0.0864,
37.807857,0.3604,-3.6931,0.7827,0.7051,0.1003,0.1307,
37.862908,0.3604,-3.6931,0.7827,0.7051,0.1003,0.1307,
37.864650,0.6907,-2.3171,0.0705,0.7051,0.1003,0.1307,
37.874302,0.6907,-2.3171,0.0705,0.7871,0.5058,0.5021,
37.927348,0.6907,-2.3171,0.0705,0.7871,0.5058,0.5021,
37.929194,-0.6428,0.4356,-1.8475,0.7871,0.5058,0.5021,
37.939434,-0.6428,0.4356,-1.8475,-0.6466,0.6672,0.6382,
37.992938,-0.6428,0.4356,-1.8475,-0.6466,0.6672,0.6382,
37.994199,-3.8108,6.7844,-0.6334,-0.6466,0.6672,0.6382,
38.004448,-3.8108,6.7844,-0.6334,0.7660,-0.6377,-0.4139,
38.058056,-3.8108,6.7844,-0.6334,0.7660,-0.6377,-0.4139,
38.059675,5.8522,-4.3930,-0.8268,0.7660,-0.6377,-0.4139,
38.069603,5.8522,-4.3930,-0.8268,0.5340,0.6240,-0.2605,
38.122800,5.8522,-4.3930,-0.8268,0.5340,0.6240,-0.2605,
38.124323,-0.8083,3.0460,0.7096,0.5340,0.6240,-0.2605,
38.135319,-0.8083,3.0460,0.7096,0.7336,1.3558,-0.2027,
38.190545,-0.8083,3.0460,0.7096,0.7336,1.3558,-0.2027,
38.193127,-0.0628,-4.1292,-3.1260,0.7336,1.3558,-0.2027,
38.200989,-0.0628,-4.1292,-3.1260,0.5802,0.8063,-0.0890,
38.254007,-0.0628,-4.1292,-3.1260,0.5802,0.8063,-0.0890,
38.255273,-0.6833,0.7646,-1.0207,0.5802,0.8063,-0.0890,
38.265601,-0.6833,0.7646,-1.0207,0.2327,0.7851,-0.0336,
38.319064,-0.6833,0.7646,-1.0207,0.2327,0.7851,-0.0336,
38.320272,0.1000,-0.2512,-0.6483,0.2327,0.7851,-0.0336,
38.330355,0.1000,-0.2512,-0.6483,0.2199,-0.0677,0.2697,
38.384653,0.1000,-0.2512,-0.6483,0.2199,-0.0677,0.2697,
38.385704,1.0624,0.1153,0.4569,0.2199,-0.0677,0.2697,
38.396206,1.0624,0.1153,0.4569,-0.0441,-0.2912,0.1973,
38.450195,1.0624,0.1153,0.4569,-0.0441,-0.2912,0.1973,
38.451261,0.3434,-0.0758,1.2874,-0.0441,-0.2912,0.1973,
38.462063,0.3434,-0.0758,1.2874,-0.0476,-0.6796,0.2983,
38.516440,0.3434,-0.0758,1.2874,-0.0476,-0.6796,0.2983,
38.518371,0.1912,-0.1056,1.1718,-0.0476,-0.6796,0.2983,
38.527811,0.1912,-0.1056,1.1718,-0.1478,-0.9441,-0.0496,
38.582016,0.1912,-0.1056,1.1718,-0.1478,-0.9441,-0.0496,
38.584039,0.2648,2.0794,-0.4940,-0.1478,-0.9441,-0.0496,
38.593913,0.2648,2.0794,-0.4940,-0.0428,-0.7077,-0.2960,
38.646800,0.2648,2.0794,-0.4940,-0.0428,-0.7077,-0.2960,
38.648582,-0.8725,2.1275,-0.6582,-0.0428,-0.7077,-0.2960,
38.658532,-0.8725,2.1275,-0.6582,0.0003,-0.5728,-0.4279,
38.713288,-0.8725,2.1275,-0.6582,0.0003,-0.5728,-0.4279,
38.714919,0.4051,0.6448,-1.1529,0.0003,-0.5728,-0.4279,
38.724247,0.4051,0.6448,-1.1529,-0.5896,-0.1313,-0.5082,
38.779326,0.4051,0.6448,-1.1529,-0.5896,-0.1313,-0.5082,
38.781453,-0.1185,-0.8435,-0.1598,-0.5896,-0.1313,-0.5082,
38.790011,-0.1185,-0.8435,-0.1598,-1.0774,-0.1295,-0.0812,
38.846972,-0.1185,-0.8435,-0.1598,-1.0774,-0.1295,-0.0812,
38.848938,-0.4850,-1.3254,-0.0638,-1.0774,-0.1295,-0.0812,
38.857711,-0.4850,-1.3254,-0.0638,-0.8144,-0.4294,-0.0851,
38.909448,-0.4850,-1.3254,-0.0638,-0.8144,-0.4294,-0.0851,
38.911569,0.4948,-1.5765,-0.0844,-0.8144,-0.4294,-0.0851,
38.920945,0.4948,-1.5765,-0.0844,-0.5380,-0.3079,0.0919,
38.975137,0.4948,-1.5765,-0.0844,-0.5380,-0.3079,0.0919,
38.976627,0.4244,-2.0544,0.3148,-0.5380,-0.3079,0.0919,
38.986180,0.4244,-2.0544,0.3148,-0.3374,-0.1268,0.2801,
39.041272,0.4244,-2.0544,0.3148,-0.3374,-0.1268,0.2801,
39.043488,0.5425,-3.0066,0.1732,-0.3374,-0.1268,0.2801,
39.052211,0.5425,-3.0066,0.1732,0.0973,0.0715,0.4443,
39.107055,0.5425,-3.0066,0.1732,0.0973,0.0715,0.4443,
39.108935,0.7857,-3.3581,1.2847,0.0973,0.0715,0.4443,
39.117218,0.7857,-3.3581,1.2847,0.7874,0.6125,0.2468,
39.173772,0.7857,-3.3581,1.2847,0.7874,0.6125,0.2468,
39.175917,-0.4343,1.3971,2.5698,0.7874,0.6125,0.2468,
39.183531,-0.4343,1.3971,2.5698,0.3955,0.4363,0.4481,
39.236825,-0.4343,1.3971,2.5698,0.3955,0.4363,0.4481,
39.239145,-1.0896,7.2425,0.9506,0.3955,0.4363,0.4481,
39.248038,-1.0896,7.2425,0.9506,-0.7314,-0.1190,-0.4795,
39.301644,-1.0896,7.2425,0.9506,-0.7314,-0.1190,-0.4795,
39.303625,2.2690,0.2120,-0.9219,-0.7314,-0.1190,-0.4795,
39.313300,2.2690,0.2120,-0.9219,-0.1382,0.3063,-0.6532,
39.367360,2.2690,0.2120,-0.9219,-0.1382,0.3063,-0.6532,
39.368576,1.1428,-5.8626,-3.3519,-0.1382,0.3063,-0.6532,
39.379541,1.1428,-5.8626,-3.3519,1.3780,1.1875,0.1917,
39.434795,1.1428,-5.8626,-3.3519,1.3780,1.1875,0.1917,
39.436001,-2.3253,3.7067,0.8653,1.3780,1.1875,0.1917,
39.444661,-2.3253,3.7067,0.8653,-0.0192,-0.4617,0.2011,
39.499189,-2.3253,3.7067,0.8653,-0.0192,-0.4617,0.2011,
39.500918,1.3872,-1.1254,-1.7509,-0.0192,-0.4617,0.2011,
39.509504,1.3872,-1.1254,-1.7509,0.3884,0.7411,0.0312,
39.564622,1.3872,-1.1254,-1.7509,0.3884,0.7411,0.0312,
39.566480,-1.4131,0.6904,0.5787,0.3884,0.7411,0.0312,
39.574966,-1.4131,0.6904,0.5787,0.3114,-0.3299,0.3195,
39.630762,-1.4131,0.6904,0.5787,0.3114,-0.3299,0.3195,
39.632012,0.8747,-0.1124,0.0497,0.3114,-0.3299,0.3195,
39.640630,0.8747,-0.1124,0.0497,0.2292,-0.6726,0.4285,
39.695190,0.8747,-0.1124,0.0497,0.2292,-0.6726,0.4285,
39.696257,0.5372,-0.4190,0.8868,0.2292,-0.6726,0.4285,
39.706449,0.5372,-0.4190,0.8868,-0.0133,-0.6596,0.2514,
39.761421,0.5372,-0.4190,0.8868,-0.0133,-0.6596,0.2514,
39.763608,1.4859,-0.3110,1.4494,-0.0133,-0.6596,0.2514,
39.772174,1.4859,-0.3110,1.4494,-0.0757,-0.7300,0.1474,
39.826804,1.4859,-0.3110,1.4494,-0.0757,-0.7300,0.1474,
39.828341,1.9341,0.3453,0.6992,-0.0757,-0.7300,0.1474,
39.838146,1.9341,0.3453,0.6992,0.2411,-0.1252,0.0015,
39.891943,1.9341,0.3453,0.6992,0.2411,-0.1252,0.0015,
39.893646,2.5076,4.2173,-0.9884,0.2411,-0.1252,0.0015,
39.904471,2.5076,4.2173,-0.9884,-0.0050,0.5534,-0.2764,
39.955980,2.5076,4.2173,-0.9884,-0.0050,0.5534,-0.2764,
39.957253,-1.5293,3.1135,-1.7254,-0.0050,0.5534,-0.2764,
39.969023,-1.5293,3.1135,-1.7254,-0.7572,0.5211,-0.1822,
40.021872,-1.5293,3.1135,-1.7254,-0.7572,0.5211,-0.1822,
40.022467,-2.4859,-0.7630,-1.5591,-0.7572,0.5211,-0.1822,
40.033848,-2.4859,-0.7630,-1.5591,-1.3636,-0.0376,-0.2576,
40.089592,-2.4859,-0.7630,-1.5591,-1.3636,-0.0376,-0.2576,
40.091651,-0.6548,-0.7835,-1.2752,-1.3636,-0.0376,-0.2576,
40.099619,-0.6548,-0.7835,-1.2752,-1.3717,-0.4669,-0.3635,
40.153127,-0.6548,-0.7835,-1.2752,-1.3717,-0.4669,-0.3635,
40.154980,-0.7336,-3.0833,-0.6099,-1.3717,-0.4669,-0.3635,
40.166809,-0.7336,-3.0833,-0.6099,-1.1955,-0.2234,-0.1604,
40.220576,-0.7336,-3.0833,-0.6099,-1.1955,-0.2234,-0.1604,
40.222289,0.8433,-3.8160,-0.6655,-1.1955,-0.2234,-0.1604,
40.230150,0.8433,-3.8160,-0.6655,-0.4357,0.2805,-0.0861,
40.284657,0.8433,-3.8160,-0.6655,-0.4357,0.2805,-0.0861,
40.286440,0.1039,-1.4963,0.6080,-0.4357,0.2805,-0.0861,
40.297299,0.1039,-1.4963,0.6080,0.0576,0.3537,0.2236,
40.349091,0.1039,-1.4963,0.6080,0.0576,0.3537,0.2236,
40.350675,0.4666,-2.4696,-0.0894,0.0576,0.3537,0.2236,
40.361176,0.4666,-2.4696,-0.0894,0.4203,0.3215,0.3546,
40.415171,0.4666,-2.4696,-0.0894,0.4203,0.3215,0.3546,
40.416920,0.4362,-1.6864,1.1506,0.4203,0.3215,0.3546,
40.426992,0.4362,-1.6864,1.1506,0.9832,-0.0913,0.3879,
40.480957,0.4362,-1.6864,1.1506,0.9832,-0.0913,0.3879,
40.482969,0.7239,-1.2412,2.5012,0.9832,-0.0913,0.3879,
40.492562,0.7239,-1.2412,2.5012,0.8250,0.0362,0.4525,
40.546350,0.7239,-1.2412,2.5012,0.8250,0.0362,0.4525,
40.548164,0.6810,2.9687,0.4064,0.8250,0.0362,0.4525,
40.557331,0.6810,2.9687,0.4064,0.5893,0.7457,-0.1234,
40.612587,0.6810,2.9687,0.4064,0.5893,0.7457,-0.1234,
40.614957,-3.9194,5.0495,-2.9818,0.5893,0.7457,-0.1234,
40.624297,-3.9194,5.0495,-2.9818,0.0011,1.0817,-0.7529,
40.676294,-3.9194,5.0495,-2.9818,0.0011,1.0817,-0.7529,
40.676854,0.1646,-2.6316,-2.7712,0.0011,1.0817,-0.7529,
40.689458,0.1646,-2.6316,-2.7712,-0.0076,1.3534,0.3858,
40.743574,0.1646,-2.6316,-2.7712,-0.0076,1.3534,0.3858,
40.746335,0.6341,0.6036,-1.3683,-0.0076,1.3534,0.3858,
40.755264,0.6341,0.6036,-1.3683,0.2298,0.6318,0.3838,
40.808968,0.6341,0.6036,-1.3683,0.2298,0.6318,0.3838,
40.810860,-0.3515,-1.1397,-0.7328,0.2298,0.6318,0.3838,
40.820547,-0.3515,-1.1397,-0.7328,0.5220,0.4511,0.1671,
40.875020,-0.3515,-1.1397,-0.7328,0.5220,0.4511,0.1671,
40.875727,-0.9305,0.6114,-0.3480,0.5220,0.4511,0.1671,
40.885881,-0.9305,0.6114,-0.3480,0.2607,-0.0858,0.1263,
40.939376,-0.9305,0.6114,-0.3480,0.2607,-0.0858,0.1263,
40.941040,0.3768,-0.1945,0.3281,0.2607,-0.0858,0.1263,
40.951076,0.3768,-0.1945,0.3281,0.1083,-0.6600,0.1710,
41.004393,0.3768,-0.1945,0.3281,0.1083,-0.6600,0.1710,
41.006168,0.5489,-0.2348,1.0829,0.1083,-0.6600,0.1710,
41.015824,0.5489,-0.2348,1.0829,0.0757,-0.7779,-0.0180,
41.070275,0.5489,-0.2348,1.0829,0.0757,-0.7779,-0.0180,
41.071725,1.2606,-0.1459,1.8389,0.0757,-0.7779,-0.0180,
41.082033,1.2606,-0.1459,1.8389,0.0794,-0.9855,-0.1034,
41.135117,1.2606,-0.1459,1.8389,0.0794,-0.9855,-0.1034,
41.137068,2.5279,-0.1801,0.5313,0.0794,-0.9855,-0.1034,
41.147022,2.5279,-0.1801,0.5313,0.4673,-0.3841,0.1991,
41.201200,2.5279,-0.1801,0.5313,0.4673,-0.3841,0.1991,
41.203326,1.3319,3.1627,-0.2842,0.4673,-0.3841,0.1991,
41.213521,1.3319,3.1627,-0.2842,0.4917,0.0055,0.4598,
41.266247,1.3319,3.1627,-0.2842,0.4917,0.0055,0.4598,
41.268132,-0.8194,4.7539,-0.4555,0.4917,0.0055,0.4598,
41.278093,-0.8194,4.7539,-0.4555,-0.6590,-0.1348,-0.3070,
41.332722,-0.8194,4.7539,-0.4555,-0.6590,-0.1348,-0.3070,
41.334560,-0.4184,-0.7356,-1.0427,-0.6590,-0.1348,-0.3070,
41.344677,-0.4184,-0.7356,-1.0427,-1.2533,0.4769,-0.4864,
41.399035,-0.4184,-0.7356,-1.0427,-1.2533,0.4769,-0.4864,
41.400920,-0.8200,-1.3152,-0.5693,-1.2533,0.4769,-0.4864,
41.408992,-0.8200,-1.3152,-0.5693,-1.3635,-0.0318,-0.2563,
41.463595,-0.8200,-1.3152,-0.5693,-1.3635,-0.0318,-0.2563,
41.465372,-0.1483,-3.7443,-1.2078,-1.3635,-0.0318,-0.2563,
41.474512,-0.1483,-3.7443,-1.2078,-0.9612,0.2224,-0.1376,
41.529182,-0.1483,-3.7443,-1.2078,-0.9612,0.2224,-0.1376,
41.530987,0.0968,-2.5914,-0.6169,-0.9612,0.2224,-0.1376,
41.541023,0.0968,-2.5914,-0.6169,-0.4494,0.5111,0.2859,
41.595478,0.0968,-2.5914,-0.6169,-0.4494,0.5111,0.2859,
41.597370,-1.0201,-1.7300,0.8493,-0.4494,0.5111,0.2859,
41.605511,-1.0201,-1.7300,0.8493,0.0299,-0.2944,0.5073,
41.659166,-1.0201,-1.7300,0.8493,0.0299,-0.2944,0.5073,
41.660625,1.5333,-3.6289,0.3151,0.0299,-0.2944,0.5073,
41.671561,1.5333,-3.6289,0.3151,0.9160,0.0974,0.0053,
41.726803,1.5333,-3.6289,0.3151,0.9160,0.0974,0.0053,
41.728474,-0.1204,-0.9709,2.9560,0.9160,0.0974,0.0053,
41.736430,-0.1204,-0.9709,2.9560,1.1176,0.3054,0.0898,
41.790038,-0.1204,-0.9709,2.9560,1.1176,0.3054,0.0898,
41.791912,-0.8060,-0.5993,0.6363,1.1176,0.3054,0.0898,
41.802164,-0.8060,-0.5993,0.6363,-0.5938,0.5733,0.3528,
41.856720,-0.8060,-0.5993,0.6363,-0.5938,0.5733,0.3528,
41.858275,-4.5664,8.5717,-3.6320,-0.5938,0.5733,0.3528,
41.866978,-4.5664,8.5717,-3.6320,-0.3771,0.7297,-1.9132,
41.922018,-4.5664,8.5717,-3.6320,-0.3771,0.7297,-1.9132,
41.923838,4.1966,-4.7688,-4.9506,-0.3771,0.7297,-1.9132,
41.932842,4.1966,-4.7688,-4.9506,-0.0318,3.7130,0.9687,
41.987083,4.1966,-4.7688,-4.9506,-0.0318,3.7130,0.9687,
41.988735,-6.8473,1.8968,1.8679,-0.0318,3.7130,0.9687,
41.997494,-6.8473,1.8968,1.8679,0.0394,-0.0350,-0.1495,
42.052352,-6.8473,1.8968,1.8679,0.0394,-0.0350,-0.1495,
42.054311,1.6987,0.0994,-2.2883,0.0394,-0.0350,-0.1495,
42.063461,1.6987,0.0994,-2.2883,0.3926,-0.1472,0.3958,
42.118176,1.6987,0.0994,-2.2883,0.3926,-0.1472,0.3958,
42.120022,0.7673,-0.0982,-1.0453,0.3926,-0.1472,0.3958,
42.131128,0.7673,-0.0982,-1.0453,0.1573,0.3180,0.2731,
42.184021,0.7673,-0.0982,-1.0453,0.1573,0.3180,0.2731,
42.185975,-0.3015,1.0164,0.1335,0.1573,0.3180,0.2731,
42.196299,-0.3015,1.0164,0.1335,-0.2017,-0.2686,0.3751,
42.249181,-0.3015,1.0164,0.1335,-0.2017,-0.2686,0.3751,
42.250941,0.3165,-1.1176,0.2819,-0.2017,-0.2686,0.3751,
42.261555,0.3165,-1.1176,0.2819,-0.0504,-0.5973,0.4180,
42.315096,0.3165,-1.1176,0.2819,-0.0504,-0.5973,0.4180,
42.316893,0.5459,-0.3311,0.6704,-0.0504,-0.5973,0.4180,
42.326026,0.5459,-0.3311,0.6704,0.0545,-1.0084,0.1810,
42.381086,0.5459,-0.3311,0.6704,0.0545,-1.0084,0.1810,
42.382975,0.9267,-0.6727,1.0628,0.0545,-1.0084,0.1810,
42.391639,0.9267,-0.6727,1.0628,0.3018,-1.1274,0.0730,
42.445624,0.9267,-0.6727,1.0628,0.3018,-1.1274,0.0730,
42.447760,2.0509,-0.5945,0.1880,0.3018,-1.1274,0.0730,
42.457775,2.0509,-0.5945,0.1880,0.6125,-0.5788,0.3729,
42.511153,2.0509,-0.5945,0.1880,0.6125,-0.5788,0.3729,
42.513061,-1.1919,0.4288,-0.2414,0.6125,-0.5788,0.3729,
42.523548,-1.1919,0.4288,-0.2414,0.6883,-0.3370,0.0498,
42.577368,-1.1919,0.4288,-0.2414,0.6883,-0.3370,0.0498,
42.580476,1.1074,4.9466,-0.2472,0.6883,-0.3370,0.0498,
42.588255,1.1074,4.9466,-0.2472,-0.4724,0.4033,-0.1187,
42.641430,1.1074,4.9466,-0.2472,-0.4724,0.4033,-0.1187,
42.643132,0.5322,0.6017,0.1548,-0.4724,0.4033,-0.1187,
42.655285,0.5322,0.6017,0.1548,-1.2000,0.4435,-0.1387,
42.707298,0.5322,0.6017,0.1548,-1.2000,0.4435,-0.1387,
42.708296,-1.3413,-1.0540,-0.0835,-1.2000,0.4435,-0.1387,
42.719477,-1.3413,-1.0540,-0.0835,-0.9951,0.7327,-0.2094,
42.774467,-1.3413,-1.0540,-0.0835,-0.9951,0.7327,-0.2094,
42.776242,-0.6205,-1.6325,-0.2856,-0.9951,0.7327,-0.2094,
42.784839,-0.6205,-1.6325,-0.2856,-0.5119,0.1550,0.0321,
42.839919,-0.6205,-1.6325,-0.2856,-0.5119,0.1550,0.0321,
42.841522,0.1623,-3.3238,-0.8748,-0.5119,0.1550,0.0321,
42.850035,0.1623,-3.3238,-0.8748,0.0432,0.3331,0.0423,
42.902925,0.1623,-3.3238,-0.8748,0.0432,0.3331,0.0423,
42.903906,-0.7154,-2.5222,0.2556,0.0432,0.3331,0.0423,
42.914395,-0.7154,-2.5222,0.2556,0.5675,0.2402,-0.1828,
42.971384,-0.7154,-2.5222,0.2556,0.5675,0.2402,-0.1828,
42.973149,0.3451,-2.6829,0.9689,0.5675,0.2402,-0.1828,
42.982218,0.3451,-2.6829,0.9689,0.5863,0.2717,0.2987,
43.033830,0.3451,-2.6829,0.9689,0.5863,0.2717,0.2987,
43.035599,-2.1092,4.0557,-1.1942,0.5863,0.2717,0.2987,
43.047284,-2.1092,4.0557,-1.1942,-1.0455,0.6115,0.2688,
43.101586,-2.1092,4.0557,-1.1942,-1.0455,0.6115,0.2688,
43.103272,-1.1481,0.4265,0.7444,-1.0455,0.6115,0.2688,
43.110961,-1.1481,0.4265,0.7444,0.0139,-0.0657,-0.1281,
43.166504,-1.1481,0.4265,0.7444,0.0139,-0.0657,-0.1281,
43.168606,2.7266,0.0267,-2.6747,0.0139,-0.0657,-0.1281,
43.177666,2.7266,0.0267,-2.6747,1.0235,0.5012,-0.0153,
43.231202,2.7266,0.0267,-2.6747,1.0235,0.5012,-0.0153,
43.233284,-1.1036,-0.6189,0.3957,1.0235,0.5012,-0.0153,
43.242100,-1.1036,-0.6189,0.3957,0.3587,0.0057,0.0727,
43.297459,-1.1036,-0.6189,0.3957,0.3587,0.0057,0.0727,
43.299433,0.6185,0.0899,-0.6354,0.3587,0.0057,0.0727,
43.307964,0.6185,0.0899,-0.6354,0.3852,0.1252,0.2124,
43.363078,0.6185,0.0899,-0.6354,0.3852,0.1252,0.2124,
43.364934,-0.1135,0.1231,-0.3711,0.3852,0.1252,0.2124,
43.372768,-0.1135,0.1231,-0.3711,0.2401,-0.0713,0.1080,
43.426423,-0.1135,0.1231,-0.3711,0.2401,-0.0713,0.1080,
43.427703,-0.1942,-0.2557,0.0083,0.2401,-0.0713,0.1080,
43.438102,-0.1942,-0.2557,0.0083,0.1576,-0.4971,0.2682,
43.491710,-0.1942,-0.2557,0.0083,0.1576,-0.4971,0.2682,
43.493383,0.7870,-0.0812,-0.0014,0.1576,-0.4971,0.2682,
43.504132,0.7870,-0.0812,-0.0014,0.0052,-0.5447,0.1518,
43.557641,0.7870,-0.0812,-0.0014,0.0052,-0.5447,0.1518,
43.559496,0.5271,-0.7971,0.4101,0.0052,-0.5447,0.1518,
43.570918,0.5271,-0.7971,0.4101,0.0052,-0.4711,-0.0140,
43.622930,0.5271,-0.7971,0.4101,0.0052,-0.4711,-0.0140,
43.623928,0.0660,-0.3094,0.7548,0.0052,-0.4711,-0.0140,
43.634285,0.0660,-0.3094,0.7548,0.0704,-0.5962,-0.1877,
43.689631,0.0660,-0.3094,0.7548,0.0704,-0.5962,-0.1877,
43.691489,1.3695,-0.0318,-0.6562,0.0704,-0.5962,-0.1877,
43.700697,1.3695,-0.0318,-0.6562,0.1054,-0.8091,-0.2092,
43.755345,1.3695,-0.0318,-0.6562,0.1054,-0.8091,-0.2092,
43.757114,0.5265,0.3593,-0.2054,0.1054,-0.8091,-0.2092,
43.766779,0.5265,0.3593,-0.2054,0.4320,-0.3874,0.1184,
43.820687,0.5265,0.3593,-0.2054,0.4320,-0.3874,0.1184,
43.822309,0.9524,2.4079,0.6302,0.4320,-0.3874,0.1184,
43.831709,0.9524,2.4079,0.6302,0.4236,-0.5061,-0.1943,
43.885614,0.9524,2.4079,0.6302,0.4236,-0.5061,-0.1943,
43.887535,1.7796,3.5187,-0.0853,0.4236,-0.5061,-0.1943,
43.896460,1.7796,3.5187,-0.0853,0.0150,0.0205,-0.2581,
43.951670,1.7796,3.5187,-0.0853,0.0150,0.0205,-0.2581,
43.953235,-0.8142,0.0895,-0.4597,0.0150,0.0205,-0.2581,
43.963132,-0.8142,0.0895,-0.4597,-0.7973,0.1972,-0.2770,
44.016761,-0.8142,0.0895,-0.4597,-0.7973,0.1972,-0.2770,
44.018346,-1.0914,-1.6328,-0.4627,-0.7973,0.1972,-0.2770,
44.027569,-1.0914,-1.6328,-0.4627,-1.2358,-0.0669,0.0541,
44.081741,-1.0914,-1.6328,-0.4627,-1.2358,-0.0669,0.0541,
44.083827,-0.0746,-0.8484,-0.4675,-1.2358,-0.0669,0.0541,
44.092261,-0.0746,-0.8484,-0.4675,-0.9833,0.1261,-0.0261,
44.147342,-0.0746,-0.8484,-0.4675,-0.9833,0.1261,-0.0261,
44.149097,-0.1864,-1.7173,0.0304,-0.9833,0.1261,-0.0261,
44.158975,-0.1864,-1.7173,0.0304,-0.6545,0.2882,0.1604,
44.212323,-0.1864,-1.7173,0.0304,-0.6545,0.2882,0.1604,
44.213596,-0.1215,-1.4743,0.2808,-0.6545,0.2882,0.1604,
44.224035,-0.1215,-1.4743,0.2808,-0.3063,0.4552,0.2059,
44.278090,-0.1215,-1.4743,0.2808,-0.3063,0.4552,0.2059,
44.280405,-0.2526,-1.6559,0.7621,-0.3063,0.4552,0.2059,
44.289905,-0.2526,-1.6559,0.7621,0.1135,0.5011,0.1463,
44.343723,-0.2526,-1.6559,0.7621,0.1135,0.5011,0.1463,
44.345826,0.5233,-0.7937,1.3399,0.1135,0.5011,0.1463,
44.355317,0.5233,-0.7937,1.3399,0.2676,0.5718,-0.2198,
44.410468,0.5233,-0.7937,1.3399,0.2676,0.5718,-0.2198,
44.412557,0.1632,-0.4512,1.8187,0.2676,0.5718,-0.2198,
44.421877,0.1632,-0.4512,1.8187,0.2863,0.7025,-0.1932,
44.475880,0.1632,-0.4512,1.8187,0.2863,0.7025,-0.1932,
44.477250,1.4387,-2.7205,0.4322,0.2863,0.7025,-0.1932,
44.487269,1.4387,-2.7205,0.4322,0.1009,0.6455,0.4252,
44.540567,1.4387,-2.7205,0.4322,0.1009,0.6455,0.4252,
44.542228,-3.0964,3.0225,-4.6013,0.1009,0.6455,0.4252,
44.551945,-3.0964,3.0225,-4.6013,1.1267,0.6623,-0.9093,
44.608301,-3.0964,3.0225,-4.6013,1.1267,0.6623,-0.9093,
44.610319,0.8183,-0.7998,-3.0257,1.1267,0.6623,-0.9093,
44.617058,0.8183,-0.7998,-3.0257,0.2556,0.5136,0.2854,
44.674018,0.8183,-0.7998,-3.0257,0.2556,0.5136,0.2854,
44.676690,0.3045,3.5562,-0.6112,0.2556,0.5136,0.2854,
44.683175,0.3045,3.5562,-0.6112,0.3193,0.7614,-0.4450,
44.737884,0.3045,3.5562,-0.6112,0.3193,0.7614,-0.4450,
44.740123,-0.7303,-2.1625,-2.0642,0.3193,0.7614,-0.4450,
44.747825,-0.7303,-2.1625,-2.0642,0.2275,0.6309,0.3323,
44.802779,-0.7303,-2.1625,-2.0642,0.2275,0.6309,0.3323,
44.804517,-0.1129,1.5768,0.0999,0.2275,0.6309,0.3323,
44.813826,-0.1129,1.5768,0.0999,0.0435,-0.1608,0.1871,
44.867972,-0.1129,1.5768,0.0999,0.0435,-0.1608,0.1871,
44.870063,0.4755,-0.6362,-0.3852,0.0435,-0.1608,0.1871,
44.879045,0.4755,-0.6362,-0.3852,0.0458,0.0684,0.3975,
44.934321,0.4755,-0.6362,-0.3852,0.0458,0.0684,0.3975,
44.936096,-0.0471,-0.1119,0.4965,0.0458,0.0684,0.3975,
44.944808,-0.0471,-0.1119,0.4965,0.1390,-0.2306,0.2986,
45.000572,-0.0471,-0.1119,0.4965,0.1390,-0.2306,0.2986,
45.002249,0.4986,0.0169,0.6100,0.1390,-0.2306,0.2986,
45.011092,0.4986,0.0169,0.6100,-0.0342,-0.3351,0.1347,
45.063608,0.4986,0.0169,0.6100,-0.0342,-0.3351,0.1347,
45.065327,0.8623,-0.5999,0.4741,-0.0342,-0.3351,0.1347,
45.075067,0.8623,-0.5999,0.4741,-0.0808,-0.4887,-0.0263,
45.130316,0.8623,-0.5999,0.4741,-0.0808,-0.4887,-0.0263,
45.131725,1.5040,-0.3378,1.5691,-0.0808,-0.4887,-0.0263,
45.141390,1.5040,-0.3378,1.5691,0.1892,-0.6428,-0.1570,
45.195446,1.5040,-0.3378,1.5691,0.1892,-0.6428,-0.1570,
45.197035,2.1198,0.5779,0.8032,0.1892,-0.6428,-0.1570,
45.207527,2.1198,0.5779,0.8032,0.3952,-0.0159,0.1796,
45.260862,2.1198,0.5779,0.8032,0.3952,-0.0159,0.1796,
45.262165,0.6250,1.7478,0.6207,0.3952,-0.0159,0.1796,
45.271517,0.6250,1.7478,0.6207,0.3490,0.1465,0.0403,
45.327818,0.6250,1.7478,0.6207,0.3490,0.1465,0.0403,
45.329328,0.0661,2.2372,0.0321,0.3490,0.1465,0.0403,
45.337621,0.0661,2.2372,0.0321,0.0757,0.3239,-0.2205,
45.392535,0.0661,2.2372,0.0321,0.0757,0.3239,-0.2205,
45.393730,0.0030,1.2363,-0.9995,0.0757,0.3239,-0.2205,
45.404455,0.0030,1.2363,-0.9995,-0.5519,0.5704,-0.3219,
45.456798,0.0030,1.2363,-0.9995,-0.5519,0.5704,-0.3219,
45.458938,-1.5935,-0.9476,-1.0179,-0.5519,0.5704,-0.3219,
45.467544,-1.5935,-0.9476,-1.0179,-1.1095,0.2686,-0.0396,
45.523128,-1.5935,-0.9476,-1.0179,-1.1095,0.2686,-0.0396,
45.524853,-1.5195,-0.1776,-0.4990,-1.1095,0.2686,-0.0396,
45.534387,-1.5195,-0.1776,-0.4990,-1.0537,-0.1878,0.0226,
45.588623,-1.5195,-0.1776,-0.4990,-1.0537,-0.1878,0.0226,
45.590393,0.4486,-1.5059,-0.4969,-1.0537,-0.1878,0.0226,
45.600820,0.4486,-1.5059,-0.4969,-0.8616,0.3041,0.0244,
45.653405,0.4486,-1.5059,-0.4969,-0.8616,0.3041,0.0244,
45.654363,-0.3295,-1.1887,0.0594,-0.8616,0.3041,0.0244,
45.665243,-0.3295,-1.1887,0.0594,-0.5913,0.3009,0.1932,
45.718075,-0.3295,-1.1887,0.0594,-0.5913,0.3009,0.1932,
45.719038,-0.5510,-1.7481,0.2473,-0.5913,0.3009,0.1932,
45.730289,-0.5510,-1.7481,0.2473,-0.2967,0.0603,0.1373,
45.784694,-0.5510,-1.7481,0.2473,-0.2967,0.0603,0.1373,
45.785779,-1.0579,-2.0002,0.8772,-0.2967,0.0603,0.1373,
45.795924,-1.0579,-2.0002,0.8772,0.0738,-0.3558,-0.0105,
45.851295,-1.0579,-2.0002,0.8772,0.0738,-0.3558,-0.0105,
45.853532,-0.0916,-2.4875,1.3753,0.0738,-0.3558,-0.0105,
45.863590,-0.0916,-2.4875,1.3753,0.4496,-0.4696,0.0276,
45.916308,-0.0916,-2.4875,1.3753,0.4496,-0.4696,0.0276,
45.918054,2.4770,-1.3237,2.1596,0.4496,-0.4696,0.0276,
45.927332,2.4770,-1.3237,2.1596,0.1794,0.1026,0.2642,
45.980061,2.4770,-1.3237,2.1596,0.1794,0.1026,0.2642,
45.980689,0.2622,0.2764,0.5779,0.1794,0.1026,0.2642,
45.992280,0.2622,0.2764,0.5779,-0.3228,1.0402,-0.0150,
46.047270,0.2622,0.2764,0.5779,-0.3228,1.0402,-0.0150,
46.048525,0.3956,1.8310,-1.9503,-0.3228,1.0402,-0.0150,
46.057641,0.3956,1.8310,-1.9503,-0.0580,1.7393,-0.2191,
46.113391,0.3956,1.8310,-1.9503,-0.0580,1.7393,-0.2191,
46.114559,-0.0888,0.8375,-5.2356,-0.0580,1.7393,-0.2191,
46.122673,-0.0888,0.8375,-5.2356,0.9511,1.4171,-0.0075,
46.178055,-0.0888,0.8375,-5.2356,0.9511,1.4171,-0.0075,
46.179334,-1.1015,-0.0273,-1.4995,0.9511,1.4171,-0.0075,
46.188759,-1.1015,-0.0273,-1.4995,0.1924,-0.0997,0.2636,
46.242927,-1.1015,-0.0273,-1.4995,0.1924,-0.0997,0.2636,
46.244704,0.1080,-2.7008,-2.1774,0.1924,-0.0997,0.2636,
46.254972,0.1080,-2.7008,-2.1774,0.3943,0.1588,0.0881,
46.309247,0.1080,-2.7008,-2.1774,0.3943,0.1588,0.0881,
46.310808,0.9182,2.1951,0.0697,0.3943,0.1588,0.0881,
46.321577,0.9182,2.1951,0.0697,0.2227,0.2027,-0.0006,
46.374118,0.9182,2.1951,0.0697,0.2227,0.2027,-0.0006,
46.375460,0.1891,-1.4266,-0.0956,0.2227,0.2027,-0.0006,
46.384169,0.1891,-1.4266,-0.0956,0.4786,0.0870,0.3499,
46.439176,0.1891,-1.4266,-0.0956,0.4786,0.0870,0.3499,
46.440923,-0.7143,0.6623,0.8008,0.4786,0.0870,0.3499,
46.450731,-0.7143,0.6623,0.8008,0.3175,-0.3212,0.2602,
46.504883,-0.7143,0.6623,0.8008,0.3175,-0.3212,0.2602,
46.506911,0.6167,0.1192,1.1929,0.3175,-0.3212,0.2602,
46.516228,0.6167,0.1192,1.1929,-0.0017,-0.5264,0.1723,
46.569890,0.6167,0.1192,1.1929,-0.0017,-0.5264,0.1723,
46.571458,0.9802,-0.4011,1.3076,-0.0017,-0.5264,0.1723,
46.581512,0.9802,-0.4011,1.3076,-0.0418,-0.2443,0.0267,
46.635982,0.9802,-0.4011,1.3076,-0.0418,-0.2443,0.0267,
46.637726,0.9784,-0.4715,1.2009,-0.0418,-0.2443,0.0267,
46.646745,0.9784,-0.4715,1.2009,-0.0170,-0.3120,-0.1620,
46.701133,0.9784,-0.4715,1.2009,-0.0170,-0.3120,-0.1620,
46.703606,1.3375,0.1592,0.2994,-0.0170,-0.3120,-0.1620,
46.712141,1.3375,0.1592,0.2994,0.1686,-0.1768,-0.0322,
46.767867,1.3375,0.1592,0.2994,0.1686,-0.1768,-0.0322,
46.768864,2.1941,3.6058,0.0911,0.1686,-0.1768,-0.0322,
46.778103,2.1941,3.6058,0.0911,0.1303,-0.2735,0.0429,
46.833387,2.1941,3.6058,0.0911,0.1303,-0.2735,0.0429,
46.833930,2.4864,3.4123,-0.3747,0.1303,-0.2735,0.0429,
46.842556,2.4864,3.4123,-0.3747,-0.6797,0.6565,-0.1287,
46.898124,2.4864,3.4123,-0.3747,-0.6797,0.6565,-0.1287,
46.898865,-0.8278,-2.3590,-0.6199,-0.6797,0.6565,-0.1287,
46.908622,-0.8278,-2.3590,-0.6199,-0.9203,0.8522,-0.1231,
46.963450,-0.8278,-2.3590,-0.6199,-0.9203,0.8522,-0.1231,
46.964156,-1.0049,-0.9547,-0.3149,-0.9203,0.8522,-0.1231,
46.973890,-1.0049,-0.9547,-0.3149,-0.6773,0.4664,-0.0400,
47.027514,-1.0049,-0.9547,-0.3149,-0.6773,0.4664,-0.0400,
47.028227,-1.2166,-1.4295,-0.4168,-0.6773,0.4664,-0.0400,
47.039278,-1.2166,-1.4295,-0.4168,-0.6564,0.6483,0.0118,
47.093006,-1.2166,-1.4295,-0.4168,-0.6564,0.6483,0.0118,
47.093693,-0.4129,-1.7374,-0.1328,-0.6564,0.6483,0.0118,
47.104277,-0.4129,-1.7374,-0.1328,-0.4400,0.8073,0.1345,
47.158434,-0.4129,-1.7374,-0.1328,-0.4400,0.8073,0.1345,
47.159367,-0.4133,-1.1738,0.4692,-0.4400,0.8073,0.1345,
