
time,ax,ay,az,wx,wy,wz,
0.022729,0.0000,0.0000,0.0000,0.0000,0.0000,0.0000,
0.034013,0.0000,0.0000,0.0000,0.5764,0.5536,-0.4009,
0.073147,0.0000,0.0000,0.0000,0.5764,0.5536,-0.4009,
0.097831,0.0000,0.0000,0.0000,0.5898,0.6187,-0.3432,
0.139854,0.0000,0.0000,0.0000,0.5898,0.6187,-0.3432,
0.164040,0.0000,0.0000,0.0000,0.5547,0.8580,-0.1810,
0.204813,0.0000,0.0000,0.0000,0.5547,0.8580,-0.1810,
0.229231,0.0000,0.0000,0.0000,0.0779,0.5901,0.2300,
0.270235,0.0000,0.0000,0.0000,0.0779,0.5901,0.2300,
0.294168,0.0000,0.0000,0.0000,-0.0898,0.3476,0.4519,
0.336408,0.0000,0.0000,0.0000,-0.0898,0.3476,0.4519,
0.359749,0.0000,0.0000,0.0000,0.1842,0.8114,0.4989,
0.402709,0.0000,0.0000,0.0000,0.1842,0.8114,0.4989,
0.425789,0.0000,0.0000,0.0000,-0.2595,0.9276,-0.0182,
0.466617,0.0000,0.0000,0.0000,-0.2595,0.9276,-0.0182,
0.483222,-0.6446,0.0841,1.9490,-0.2595,0.9276,-0.0182,
0.490955,-0.6446,0.0841,1.9490,0.2457,1.2668,-0.0719,
0.532675,-0.6446,0.0841,1.9490,0.2457,1.2668,-0.0719,
0.549530,-0.7508,-1.4536,0.9551,0.2457,1.2668,-0.0719,
0.557439,-0.7508,-1.4536,0.9551,0.7871,1.7455,-0.2146,
0.598050,-0.7508,-1.4536,0.9551,0.7871,1.7455,-0.2146,
0.614951,0.3019,-3.0653,2.0526,0.7871,1.7455,-0.2146,
0.622106,0.3019,-3.0653,2.0526,1.0369,2.1855,-0.5182,
0.663044,0.3019,-3.0653,2.0526,1.0369,2.1855,-0.5182,
0.680246,-0.5442,-3.4124,1.0168,1.0369,2.1855,-0.5182,
0.687533,-0.5442,-3.4124,1.0168,1.2920,1.8085,-0.2845,
0.728070,-0.5442,-3.4124,1.0168,1.2920,1.8085,-0.2845,
0.745326,-0.3115,3.6946,0.9839,1.2920,1.8085,-0.2845,
0.753467,-0.3115,3.6946,0.9839,0.6234,0.6144,-0.5513,
0.794043,-0.3115,3.6946,0.9839,0.6234,0.6144,-0.5513,
0.811126,-1.0924,1.9661,1.9740,0.6234,0.6144,-0.5513,
0.818624,-1.0924,1.9661,1.9740,0.4491,1.2002,-0.0603,
0.859488,-1.0924,1.9661,1.9740,0.4491,1.2002,-0.0603,
0.877441,-1.0847,2.7151,3.5002,0.4491,1.2002,-0.0603,
0.883598,-1.0847,2.7151,3.5002,0.1382,1.1880,0.0693,
0.925369,-1.0847,2.7151,3.5002,0.1382,1.1880,0.0693,
0.942614,0.5011,2.6853,-1.0560,0.1382,1.1880,0.0693,
0.950424,0.5011,2.6853,-1.0560,1.2501,0.8505,-0.1964,
0.990993,0.5011,2.6853,-1.0560,1.2501,0.8505,-0.1964,
1.008618,-1.3065,-4.4127,-1.7078,1.2501,0.8505,-0.1964,
1.016005,-1.3065,-4.4127,-1.7078,1.1622,1.2833,-0.5652,
1.056149,-1.3065,-4.4127,-1.7078,1.1622,1.2833,-0.5652,
1.074094,0.6868,1.4568,-1.2222,1.1622,1.2833,-0.5652,
1.080229,0.6868,1.4568,-1.2222,1.0820,0.3680,-0.0452,
1.122506,0.6868,1.4568,-1.2222,1.0820,0.3680,-0.0452,
1.138436,-0.9380,-0.3713,-1.4482,1.0820,0.3680,-0.0452,
1.145559,-0.9380,-0.3713,-1.4482,0.6981,0.0945,0.1794,
1.186914,-0.9380,-0.3713,-1.4482,0.6981,0.0945,0.1794,
1.203988,-0.2896,-0.7398,-0.3190,0.6981,0.0945,0.1794,
1.210895,-0.2896,-0.7398,-0.3190,0.4102,-0.0625,-0.0137,
1.252810,-0.2896,-0.7398,-0.3190,0.4102,-0.0625,-0.0137,
1.269510,-0.2778,-1.2225,0.7728,0.4102,-0.0625,-0.0137,
1.276872,-0.2778,-1.2225,0.7728,0.4502,-0.3610,-0.0333,
1.318028,-0.2778,-1.2225,0.7728,0.4502,-0.3610,-0.0333,
1.334812,0.6003,0.8025,1.9131,0.4502,-0.3610,-0.0333,
1.341453,0.6003,0.8025,1.9131,0.2773,-0.1982,-0.2915,
1.383696,0.6003,0.8025,1.9131,0.2773,-0.1982,-0.2915,
1.400631,1.0553,2.2992,0.8493,0.2773,-0.1982,-0.2915,
1.409065,1.0553,2.2992,0.8493,0.0165,-0.1732,0.1662,
1.449124,1.0553,2.2992,0.8493,0.0165,-0.1732,0.1662,
1.465810,-0.3594,2.8029,-2.8969,0.0165,-0.1732,0.1662,
1.473554,-0.3594,2.8029,-2.8969,-0.9939,-0.0298,0.9507,
1.515244,-0.3594,2.8029,-2.8969,-0.9939,-0.0298,0.9507,
1.532865,-3.5848,-0.5695,-0.2064,-0.9939,-0.0298,0.9507,
1.538100,-3.5848,-0.5695,-0.2064,-0.9180,0.1933,-0.0423,
1.579876,-3.5848,-0.5695,-0.2064,-0.9180,0.1933,-0.0423,
1.596381,0.6739,0.2342,-0.0972,-0.9180,0.1933,-0.0423,
1.603463,0.6739,0.2342,-0.0972,-0.9951,0.8274,-0.2935,
1.645678,0.6739,0.2342,-0.0972,-0.9951,0.8274,-0.2935,
1.662210,-2.5693,-0.8670,0.9715,-0.9951,0.8274,-0.2935,
1.669349,-2.5693,-0.8670,0.9715,-0.4354,0.5107,0.2743,
1.710548,-2.5693,-0.8670,0.9715,-0.4354,0.5107,0.2743,
1.727061,-1.8640,-3.5938,0.9488,-0.4354,0.5107,0.2743,
1.734840,-1.8640,-3.5938,0.9488,0.3294,0.7205,-0.0079,
1.776361,-1.8640,-3.5938,0.9488,0.3294,0.7205,-0.0079,
1.792682,-1.4056,-0.1545,2.1835,0.3294,0.7205,-0.0079,
1.800423,-1.4056,-0.1545,2.1835,0.5579,0.7879,0.0350,
1.841653,-1.4056,-0.1545,2.1835,0.5579,0.7879,0.0350,
1.858839,-0.5593,3.0535,1.7260,0.5579,0.7879,0.0350,
1.866805,-0.5593,3.0535,1.7260,-0.1130,1.3331,-0.1243,
1.907602,-0.5593,3.0535,1.7260,-0.1130,1.3331,-0.1243,
1.924112,-2.7794,6.1993,-1.2373,-0.1130,1.3331,-0.1243,
1.933228,-2.7794,6.1993,-1.2373,-0.0791,-1.4320,-0.2279,
1.972601,-2.7794,6.1993,-1.2373,-0.0791,-1.4320,-0.2279,
1.989874,0.1288,-4.4171,-3.0929,-0.0791,-1.4320,-0.2279,
1.996973,0.1288,-4.4171,-3.0929,1.0292,0.7854,0.1545,
2.038180,0.1288,-4.4171,-3.0929,1.0292,0.7854,0.1545,
2.055161,-3.6485,2.0175,-1.9613,1.0292,0.7854,0.1545,
2.062074,-3.6485,2.0175,-1.9613,0.3448,-0.5924,-0.6590,
2.104117,-3.6485,2.0175,-1.9613,0.3448,-0.5924,-0.6590,
2.120195,-2.5584,-1.6041,-3.3603,0.3448,-0.5924,-0.6590,
2.127938,-2.5584,-1.6041,-3.3603,0.3943,-1.2990,0.2239,
2.168736,-2.5584,-1.6041,-3.3603,0.3943,-1.2990,0.2239,
2.185987,-0.2043,-1.2107,-1.0259,0.3943,-1.2990,0.2239,
2.192918,-0.2043,-1.2107,-1.0259,0.2286,-1.1640,0.0073,
2.235186,-0.2043,-1.2107,-1.0259,0.2286,-1.1640,0.0073,
2.251200,-0.2651,-0.5491,0.3453,0.2286,-1.1640,0.0073,
2.258988,-0.2651,-0.5491,0.3453,0.1374,-1.1661,-0.0571,
2.301971,-0.2651,-0.5491,0.3453,0.1374,-1.1661,-0.0571,
2.317046,0.5922,0.9174,1.4284,0.1374,-1.1661,-0.0571,
2.324851,0.5922,0.9174,1.4284,-0.2686,-1.0011,-0.3235,
2.367918,0.5922,0.9174,1.4284,-0.2686,-1.0011,-0.3235,
2.382241,3.2388,0.3371,1.7729,-0.2686,-1.0011,-0.3235,
2.391133,3.2388,0.3371,1.7729,0.1107,-0.0666,0.2372,
2.431350,3.2388,0.3371,1.7729,0.1107,-0.0666,0.2372,
2.448544,0.2952,2.9345,1.0367,0.1107,-0.0666,0.2372,
2.455697,0.2952,2.9345,1.0367,-0.2472,-0.4334,0.5563,
2.496620,0.2952,2.9345,1.0367,-0.2472,-0.4334,0.5563,
2.513445,-2.2358,0.3396,-2.9623,-0.2472,-0.4334,0.5563,
2.521494,-2.2358,0.3396,-2.9623,-1.1104,0.2743,0.6513,
2.562324,-2.2358,0.3396,-2.9623,-1.1104,0.2743,0.6513,
2.578731,-3.4390,3.8840,-0.4831,-1.1104,0.2743,0.6513,
2.586060,-3.4390,3.8840,-0.4831,-1.1558,-0.7324,0.1466,
2.627294,-3.4390,3.8840,-0.4831,-1.1558,-0.7324,0.1466,
2.644110,2.0374,-2.4830,0.5438,-1.1558,-0.7324,0.1466,
2.651931,2.0374,-2.4830,0.5438,-0.7329,1.6840,-0.2185,
2.692311,2.0374,-2.4830,0.5438,-0.7329,1.6840,-0.2185,
2.710150,-3.1282,-0.7356,1.0155,-0.7329,1.6840,-0.2185,
2.717003,-3.1282,-0.7356,1.0155,-0.1962,1.1642,0.2195,
2.759616,-3.1282,-0.7356,1.0155,-0.1962,1.1642,0.2195,
2.775368,-1.9963,-2.4151,0.4826,-0.1962,1.1642,0.2195,
2.782834,-1.9963,-2.4151,0.4826,0.4424,1.2375,0.0822,
2.825387,-1.9963,-2.4151,0.4826,0.4424,1.2375,0.0822,
2.841833,-1.6132,-1.6650,0.2946,0.4424,1.2375,0.0822,
2.848571,-1.6132,-1.6650,0.2946,1.1080,1.4364,-0.1115,
2.889614,-1.6132,-1.6650,0.2946,1.1080,1.4364,-0.1115,
2.906640,-2.6173,4.4323,0.5778,1.1080,1.4364,-0.1115,
2.913432,-2.6173,4.4323,0.5778,0.4725,1.0253,-0.2234,
2.954977,-2.6173,4.4323,0.5778,0.4725,1.0253,-0.2234,
2.971783,-1.3949,2.0514,1.3141,0.4725,1.0253,-0.2234,
2.978914,-1.3949,2.0514,1.3141,-0.5492,1.2825,0.0551,
3.020418,-1.3949,2.0514,1.3141,-0.5492,1.2825,0.0551,
3.036916,-4.3655,2.3053,-2.7737,-0.5492,1.2825,0.0551,
3.044440,-4.3655,2.3053,-2.7737,-0.3048,-0.6057,-0.7509,
3.085578,-4.3655,2.3053,-2.7737,-0.3048,-0.6057,-0.7509,
3.102555,1.2418,-4.3895,-4.2366,-0.3048,-0.6057,-0.7509,
3.109624,1.2418,-4.3895,-4.2366,1.1102,-0.3346,0.4833,
3.152171,1.2418,-4.3895,-4.2366,1.1102,-0.3346,0.4833,
3.168143,-4.0180,1.9068,0.4095,1.1102,-0.3346,0.4833,
3.175508,-4.0180,1.9068,0.4095,0.4617,-0.8166,0.0050,
3.216712,-4.0180,1.9068,0.4095,0.4617,-0.8166,0.0050,
3.233771,-1.4150,-1.0505,-1.8092,0.4617,-0.8166,0.0050,
3.241648,-1.4150,-1.0505,-1.8092,0.3641,-1.6177,0.2743,
3.282811,-1.4150,-1.0505,-1.8092,0.3641,-1.6177,0.2743,
3.299546,0.4253,-0.3201,-0.5967,0.3641,-1.6177,0.2743,
3.306130,0.4253,-0.3201,-0.5967,0.1746,-1.4429,0.0985,
3.348743,0.4253,-0.3201,-0.5967,0.1746,-1.4429,0.0985,
3.364610,0.6015,-0.6855,0.5874,0.1746,-1.4429,0.0985,
3.371864,0.6015,-0.6855,0.5874,0.1284,-1.0873,0.0249,
3.413279,0.6015,-0.6855,0.5874,0.1284,-1.0873,0.0249,
3.430158,0.3921,-0.2361,1.3357,0.1284,-1.0873,0.0249,
3.437391,0.3921,-0.2361,1.3357,0.1988,-0.7382,-0.2295,
3.479193,0.3921,-0.2361,1.3357,0.1988,-0.7382,-0.2295,
3.496139,1.9008,1.4046,1.0261,0.1988,-0.7382,-0.2295,
3.503156,1.9008,1.4046,1.0261,0.2184,-0.4377,-0.2466,
3.545669,1.9008,1.4046,1.0261,0.2184,-0.4377,-0.2466,
3.561785,2.1628,2.1952,1.6316,0.2184,-0.4377,-0.2466,
3.569252,2.1628,2.1952,1.6316,0.1069,-0.3218,0.3176,
3.611032,2.1628,2.1952,1.6316,0.1069,-0.3218,0.3176,
3.626951,-0.7272,1.2895,-2.7703,0.1069,-0.3218,0.3176,
3.633577,-0.7272,1.2895,-2.7703,-0.5180,0.5030,0.5200,
3.676949,-0.7272,1.2895,-2.7703,-0.5180,0.5030,0.5200,
3.691976,-5.0916,1.3254,-0.2272,-0.5180,0.5030,0.5200,
3.699772,-5.0916,1.3254,-0.2272,-1.1978,-0.3853,0.3845,
3.741937,-5.0916,1.3254,-0.2272,-1.1978,-0.3853,0.3845,
3.757959,1.9911,-0.8170,-0.3545,-1.1978,-0.3853,0.3845,
3.766397,1.9911,-0.8170,-0.3545,-0.4484,1.5188,-0.1735,
3.809858,1.9911,-0.8170,-0.3545,-0.4484,1.5188,-0.1735,
3.824211,-1.8828,-0.2201,-0.0244,-0.4484,1.5188,-0.1735,
3.831809,-1.8828,-0.2201,-0.0244,-0.2906,1.8028,-0.0654,
3.873226,-1.8828,-0.2201,-0.0244,-0.2906,1.8028,-0.0654,
3.889575,-2.1400,-1.0579,-0.3796,-0.2906,1.8028,-0.0654,
3.896360,-2.1400,-1.0579,-0.3796,0.0373,1.4106,0.1106,
3.937365,-2.1400,-1.0579,-0.3796,0.0373,1.4106,0.1106,
3.954217,-2.7228,-2.1724,-0.4074,0.0373,1.4106,0.1106,
3.961009,-2.7228,-2.1724,-0.4074,0.5160,1.4769,-0.0347,
4.003614,-2.7228,-2.1724,-0.4074,0.5160,1.4769,-0.0347,
4.020087,-1.3310,-0.4907,0.7485,0.5160,1.4769,-0.0347,
4.027801,-1.3310,-0.4907,0.7485,0.8615,1.0806,0.0753,
4.068320,-1.3310,-0.4907,0.7485,0.8615,1.0806,0.0753,
4.084657,-1.2751,4.2602,1.9978,0.8615,1.0806,0.0753,
4.093248,-1.2751,4.2602,1.9978,0.2417,0.7269,0.0799,
4.133428,-1.2751,4.2602,1.9978,0.2417,0.7269,0.0799,
4.150817,0.0980,5.8911,-0.4729,0.2417,0.7269,0.0799,
4.158337,0.0980,5.8911,-0.4729,-0.2850,0.3125,-0.7782,
4.199466,0.0980,5.8911,-0.4729,-0.2850,0.3125,-0.7782,
4.216215,-2.0726,-2.4687,-1.8727,-0.2850,0.3125,-0.7782,
4.223191,-2.0726,-2.4687,-1.8727,-0.2092,0.2784,-0.0325,
4.264421,-2.0726,-2.4687,-1.8727,-0.2092,0.2784,-0.0325,
4.282661,-0.1050,-3.0192,-4.5996,-0.2092,0.2784,-0.0325,
4.288825,-0.1050,-3.0192,-4.5996,1.7683,-0.2460,-0.3511,
4.330577,-0.1050,-3.0192,-4.5996,1.7683,-0.2460,-0.3511,
4.347035,-3.6807,1.4400,-1.6903,1.7683,-0.2460,-0.3511,
4.353931,-3.6807,1.4400,-1.6903,0.2023,-1.0330,0.3448,
4.395724,-3.6807,1.4400,-1.6903,0.2023,-1.0330,0.3448,
4.412902,1.6101,-1.1724,-0.7011,0.2023,-1.0330,0.3448,
4.419455,1.6101,-1.1724,-0.7011,0.0602,-1.2494,0.4262,
4.461745,1.6101,-1.1724,-0.7011,0.0602,-1.2494,0.4262,
4.479226,0.3666,-0.9148,-0.0538,0.0602,-1.2494,0.4262,
4.485400,0.3666,-0.9148,-0.0538,0.2740,-0.8085,0.1013,
4.526972,0.3666,-0.9148,-0.0538,0.2740,-0.8085,0.1013,
4.543870,0.3003,-0.7575,0.5897,0.2740,-0.8085,0.1013,
4.551224,0.3003,-0.7575,0.5897,0.2071,-0.5226,-0.2450,
4.592606,0.3003,-0.7575,0.5897,0.2071,-0.5226,-0.2450,
4.609179,0.8529,0.6840,0.7366,0.2071,-0.5226,-0.2450,
4.616837,0.8529,0.6840,0.7366,0.1776,-0.4180,-0.3603,
4.657383,0.8529,0.6840,0.7366,0.1776,-0.4180,-0.3603,
4.674122,2.2646,1.4651,1.3290,0.1776,-0.4180,-0.3603,
4.681427,2.2646,1.4651,1.3290,0.0205,-0.2121,0.0140,
4.723398,2.2646,1.4651,1.3290,0.0205,-0.2121,0.0140,
4.740420,1.4093,2.1981,-1.9317,0.0205,-0.2121,0.0140,
4.747271,1.4093,2.1981,-1.9317,-0.1648,0.5107,0.6410,
4.790548,1.4093,2.1981,-1.9317,-0.1648,0.5107,0.6410,
4.806407,-4.1222,-0.0034,-0.6781,-0.1648,0.5107,0.6410,
4.813897,-4.1222,-0.0034,-0.6781,-1.0307,0.0979,0.5325,
4.855481,-4.1222,-0.0034,-0.6781,-1.0307,0.0979,0.5325,
4.871763,0.9383,0.9046,-0.1129,-1.0307,0.0979,0.5325,
4.878449,0.9383,0.9046,-0.1129,-0.4007,1.1634,-0.0809,
4.920844,0.9383,0.9046,-0.1129,-0.4007,1.1634,-0.0809,
4.938403,0.0634,-1.6776,-0.9735,-0.4007,1.1634,-0.0809,
4.944597,0.0634,-1.6776,-0.9735,-0.1368,2.5843,-0.1550,
4.986525,0.0634,-1.6776,-0.9735,-0.1368,2.5843,-0.1550,
5.001910,-2.6126,0.1488,-0.8547,-0.1368,2.5843,-0.1550,
5.008771,-2.6126,0.1488,-0.8547,0.0782,2.0186,0.1038,
5.051707,-2.6126,0.1488,-0.8547,0.0782,2.0186,0.1038,
5.067962,-2.9235,-1.4443,-0.8982,0.0782,2.0186,0.1038,
5.074742,-2.9235,-1.4443,-0.8982,0.1252,1.3508,0.2227,
5.116615,-2.9235,-1.4443,-0.8982,0.1252,1.3508,0.2227,
5.135409,-1.9908,-1.1278,-0.3915,0.1252,1.3508,0.2227,
5.139917,-1.9908,-1.1278,-0.3915,0.6988,0.9051,0.0275,
5.181789,-1.9908,-1.1278,-0.3915,0.6988,0.9051,0.0275,
5.197828,-1.1386,3.1028,1.2355,0.6988,0.9051,0.0275,
5.205565,-1.1386,3.1028,1.2355,0.3012,0.9872,-0.2630,
5.249269,-1.1386,3.1028,1.2355,0.3012,0.9872,-0.2630,
5.264696,-1.5173,-0.7204,2.1277,0.3012,0.9872,-0.2630,
5.271544,-1.5173,-0.7204,2.1277,0.4137,1.0507,-0.1513,
5.313812,-1.5173,-0.7204,2.1277,0.4137,1.0507,-0.1513,
5.330792,-0.8256,7.4669,-4.1738,0.4137,1.0507,-0.1513,
5.336848,-0.8256,7.4669,-4.1738,0.2282,-0.9488,-0.7868,
5.378203,-0.8256,7.4669,-4.1738,0.2282,-0.9488,-0.7868,
5.393786,-0.0951,-4.9900,-3.6901,0.2282,-0.9488,-0.7868,
5.401767,-0.0951,-4.9900,-3.6901,0.7424,-0.0377,0.4349,
5.444882,-0.0951,-4.9900,-3.6901,0.7424,-0.0377,0.4349,
5.460406,-0.9984,2.0442,-1.6257,0.7424,-0.0377,0.4349,
5.467284,-0.9984,2.0442,-1.6257,0.6348,-0.5198,0.2706,
5.508885,-0.9984,2.0442,-1.6257,0.6348,-0.5198,0.2706,
5.525441,-0.1681,-1.3103,-1.7097,0.6348,-0.5198,0.2706,
5.533256,-0.1681,-1.3103,-1.7097,0.1126,-1.2318,0.3946,
5.574016,-0.1681,-1.3103,-1.7097,0.1126,-1.2318,0.3946,
5.590680,0.6980,-0.8401,-0.8259,0.1126,-1.2318,0.3946,
5.599108,0.6980,-0.8401,-0.8259,0.3462,-0.9366,0.0857,
5.640349,0.6980,-0.8401,-0.8259,0.3462,-0.9366,0.0857,
5.656517,0.4064,-0.4182,-0.2629,0.3462,-0.9366,0.0857,
5.666963,0.4064,-0.4182,-0.2629,0.2637,-0.8738,-0.1184,
5.705109,0.4064,-0.4182,-0.2629,0.2637,-0.8738,-0.1184,
5.721883,0.8573,-0.0585,0.8260,0.2637,-0.8738,-0.1184,
5.728829,0.8573,-0.0585,0.8260,0.1967,-0.6272,-0.4297,
5.770755,0.8573,-0.0585,0.8260,0.1967,-0.6272,-0.4297,
5.787981,2.0694,0.1864,0.7296,0.1967,-0.6272,-0.4297,
5.795136,2.0694,0.1864,0.7296,0.1944,-0.0501,-0.2686,
5.835990,2.0694,0.1864,0.7296,0.1944,-0.0501,-0.2686,
5.852265,1.5956,0.8972,0.2176,0.1944,-0.0501,-0.2686,
5.859511,1.5956,0.8972,0.2176,-0.0594,0.0782,0.2211,
5.901620,1.5956,0.8972,0.2176,-0.0594,0.0782,0.2211,
5.918869,-0.4922,2.1254,-3.6183,-0.0594,0.0782,0.2211,
5.926016,-0.4922,2.1254,-3.6183,-0.5449,0.8175,0.6958,
5.967229,-0.4922,2.1254,-3.6183,-0.5449,0.8175,0.6958,
5.983743,-2.5687,-0.0068,-1.1767,-0.5449,0.8175,0.6958,
5.990955,-2.5687,-0.0068,-1.1767,-0.8412,0.7880,0.2552,
6.033717,-2.5687,-0.0068,-1.1767,-0.8412,0.7880,0.2552,
6.049228,1.2325,-0.1743,-1.1799,-0.8412,0.7880,0.2552,
6.058228,1.2325,-0.1743,-1.1799,-0.4908,1.9765,-0.2329,
6.098066,1.2325,-0.1743,-1.1799,-0.4908,1.9765,-0.2329,
6.115308,-2.2349,-0.7979,-0.7404,-0.4908,1.9765,-0.2329,
6.121842,-2.2349,-0.7979,-0.7404,-0.0889,1.8115,0.1628,
6.164006,-2.2349,-0.7979,-0.7404,-0.0889,1.8115,0.1628,
6.180189,-0.9207,-1.4276,-1.2698,-0.0889,1.8115,0.1628,
6.188462,-0.9207,-1.4276,-1.2698,0.4363,1.8999,-0.0831,
6.229410,-0.9207,-1.4276,-1.2698,0.4363,1.8999,-0.0831,
6.245451,-1.7205,-1.6713,-1.0058,0.4363,1.8999,-0.0831,
6.252690,-1.7205,-1.6713,-1.0058,0.5046,1.6750,0.0383,
6.295441,-1.7205,-1.6713,-1.0058,0.5046,1.6750,0.0383,
6.311152,-1.3450,0.8730,-0.0070,0.5046,1.6750,0.0383,
6.318441,-1.3450,0.8730,-0.0070,0.8117,0.4504,0.0956,
6.360635,-1.3450,0.8730,-0.0070,0.8117,0.4504,0.0956,
6.377262,-0.0965,1.0396,2.3313,0.8117,0.4504,0.0956,
6.384518,-0.0965,1.0396,2.3313,-0.1358,0.7952,-0.0648,
6.425481,-0.0965,1.0396,2.3313,-0.1358,0.7952,-0.0648,
6.441974,0.8754,9.8778,-2.2405,-0.1358,0.7952,-0.0648,
6.450569,0.8754,9.8778,-2.2405,-0.3114,0.0139,-0.8761,
6.491623,0.8754,9.8778,-2.2405,-0.3114,0.0139,-0.8761,
6.508942,0.4583,-5.8765,-4.3553,-0.3114,0.0139,-0.8761,
6.518064,0.4583,-5.8765,-4.3553,0.9774,0.6373,-0.2660,
6.558216,0.4583,-5.8765,-4.3553,0.9774,0.6373,-0.2660,
6.574419,-1.6518,0.9870,-5.3991,0.9774,0.6373,-0.2660,
6.580525,-1.6518,0.9870,-5.3991,0.4678,-0.1556,-0.1901,
6.622566,-1.6518,0.9870,-5.3991,0.4678,-0.1556,-0.1901,
6.639260,0.8728,-0.1299,-3.0603,0.4678,-0.1556,-0.1901,
6.646709,0.8728,-0.1299,-3.0603,-0.0440,-0.6975,0.5840,
6.688604,0.8728,-0.1299,-3.0603,-0.0440,-0.6975,0.5840,
6.704081,0.6002,-1.7513,-1.3468,-0.0440,-0.6975,0.5840,
6.711827,0.6002,-1.7513,-1.3468,0.2691,-0.7648,0.3147,
6.753870,0.6002,-1.7513,-1.3468,0.2691,-0.7648,0.3147,
6.769713,0.9514,-0.8042,-0.7879,0.2691,-0.7648,0.3147,
6.777728,0.9514,-0.8042,-0.7879,0.3296,-0.6156,-0.0211,
6.818917,0.9514,-0.8042,-0.7879,0.3296,-0.6156,-0.0211,
6.834810,1.0845,-0.5014,0.1460,0.3296,-0.6156,-0.0211,
6.842205,1.0845,-0.5014,0.1460,0.2196,-0.3879,-0.3821,
6.882820,1.0845,-0.5014,0.1460,0.2196,-0.3879,-0.3821,
6.900141,1.7065,-0.4912,-0.5088,0.2196,-0.3879,-0.3821,
6.907601,1.7065,-0.4912,-0.5088,0.3068,-0.0826,-0.3975,
6.949520,1.7065,-0.4912,-0.5088,0.3068,-0.0826,-0.3975,
6.965878,1.5671,0.7967,0.6900,0.3068,-0.0826,-0.3975,
6.973916,1.5671,0.7967,0.6900,-0.0516,-0.2262,0.0020,
7.014636,1.5671,0.7967,0.6900,-0.0516,-0.2262,0.0020,
7.031843,1.4742,1.8723,-2.8280,-0.0516,-0.2262,0.0020,
7.039423,1.4742,1.8723,-2.8280,-0.1697,0.6245,0.6174,
7.080786,1.4742,1.8723,-2.8280,-0.1697,0.6245,0.6174,
7.097502,-1.6636,2.1134,-1.9261,-0.1697,0.6245,0.6174,
7.105006,-1.6636,2.1134,-1.9261,-1.1674,0.4071,0.6805,
7.147135,-1.6636,2.1134,-1.9261,-1.1674,0.4071,0.6805,
7.163350,3.2593,0.2295,-1.8727,-1.1674,0.4071,0.6805,
7.169692,3.2593,0.2295,-1.8727,-0.4468,2.3349,-0.4220,
7.212820,3.2593,0.2295,-1.8727,-0.4468,2.3349,-0.4220,
7.228811,0.2314,-1.6105,-2.3016,-0.4468,2.3349,-0.4220,
7.235779,0.2314,-1.6105,-2.3016,-0.1778,3.0928,-0.2897,
7.277107,0.2314,-1.6105,-2.3016,-0.1778,3.0928,-0.2897,
7.293471,-2.0134,-0.6885,-1.5669,-0.1778,3.0928,-0.2897,
7.300986,-2.0134,-0.6885,-1.5669,0.0191,2.0559,0.2775,
7.343066,-2.0134,-0.6885,-1.5669,0.0191,2.0559,0.2775,
7.358146,-0.3892,-2.3678,-2.0202,0.0191,2.0559,0.2775,
7.365351,-0.3892,-2.3678,-2.0202,0.3949,2.1696,0.0889,
7.407971,-0.3892,-2.3678,-2.0202,0.3949,2.1696,0.0889,
7.424185,-0.2478,-1.4892,-0.8968,0.3949,2.1696,0.0889,
7.431455,-0.2478,-1.4892,-0.8968,0.4959,1.3832,0.4343,
7.472732,-0.2478,-1.4892,-0.8968,0.4959,1.3832,0.4343,
7.489309,-0.8552,1.5365,0.3339,0.4959,1.3832,0.4343,
7.497624,-0.8552,1.5365,0.3339,0.4627,0.9055,0.2213,
7.539040,-0.8552,1.5365,0.3339,0.4627,0.9055,0.2213,
7.555781,-0.5962,-0.1124,1.4158,0.4627,0.9055,0.2213,
7.562978,-0.5962,-0.1124,1.4158,0.3972,1.0635,-0.2954,
7.603811,-0.5962,-0.1124,1.4158,0.3972,1.0635,-0.2954,
7.619891,1.5661,7.4664,-3.6130,0.3972,1.0635,-0.2954,
7.628153,1.5661,7.4664,-3.6130,-0.3656,-0.0909,-0.4398,
7.669617,1.5661,7.4664,-3.6130,-0.3656,-0.0909,-0.4398,
7.686170,0.4770,-5.1043,-3.9330,-0.3656,-0.0909,-0.4398,
7.693628,0.4770,-5.1043,-3.9330,1.1423,0.2613,-0.0221,
7.734625,0.4770,-5.1043,-3.9330,1.1423,0.2613,-0.0221,
7.751417,-1.1127,2.1567,-2.7191,1.1423,0.2613,-0.0221,
7.758040,-1.1127,2.1567,-2.7191,0.6472,-0.5434,0.1379,
7.800014,-1.1127,2.1567,-2.7191,0.6472,-0.5434,0.1379,
7.816349,1.6766,-0.6247,-2.1623,0.6472,-0.5434,0.1379,
7.824213,1.6766,-0.6247,-2.1623,0.2025,-1.0988,0.7404,
7.865350,1.6766,-0.6247,-2.1623,0.2025,-1.0988,0.7404,
7.881925,1.7331,-1.7895,-1.5988,0.2025,-1.0988,0.7404,
7.890164,1.7331,-1.7895,-1.5988,0.4730,-0.6608,0.2844,
7.930774,1.7331,-1.7895,-1.5988,0.4730,-0.6608,0.2844,
7.948342,1.1410,-0.9746,-0.8753,0.4730,-0.6608,0.2844,
7.955265,1.1410,-0.9746,-0.8753,0.4177,-0.4531,0.0492,
7.997009,1.1410,-0.9746,-0.8753,0.4177,-0.4531,0.0492,
8.014233,1.2190,-0.9715,-0.0658,0.4177,-0.4531,0.0492,
8.021122,1.2190,-0.9715,-0.0658,0.3589,-0.2379,-0.1118,
8.062496,1.2190,-0.9715,-0.0658,0.3589,-0.2379,-0.1118,
8.079637,2.2408,-0.3587,0.1167,0.3589,-0.2379,-0.1118,
8.086552,2.2408,-0.3587,0.1167,0.3833,0.2062,-0.2947,
8.129231,2.2408,-0.3587,0.1167,0.3833,0.2062,-0.2947,
8.145244,2.1888,0.9996,0.3018,0.3833,0.2062,-0.2947,
8.152238,2.1888,0.9996,0.3018,0.2193,0.2080,-0.0702,
8.193651,2.1888,0.9996,0.3018,0.2193,0.2080,-0.0702,
8.209685,0.9002,0.4672,0.0578,0.2193,0.2080,-0.0702,
8.218147,0.9002,0.4672,0.0578,-0.3972,-0.5744,0.1665,
8.258908,0.9002,0.4672,0.0578,-0.3972,-0.5744,0.1665,
8.275522,0.6496,0.1782,-4.0021,-0.3972,-0.5744,0.1665,
8.285024,0.6496,0.1782,-4.0021,-0.8178,0.4041,0.8592,
8.325204,0.6496,0.1782,-4.0021,-0.8178,0.4041,0.8592,
8.341784,-1.9752,2.3548,-2.9301,-0.8178,0.4041,0.8592,
8.349388,-1.9752,2.3548,-2.9301,-1.2463,-0.1072,0.3085,
8.389322,-1.9752,2.3548,-2.9301,-1.2463,-0.1072,0.3085,
8.406582,1.9183,-0.3652,-0.8540,-1.2463,-0.1072,0.3085,
8.413447,1.9183,-0.3652,-0.8540,-0.8880,1.3689,-0.2329,
8.455565,1.9183,-0.3652,-0.8540,-0.8880,1.3689,-0.2329,
8.472420,-0.7530,-0.8783,-0.6416,-0.8880,1.3689,-0.2329,
8.480037,-0.7530,-0.8783,-0.6416,-0.5139,1.1965,-0.0432,
8.521614,-0.7530,-0.8783,-0.6416,-0.5139,1.1965,-0.0432,
8.539142,-0.1615,-2.6761,-1.2437,-0.5139,1.1965,-0.0432,
8.545329,-0.1615,-2.6761,-1.2437,0.3112,1.1171,-0.0652,
8.586367,-0.1615,-2.6761,-1.2437,0.3112,1.1171,-0.0652,
8.602754,-1.5922,-2.1496,-0.4239,0.3112,1.1171,-0.0652,
8.610466,-1.5922,-2.1496,-0.4239,0.6603,0.7767,-0.0990,
8.652628,-1.5922,-2.1496,-0.4239,0.6603,0.7767,-0.0990,
8.669153,0.0205,-0.3464,0.7185,0.6603,0.7767,-0.0990,
8.675978,0.0205,-0.3464,0.7185,0.6985,0.1707,0.0846,
8.717092,0.0205,-0.3464,0.7185,0.6985,0.1707,0.0846,
8.733954,1.4998,1.5856,2.6008,0.6985,0.1707,0.0846,
8.741387,1.4998,1.5856,2.6008,-0.0287,0.3731,-0.0574,
8.784600,1.4998,1.5856,2.6008,-0.0287,0.3731,-0.0574,
8.798236,0.7805,7.3493,-1.6894,-0.0287,0.3731,-0.0574,
8.807394,0.7805,7.3493,-1.6894,-0.3496,0.2957,-0.5993,
8.848039,0.7805,7.3493,-1.6894,-0.3496,0.2957,-0.5993,
8.865132,0.4789,-2.7698,-4.7515,-0.3496,0.2957,-0.5993,
8.871548,0.4789,-2.7698,-4.7515,0.9856,0.6139,-0.2682,
8.913436,0.4789,-2.7698,-4.7515,0.9856,0.6139,-0.2682,
8.931221,-1.9064,0.2502,-3.8448,0.9856,0.6139,-0.2682,
8.938443,-1.9064,0.2502,-3.8448,0.7036,0.5612,-0.4024,
8.980375,-1.9064,0.2502,-3.8448,0.7036,0.5612,-0.4024,
8.995931,0.8456,-0.5130,-1.8601,0.7036,0.5612,-0.4024,
9.003006,0.8456,-0.5130,-1.8601,0.1297,-0.9917,0.5331,
9.045007,0.8456,-0.5130,-1.8601,0.1297,-0.9917,0.5331,
9.060769,2.0707,-1.4448,-1.4380,0.1297,-0.9917,0.5331,
9.069733,2.0707,-1.4448,-1.4380,0.2599,-0.8108,0.4218,
9.110671,2.0707,-1.4448,-1.4380,0.2599,-0.8108,0.4218,
9.126619,1.5535,-1.1841,-0.4923,0.2599,-0.8108,0.4218,
9.133513,1.5535,-1.1841,-0.4923,0.2786,-0.5655,0.0919,
9.175612,1.5535,-1.1841,-0.4923,0.2786,-0.5655,0.0919,
9.192995,1.7239,-1.2769,0.3944,0.2786,-0.5655,0.0919,
9.200641,1.7239,-1.2769,0.3944,0.2369,-0.4394,-0.2199,
9.241209,1.7239,-1.2769,0.3944,0.2369,-0.4394,-0.2199,
9.257689,2.4632,-0.7745,-0.1381,0.2369,-0.4394,-0.2199,
9.265063,2.4632,-0.7745,-0.1381,0.2334,0.0191,-0.2378,
9.306547,2.4632,-0.7745,-0.1381,0.2334,0.0191,-0.2378,
9.326702,1.8734,0.1181,-0.3388,0.2334,0.0191,-0.2378,
9.330149,1.8734,0.1181,-0.3388,-0.1468,-0.3352,0.1753,
9.372036,1.8734,0.1181,-0.3388,-0.1468,-0.3352,0.1753,
9.388636,2.4046,3.6688,-3.6126,-0.1468,-0.3352,0.1753,
9.401118,2.4046,3.6688,-3.6126,-0.2970,0.3424,0.8825,
9.438140,2.4046,3.6688,-3.6126,-0.2970,0.3424,0.8825,
9.454382,-3.0983,1.0644,-0.7961,-0.2970,0.3424,0.8825,
9.462476,-3.0983,1.0644,-0.7961,-1.0895,-0.6529,0.2456,
9.503051,-3.0983,1.0644,-0.7961,-1.0895,-0.6529,0.2456,
9.519218,3.0830,-0.7684,-0.8793,-1.0895,-0.6529,0.2456,
9.527706,3.0830,-0.7684,-0.8793,-0.5246,1.5324,-0.6639,
9.568398,3.0830,-0.7684,-0.8793,-0.5246,1.5324,-0.6639,
9.586679,-0.0476,-1.4641,-1.4069,-0.5246,1.5324,-0.6639,
9.592602,-0.0476,-1.4641,-1.4069,-0.2498,1.9664,-0.2153,
9.633655,-0.0476,-1.4641,-1.4069,-0.2498,1.9664,-0.2153,
9.651153,-2.2209,-1.3739,-0.8428,-0.2498,1.9664,-0.2153,
9.658424,-2.2209,-1.3739,-0.8428,0.0518,0.8056,0.1871,
9.699418,-2.2209,-1.3739,-0.8428,0.0518,0.8056,0.1871,
9.715761,-0.8466,-1.9639,-0.8558,0.0518,0.8056,0.1871,
9.724907,-0.8466,-1.9639,-0.8558,0.2088,0.5229,0.1721,
9.765542,-0.8466,-1.9639,-0.8558,0.2088,0.5229,0.1721,
9.783145,0.2794,-0.7218,0.1648,0.2088,0.5229,0.1721,
9.789510,0.2794,-0.7218,0.1648,0.3775,0.5693,0.1378,
9.830125,0.2794,-0.7218,0.1648,0.3775,0.5693,0.1378,
9.847061,1.1405,1.0035,1.3857,0.3775,0.5693,0.1378,
9.854085,1.1405,1.0035,1.3857,0.0866,0.3874,0.2844,
9.895600,1.1405,1.0035,1.3857,0.0866,0.3874,0.2844,
9.912109,0.5886,-0.4270,1.7934,0.0866,0.3874,0.2844,
9.919444,0.5886,-0.4270,1.7934,0.0252,1.0814,-0.0655,
9.961404,0.5886,-0.4270,1.7934,0.0252,1.0814,-0.0655,
9.977068,-0.7209,5.1813,-2.0250,0.0252,1.0814,-0.0655,
9.984762,-0.7209,5.1813,-2.0250,0.1466,-0.1897,-0.2056,
10.025969,-0.7209,5.1813,-2.0250,0.1466,-0.1897,-0.2056,
10.043220,1.9919,-2.7929,-4.2490,0.1466,-0.1897,-0.2056,
10.050443,1.9919,-2.7929,-4.2490,0.6661,0.8227,-0.4501,
10.093007,1.9919,-2.7929,-4.2490,0.6661,0.8227,-0.4501,
10.108112,-2.3492,1.0979,-1.8363,0.6661,0.8227,-0.4501,
10.115783,-2.3492,1.0979,-1.8363,0.8506,-0.2665,0.1701,
10.158624,-2.3492,1.0979,-1.8363,0.8506,-0.2665,0.1701,
10.173480,0.8040,-0.3683,-2.4170,0.8506,-0.2665,0.1701,
10.181573,0.8040,-0.3683,-2.4170,0.3488,-1.5246,0.6730,
10.224086,0.8040,-0.3683,-2.4170,0.3488,-1.5246,0.6730,
10.240194,2.0087,-0.9472,-0.8790,0.3488,-1.5246,0.6730,
10.247630,2.0087,-0.9472,-0.8790,0.1545,-1.1547,0.2944,
10.289191,2.0087,-0.9472,-0.8790,0.1545,-1.1547,0.2944,
10.305192,1.8667,-1.1520,-0.0959,0.1545,-1.1547,0.2944,
10.312288,1.8667,-1.1520,-0.0959,0.1303,-0.8682,0.1321,
10.353885,1.8667,-1.1520,-0.0959,0.1303,-0.8682,0.1321,
10.370974,1.5868,-1.0856,0.5892,0.1303,-0.8682,0.1321,
10.377678,1.5868,-1.0856,0.5892,0.1170,-0.4088,-0.3389,
10.420113,1.5868,-1.0856,0.5892,0.1170,-0.4088,-0.3389,
10.436567,2.6031,-0.7742,-0.1365,0.1170,-0.4088,-0.3389,
10.443464,2.6031,-0.7742,-0.1365,0.2491,0.0423,-0.2405,
10.485498,2.6031,-0.7742,-0.1365,0.2491,0.0423,-0.2405,
10.502840,1.0488,1.1957,0.8685,0.2491,0.0423,-0.2405,
10.509349,1.0488,1.1957,0.8685,-0.0779,-0.4714,0.2497,
10.550708,1.0488,1.1957,0.8685,-0.0779,-0.4714,0.2497,
10.566806,1.9334,1.0398,-3.1897,-0.0779,-0.4714,0.2497,
10.574450,1.9334,1.0398,-3.1897,-0.6129,0.1805,0.8821,
10.616037,1.9334,1.0398,-3.1897,-0.6129,0.1805,0.8821,
10.633035,-2.7886,2.6054,-1.5123,-0.6129,0.1805,0.8821,
10.640704,-2.7886,2.6054,-1.5123,-1.1229,-0.8772,0.6269,
10.682023,-2.7886,2.6054,-1.5123,-1.1229,-0.8772,0.6269,
10.699356,4.4812,-0.1492,-0.8924,-1.1229,-0.8772,0.6269,
10.704638,4.4812,-0.1492,-0.8924,-0.7077,1.2825,-0.3798,
10.746725,4.4812,-0.1492,-0.8924,-0.7077,1.2825,-0.3798,
10.764135,-0.8942,-1.5603,-0.8972,-0.7077,1.2825,-0.3798,
10.770676,-0.8942,-1.5603,-0.8972,-0.3552,1.9674,-0.2750,
10.811660,-0.8942,-1.5603,-0.8972,-0.3552,1.9674,-0.2750,
10.828796,-0.4105,-1.5134,-0.8904,-0.3552,1.9674,-0.2750,
10.837776,-0.4105,-1.5134,-0.8904,-0.0308,1.2553,0.0979,
10.877645,-0.4105,-1.5134,-0.8904,-0.0308,1.2553,0.0979,
10.894218,-0.5146,-2.5581,-1.0280,-0.0308,1.2553,0.0979,
10.901336,-0.5146,-2.5581,-1.0280,0.4522,1.4068,0.0081,
10.943035,-0.5146,-2.5581,-1.0280,0.4522,1.4068,0.0081,
10.960570,-0.4912,-0.1099,0.4910,0.4522,1.4068,0.0081,
10.967383,-0.4912,-0.1099,0.4910,0.6660,0.7288,0.0716,
11.009054,-0.4912,-0.1099,0.4910,0.6660,0.7288,0.0716,
11.025509,0.2473,0.7441,2.0206,0.6660,0.7288,0.0716,
11.032952,0.2473,0.7441,2.0206,0.1243,0.9064,-0.2558,
11.074995,0.2473,0.7441,2.0206,0.1243,0.9064,-0.2558,
11.090129,0.9619,4.4359,0.2045,0.1243,0.9064,-0.2558,
11.099328,0.9619,4.4359,0.2045,0.4001,0.8173,-0.4429,
11.140256,0.9619,4.4359,0.2045,0.4001,0.8173,-0.4429,
11.156449,-0.6476,-1.3169,-2.8206,0.4001,0.8173,-0.4429,
11.164113,-0.6476,-1.3169,-2.8206,0.3219,-0.0188,-0.1994,
11.205783,-0.6476,-1.3169,-2.8206,0.3219,-0.0188,-0.1994,
11.221379,0.5686,-4.1624,-3.6021,0.3219,-0.0188,-0.1994,
11.229877,0.5686,-4.1624,-3.6021,1.1064,0.0852,0.1272,
11.270653,0.5686,-4.1624,-3.6021,1.1064,0.0852,0.1272,
11.287416,1.4747,1.9147,-1.7708,1.1064,0.0852,0.1272,
11.295517,1.4747,1.9147,-1.7708,0.3833,-0.4540,0.2926,
11.337686,1.4747,1.9147,-1.7708,0.3833,-0.4540,0.2926,
11.353254,1.4844,-1.8445,-1.3171,0.3833,-0.4540,0.2926,
11.360167,1.4844,-1.8445,-1.3171,0.1469,-0.5284,0.3377,
11.401995,1.4844,-1.8445,-1.3171,0.1469,-0.5284,0.3377,
11.419702,1.5491,-0.7702,-0.6689,0.1469,-0.5284,0.3377,
11.426519,1.5491,-0.7702,-0.6689,0.3845,-0.5588,0.1344,
11.468840,1.5491,-0.7702,-0.6689,0.3845,-0.5588,0.1344,
11.486131,1.4982,-0.9834,0.0351,0.3845,-0.5588,0.1344,
11.491563,1.4982,-0.9834,0.0351,0.1926,-0.5548,-0.1009,
11.532562,1.4982,-0.9834,0.0351,0.1926,-0.5548,-0.1009,
11.550531,2.1108,-1.1641,0.6376,0.1926,-0.5548,-0.1009,
11.559135,2.1108,-1.1641,0.6376,0.1688,-0.3822,-0.3041,
11.597337,2.1108,-1.1641,0.6376,0.1688,-0.3822,-0.3041,
11.614868,2.9265,-0.4047,0.3834,0.1688,-0.3822,-0.3041,
11.621843,2.9265,-0.4047,0.3834,0.2262,-0.0220,-0.2272,
11.664720,2.9265,-0.4047,0.3834,0.2262,-0.0220,-0.2272,
11.680208,1.9111,0.7535,0.9531,0.2262,-0.0220,-0.2272,
11.687261,1.9111,0.7535,0.9531,-0.1555,-0.4493,0.1663,
11.729092,1.9111,0.7535,0.9531,-0.1555,-0.4493,0.1663,
11.745088,2.7099,2.2260,-3.1385,-0.1555,-0.4493,0.1663,
11.753324,2.7099,2.2260,-3.1385,-0.4827,0.3412,0.6483,
11.794932,2.7099,2.2260,-3.1385,-0.4827,0.3412,0.6483,
11.811542,-1.0054,0.0868,-1.5750,-0.4827,0.3412,0.6483,
11.818701,-1.0054,0.0868,-1.5750,-1.4855,0.0368,0.3984,
11.860495,-1.0054,0.0868,-1.5750,-1.4855,0.0368,0.3984,
11.876676,2.6858,0.0504,-0.3969,-1.4855,0.0368,0.3984,
11.883599,2.6858,0.0504,-0.3969,-0.5893,1.5412,-0.2227,
11.925592,2.6858,0.0504,-0.3969,-0.5893,1.5412,-0.2227,
11.942496,0.4533,-0.9112,-0.7903,-0.5893,1.5412,-0.2227,
11.949455,0.4533,-0.9112,-0.7903,-0.4664,1.9193,-0.0617,
11.991023,0.4533,-0.9112,-0.7903,-0.4664,1.9193,-0.0617,
12.007693,0.1369,-1.2753,-1.3949,-0.4664,1.9193,-0.0617,
12.018185,0.1369,-1.2753,-1.3949,0.0185,1.6637,0.0961,
12.057151,0.1369,-1.2753,-1.3949,0.0185,1.6637,0.0961,
12.073429,-0.1327,-2.0224,-1.0349,0.0185,1.6637,0.0961,
12.080272,-0.1327,-2.0224,-1.0349,0.2983,1.8480,0.0008,
12.122192,-0.1327,-2.0224,-1.0349,0.2983,1.8480,0.0008,
12.138911,-0.3486,-1.5754,0.3684,0.2983,1.8480,0.0008,
12.145985,-0.3486,-1.5754,0.3684,0.5712,0.9262,0.2364,
12.189689,-0.3486,-1.5754,0.3684,0.5712,0.9262,0.2364,
12.204602,0.7607,1.5075,1.5833,0.5712,0.9262,0.2364,
12.211621,0.7607,1.5075,1.5833,0.6129,0.6290,0.0722,
12.253884,0.7607,1.5075,1.5833,0.6129,0.6290,0.0722,
12.269955,-0.0700,-0.3088,1.5003,0.6129,0.6290,0.0722,
12.276870,-0.0700,-0.3088,1.5003,0.3462,1.4520,-0.3161,
12.318101,-0.0700,-0.3088,1.5003,0.3462,1.4520,-0.3161,
12.335292,0.7432,3.8120,-2.2322,0.3462,1.4520,-0.3161,
12.342373,0.7432,3.8120,-2.2322,-0.1394,-0.0217,-0.3639,
12.383699,0.7432,3.8120,-2.2322,-0.1394,-0.0217,-0.3639,
12.400709,1.1213,-5.2153,-3.1393,-0.1394,-0.0217,-0.3639,
12.407074,1.1213,-5.2153,-3.1393,1.4710,0.5122,0.3285,
12.449728,1.1213,-5.2153,-3.1393,1.4710,0.5122,0.3285,
12.466803,-0.2270,2.1538,-1.3319,1.4710,0.5122,0.3285,
12.473690,-0.2270,2.1538,-1.3319,0.7156,0.1115,0.1089,
12.514166,-0.2270,2.1538,-1.3319,0.7156,0.1115,0.1089,
12.531561,1.6577,-1.0652,-0.8310,0.7156,0.1115,0.1089,
12.538679,1.6577,-1.0652,-0.8310,0.2175,-0.4627,0.4693,
12.579991,1.6577,-1.0652,-0.8310,0.2175,-0.4627,0.4693,
12.596612,2.2070,-0.9112,-0.7036,0.2175,-0.4627,0.4693,
12.603894,2.2070,-0.9112,-0.7036,0.3923,-0.2990,0.2705,
12.646052,2.2070,-0.9112,-0.7036,0.3923,-0.2990,0.2705,
12.661959,1.2529,-0.7954,0.2155,0.3923,-0.2990,0.2705,
12.670021,1.2529,-0.7954,0.2155,0.3303,-0.3467,0.1046,
12.712244,1.2529,-0.7954,0.2155,0.3303,-0.3467,0.1046,
12.727374,1.1077,-1.1671,0.7508,0.3303,-0.3467,0.1046,
12.734476,1.1077,-1.1671,0.7508,0.1842,-0.4482,-0.2152,
12.777167,1.1077,-1.1671,0.7508,0.1842,-0.4482,-0.2152,
12.792856,2.4200,-0.5613,0.8686,0.1842,-0.4482,-0.2152,
12.800398,2.4200,-0.5613,0.8686,0.1604,-0.3027,-0.2683,
12.842890,2.4200,-0.5613,0.8686,0.1604,-0.3027,-0.2683,
12.858158,3.0583,0.3819,1.4606,0.1604,-0.3027,-0.2683,
12.866075,3.0583,0.3819,1.4606,-0.0047,-0.3954,-0.0086,
12.907105,3.0583,0.3819,1.4606,-0.0047,-0.3954,-0.0086,
12.924379,3.0558,0.3831,-0.0798,-0.0047,-0.3954,-0.0086,
12.931498,3.0558,0.3831,-0.0798,-0.2779,-0.2773,0.2207,
12.973356,3.0558,0.3831,-0.0798,-0.2779,-0.2773,0.2207,
12.990631,0.3142,1.5621,-2.7402,-0.2779,-0.2773,0.2207,
12.996701,0.3142,1.5621,-2.7402,-0.8752,0.1300,0.8800,
13.039637,0.3142,1.5621,-2.7402,-0.8752,0.1300,0.8800,
13.056148,0.0698,0.6813,-0.8635,-0.8752,0.1300,0.8800,
13.062594,0.0698,0.6813,-0.8635,-0.9736,0.4096,0.1290,
13.105376,0.0698,0.6813,-0.8635,-0.9736,0.4096,0.1290,
13.121036,2.4309,-1.0979,-0.5133,-0.9736,0.4096,0.1290,
13.128075,2.4309,-1.0979,-0.5133,-0.6602,1.6968,-0.1975,
13.169515,2.4309,-1.0979,-0.5133,-0.6602,1.6968,-0.1975,
13.186993,-0.7280,-0.9104,-0.2481,-0.6602,1.6968,-0.1975,
13.192966,-0.7280,-0.9104,-0.2481,-0.1576,1.6839,0.0899,
13.235624,-0.7280,-0.9104,-0.2481,-0.1576,1.6839,0.0899,
13.252618,-0.4710,-1.3972,-0.5614,-0.1576,1.6839,0.0899,
13.259159,-0.4710,-1.3972,-0.5614,0.0698,1.5295,0.0938,
13.300905,-0.4710,-1.3972,-0.5614,0.0698,1.5295,0.0938,
13.316680,-0.7630,-1.4910,-0.0901,0.0698,1.5295,0.0938,
13.324874,-0.7630,-1.4910,-0.0901,0.2784,1.1440,0.0087,
13.365853,-0.7630,-1.4910,-0.0901,0.2784,1.1440,0.0087,
13.382055,0.1498,-0.5470,1.4021,0.2784,1.1440,0.0087,
13.389539,0.1498,-0.5470,1.4021,0.4163,0.3002,0.0716,
13.431423,0.1498,-0.5470,1.4021,0.4163,0.3002,0.0716,
13.448769,1.6790,-0.3169,2.7537,0.4163,0.3002,0.0716,
13.456121,1.6790,-0.3169,2.7537,0.3448,0.5820,-0.1119,
13.497123,1.6790,-0.3169,2.7537,0.3448,0.5820,-0.1119,
13.514616,1.4703,5.4911,1.1200,0.3448,0.5820,-0.1119,
13.520856,1.4703,5.4911,1.1200,0.2705,0.5414,-0.5747,
13.563098,1.4703,5.4911,1.1200,0.2705,0.5414,-0.5747,
13.578870,-0.6925,-1.6069,-1.8940,0.2705,0.5414,-0.5747,
13.585675,-0.6925,-1.6069,-1.8940,0.5032,-0.0692,-0.1009,
13.628840,-0.6925,-1.6069,-1.8940,0.5032,-0.0692,-0.1009,
13.644669,0.3467,-2.4691,-2.8500,0.5032,-0.0692,-0.1009,
13.651638,0.3467,-2.4691,-2.8500,0.9484,0.4525,-0.2107,
13.692865,0.3467,-2.4691,-2.8500,0.9484,0.4525,-0.2107,
13.710186,0.4975,0.8675,-0.6346,0.9484,0.4525,-0.2107,
13.717040,0.4975,0.8675,-0.6346,0.3566,-0.6594,0.2590,
13.758163,0.4975,0.8675,-0.6346,0.3566,-0.6594,0.2590,
13.774807,1.7723,-1.0244,-0.5914,0.3566,-0.6594,0.2590,
13.783420,1.7723,-1.0244,-0.5914,0.3021,-0.5731,0.4421,
13.824956,1.7723,-1.0244,-0.5914,0.3021,-0.5731,0.4421,
13.841249,1.3319,-0.7194,0.3480,0.3021,-0.5731,0.4421,
13.848738,1.3319,-0.7194,0.3480,0.3334,-0.5292,0.2428,
13.889398,1.3319,-0.7194,0.3480,0.3334,-0.5292,0.2428,
13.905883,1.4442,-1.0479,1.0180,0.3334,-0.5292,0.2428,
13.913079,1.4442,-1.0479,1.0180,0.2830,-0.5269,-0.0570,
13.956423,1.4442,-1.0479,1.0180,0.2830,-0.5269,-0.0570,
13.971870,2.1201,-0.8736,0.7991,0.2830,-0.5269,-0.0570,
13.978957,2.1201,-0.8736,0.7991,0.2193,-0.3151,-0.2944,
14.020799,2.1201,-0.8736,0.7991,0.2193,-0.3151,-0.2944,
14.036892,2.0106,0.3878,1.3124,0.2193,-0.3151,-0.2944,
14.044686,2.0106,0.3878,1.3124,-0.0583,-0.5188,-0.0924,
14.087177,2.0106,0.3878,1.3124,-0.0583,-0.5188,-0.0924,
14.104030,3.3505,-0.0566,1.0288,-0.0583,-0.5188,-0.0924,
14.109817,3.3505,-0.0566,1.0288,-0.4087,-0.6472,0.2966,
14.152642,3.3505,-0.0566,1.0288,-0.4087,-0.6472,0.2966,
14.168070,1.2136,1.9535,-2.8617,-0.4087,-0.6472,0.2966,
14.175571,1.2136,1.9535,-2.8617,-0.6877,0.5623,1.1553,
14.217765,1.2136,1.9535,-2.8617,-0.6877,0.5623,1.1553,
14.233680,-1.7940,1.9857,-0.4149,-0.6877,0.5623,1.1553,
14.240764,-1.7940,1.9857,-0.4149,-1.0621,-0.0733,0.2459,
14.282089,-1.7940,1.9857,-0.4149,-1.0621,-0.0733,0.2459,
14.299041,2.4609,-0.9492,-0.1552,-1.0621,-0.0733,0.2459,
14.307068,2.4609,-0.9492,-0.1552,-0.7537,1.5044,-0.3305,
14.348793,2.4609,-0.9492,-0.1552,-0.7537,1.5044,-0.3305,
14.365122,-0.5613,-1.9087,-0.3197,-0.7537,1.5044,-0.3305,
14.371609,-0.5613,-1.9087,-0.3197,-0.0756,2.0834,-0.0189,
14.412816,-0.5613,-1.9087,-0.3197,-0.0756,2.0834,-0.0189,
14.429911,-0.6592,-1.0688,0.0431,-0.0756,2.0834,-0.0189,
14.437181,-0.6592,-1.0688,0.0431,0.2288,1.2666,0.2265,
14.478928,-0.6592,-1.0688,0.0431,0.2288,1.2666,0.2265,
14.495517,-0.5882,-1.8493,-0.0129,0.2288,1.2666,0.2265,
14.502651,-0.5882,-1.8493,-0.0129,0.4806,1.2816,0.0443,
14.544132,-0.5882,-1.8493,-0.0129,0.4806,1.2816,0.0443,
14.561100,-0.0963,-0.3227,0.9029,0.4806,1.2816,0.0443,
14.568446,-0.0963,-0.3227,0.9029,0.4033,0.5328,0.1952,
14.609714,-0.0963,-0.3227,0.9029,0.4033,0.5328,0.1952,
14.626758,-0.3094,0.9525,2.2226,0.4033,0.5328,0.1952,
14.633378,-0.3094,0.9525,2.2226,0.2375,0.1599,-0.0134,
14.675502,-0.3094,0.9525,2.2226,0.2375,0.1599,-0.0134,
14.691915,0.0734,1.1605,0.3071,0.2375,0.1599,-0.0134,
14.699265,0.0734,1.1605,0.3071,-0.0254,1.0524,-0.5315,
14.740402,0.0734,1.1605,0.3071,-0.0254,1.0524,-0.5315,
14.757103,-1.0632,1.6105,-0.7960,-0.0254,1.0524,-0.5315,
14.765306,-1.0632,1.6105,-0.7960,-0.5686,-0.8628,-0.1912,
14.806582,-1.0632,1.6105,-0.7960,-0.5686,-0.8628,-0.1912,
14.822556,1.2321,-5.1399,-2.7370,-0.5686,-0.8628,-0.1912,
14.831604,1.2321,-5.1399,-2.7370,1.3143,0.4910,-0.1770,
14.871331,1.2321,-5.1399,-2.7370,1.3143,0.4910,-0.1770,
14.888691,-1.0843,1.8455,-0.5236,1.3143,0.4910,-0.1770,
14.895773,-1.0843,1.8455,-0.5236,0.5095,-0.4404,-0.2107,
14.937476,-1.0843,1.8455,-0.5236,0.5095,-0.4404,-0.2107,
14.954181,0.8844,-0.2946,-0.0791,0.5095,-0.4404,-0.2107,
14.960887,0.8844,-0.2946,-0.0791,0.2598,-1.1603,0.3406,
15.003913,0.8844,-0.2946,-0.0791,0.2598,-1.1603,0.3406,
15.018944,1.9053,-1.0257,0.2717,0.2598,-1.1603,0.3406,
15.026500,1.9053,-1.0257,0.2717,0.3209,-0.7292,0.3140,
15.069239,1.9053,-1.0257,0.2717,0.3209,-0.7292,0.3140,
15.085997,1.2144,-0.6449,1.1368,0.3209,-0.7292,0.3140,
15.092144,1.2144,-0.6449,1.1368,0.2277,-0.6689,0.1506,
15.133578,1.2144,-0.6449,1.1368,0.2277,-0.6689,0.1506,
15.150685,1.5498,-0.8172,1.3821,0.2277,-0.6689,0.1506,
15.157546,1.5498,-0.8172,1.3821,0.0983,-0.4667,-0.1953,
15.198811,1.5498,-0.8172,1.3821,0.0983,-0.4667,-0.1953,
15.215551,2.4089,-1.1393,1.6023,0.0983,-0.4667,-0.1953,
15.223296,2.4089,-1.1393,1.6023,0.2007,-0.1599,-0.1723,
15.264973,2.4089,-1.1393,1.6023,0.2007,-0.1599,-0.1723,
15.282172,1.7997,-0.2933,1.6111,0.2007,-0.1599,-0.1723,
15.289222,1.7997,-0.2933,1.6111,0.2732,-0.2169,0.0713,
15.330650,1.7997,-0.2933,1.6111,0.2732,-0.2169,0.0713,
15.347426,4.5033,4.2949,-1.7699,0.2732,-0.2169,0.0713,
15.354669,4.5033,4.2949,-1.7699,0.2657,0.6223,1.1956,
15.396810,4.5033,4.2949,-1.7699,0.2657,0.6223,1.1956,
15.412847,-2.4373,-0.0760,-2.1558,0.2657,0.6223,1.1956,
15.419890,-2.4373,-0.0760,-2.1558,-1.7324,-0.5983,0.0535,
15.461274,-2.4373,-0.0760,-2.1558,-1.7324,-0.5983,0.0535,
15.477986,1.9161,-0.3339,-0.2481,-1.7324,-0.5983,0.0535,
15.485122,1.9161,-0.3339,-0.2481,-0.4275,1.4481,0.0507,
15.526007,1.9161,-0.3339,-0.2481,-0.4275,1.4481,0.0507,
15.543595,1.0379,-0.7881,0.4753,-0.4275,1.4481,0.0507,
15.550722,1.0379,-0.7881,0.4753,-0.5996,1.1703,-0.1382,
15.592664,1.0379,-0.7881,0.4753,-0.5996,1.1703,-0.1382,
15.608140,0.5499,-1.9148,-0.2399,-0.5996,1.1703,-0.1382,
15.616342,0.5499,-1.9148,-0.2399,0.2753,1.9549,-0.2401,
15.658780,0.5499,-1.9148,-0.2399,0.2753,1.9549,-0.2401,
15.674194,-0.1512,-0.7456,0.4018,0.2753,1.9549,-0.2401,
15.681342,-0.1512,-0.7456,0.4018,0.2813,1.5806,0.0386,
15.722602,-0.1512,-0.7456,0.4018,0.2813,1.5806,0.0386,
15.740210,0.6356,-2.6817,-0.0836,0.2813,1.5806,0.0386,
15.747009,0.6356,-2.6817,-0.0836,0.6425,1.7837,0.0496,
15.788490,0.6356,-2.6817,-0.0836,0.6425,1.7837,0.0496,
15.804621,-0.4217,1.4540,0.5597,0.6425,1.7837,0.0496,
15.812334,-0.4217,1.4540,0.5597,0.5669,1.4867,0.0173,
15.854056,-0.4217,1.4540,0.5597,0.5669,1.4867,0.0173,
15.869612,-1.3251,-0.0112,2.5173,0.5669,1.4867,0.0173,
15.877793,-1.3251,-0.0112,2.5173,-0.4551,1.1437,-0.0087,
15.918539,-1.3251,-0.0112,2.5173,-0.4551,1.1437,-0.0087,
15.937573,1.2536,4.4318,0.6205,-0.4551,1.1437,-0.0087,
15.943096,1.2536,4.4318,0.6205,0.3928,0.7921,-0.2757,
15.983877,1.2536,4.4318,0.6205,0.3928,0.7921,-0.2757,
16.000886,2.3758,-1.2330,-0.9123,0.3928,0.7921,-0.2757,
16.008073,2.3758,-1.2330,-0.9123,1.0785,0.5209,0.5994,
16.049736,2.3758,-1.2330,-0.9123,1.0785,0.5209,0.5994,
16.066366,-0.3355,-1.6709,-1.8896,1.0785,0.5209,0.5994,
16.073903,-0.3355,-1.6709,-1.8896,1.0689,1.1655,-0.2964,
16.114869,-0.3355,-1.6709,-1.8896,1.0689,1.1655,-0.2964,
16.132449,-0.0513,-0.7229,-0.1294,1.0689,1.1655,-0.2964,
16.139628,-0.0513,-0.7229,-0.1294,0.7463,0.2550,0.2338,
16.180322,-0.0513,-0.7229,-0.1294,0.7463,0.2550,0.2338,
16.197597,1.4959,-0.8622,-0.2086,0.7463,0.2550,0.2338,
16.204896,1.4959,-0.8622,-0.2086,0.4589,-0.1194,0.3134,
16.246233,1.4959,-0.8622,-0.2086,0.4589,-0.1194,0.3134,
16.263875,1.2793,-0.3554,0.2724,0.4589,-0.1194,0.3134,
16.270633,1.2793,-0.3554,0.2724,0.2485,0.0990,0.2547,
16.312040,1.2793,-0.3554,0.2724,0.2485,0.0990,0.2547,
16.328776,0.3685,-0.7560,0.7565,0.2485,0.0990,0.2547,
16.335939,0.3685,-0.7560,0.7565,0.2191,-0.1808,0.1032,
16.377967,0.3685,-0.7560,0.7565,0.2191,-0.1808,0.1032,
16.394020,1.4327,-0.3960,1.3417,0.2191,-0.1808,0.1032,
16.401662,1.4327,-0.3960,1.3417,0.2266,-0.3847,-0.2016,
16.442582,1.4327,-0.3960,1.3417,0.2266,-0.3847,-0.2016,
16.459450,2.3059,0.0064,1.8589,0.2266,-0.3847,-0.2016,
16.467205,2.3059,0.0064,1.8589,0.1910,-0.3697,-0.2662,
16.509641,2.3059,0.0064,1.8589,0.1910,-0.3697,-0.2662,
16.524979,1.7021,0.0646,2.2402,0.1910,-0.3697,-0.2662,
16.532393,1.7021,0.0646,2.2402,-0.1411,-0.6964,0.0457,
16.573706,1.7021,0.0646,2.2402,-0.1411,-0.6964,0.0457,
16.590915,1.3215,2.5193,-1.3355,-0.1411,-0.6964,0.0457,
16.598656,1.3215,2.5193,-1.3355,-0.3763,0.0765,1.1072,
16.640196,1.3215,2.5193,-1.3355,-0.3763,0.0765,1.1072,
16.657561,-3.5537,0.7575,-0.9177,-0.3763,0.0765,1.1072,
16.664705,-3.5537,0.7575,-0.9177,-1.5594,-0.7414,0.3855,
16.705361,-3.5537,0.7575,-0.9177,-1.5594,-0.7414,0.3855,
16.722759,2.3495,0.0290,0.2521,-1.5594,-0.7414,0.3855,
16.730018,2.3495,0.0290,0.2521,-0.6742,0.9100,-0.2222,
16.771788,2.3495,0.0290,0.2521,-0.6742,0.9100,-0.2222,
16.788375,-0.3049,-0.6167,0.4082,-0.6742,0.9100,-0.2222,
16.794853,-0.3049,-0.6167,0.4082,-0.3662,1.3056,-0.2419,
16.836471,-0.3049,-0.6167,0.4082,-0.3662,1.3056,-0.2419,
16.852456,-1.0393,-1.0794,0.6989,-0.3662,1.3056,-0.2419,
16.860409,-1.0393,-1.0794,0.6989,-0.1248,0.5747,0.1208,
16.903857,-1.0393,-1.0794,0.6989,-0.1248,0.5747,0.1208,
16.918457,-0.9824,-1.9646,1.0019,-0.1248,0.5747,0.1208,
16.925156,-0.9824,-1.9646,1.0019,0.2613,0.6616,-0.0405,
16.966696,-0.9824,-1.9646,1.0019,0.2613,0.6616,-0.0405,
16.982986,-0.1593,-1.0781,1.5846,0.2613,0.6616,-0.0405,
16.990362,-0.1593,-1.0781,1.5846,0.5930,0.4412,-0.1280,
17.032624,-0.1593,-1.0781,1.5846,0.5930,0.4412,-0.1280,
17.049098,0.1625,2.3044,3.2955,0.5930,0.4412,-0.1280,
17.056724,0.1625,2.3044,3.2955,-0.0316,0.3389,-0.1031,
17.097554,0.1625,2.3044,3.2955,-0.0316,0.3389,-0.1031,
17.114816,2.1214,1.3163,0.9439,-0.0316,0.3389,-0.1031,
17.122671,2.1214,1.3163,0.9439,-0.0458,1.2610,-0.5261,
17.164201,2.1214,1.3163,0.9439,-0.0458,1.2610,-0.5261,
17.181240,-2.4420,1.2521,0.8794,-0.0458,1.2610,-0.5261,
17.188529,-2.4420,1.2521,0.8794,0.1872,0.1958,-0.1326,
17.229871,-2.4420,1.2521,0.8794,0.1872,0.1958,-0.1326,
17.247057,0.0509,-4.9655,-2.4339,0.1872,0.1958,-0.1326,
17.254142,0.0509,-4.9655,-2.4339,0.9354,0.4667,-0.1513,
17.294719,0.0509,-4.9655,-2.4339,0.9354,0.4667,-0.1513,
17.311900,-0.7490,1.7820,0.4118,0.9354,0.4667,-0.1513,
17.320518,-0.7490,1.7820,0.4118,0.4878,-0.1416,-0.0140,
17.361453,-0.7490,1.7820,0.4118,0.4878,-0.1416,-0.0140,
17.376956,-1.2436,-0.1365,-0.5601,0.4878,-0.1416,-0.0140,
17.384694,-1.2436,-0.1365,-0.5601,0.2909,-0.9560,0.6897,
17.426494,-1.2436,-0.1365,-0.5601,0.2909,-0.9560,0.6897,
17.442127,-0.1469,-0.5510,-0.0264,0.2909,-0.9560,0.6897,
17.450167,-0.1469,-0.5510,-0.0264,-0.1538,-1.3877,0.6124,
17.490699,-0.1469,-0.5510,-0.0264,-0.1538,-1.3877,0.6124,
17.508036,1.6369,-1.3082,0.8195,-0.1538,-1.3877,0.6124,
17.515304,1.6369,-1.3082,0.8195,-0.0342,-1.0290,0.1648,
17.557343,1.6369,-1.3082,0.8195,-0.0342,-1.0290,0.1648,
17.576094,2.0629,-1.1158,1.1483,-0.0342,-1.0290,0.1648,
17.581089,2.0629,-1.1158,1.1483,0.1746,-0.5418,-0.2627,
17.622692,2.0629,-1.1158,1.1483,0.1746,-0.5418,-0.2627,
17.638527,1.5414,-0.1737,0.4986,0.1746,-0.5418,-0.2627,
17.645574,1.5414,-0.1737,0.4986,0.3001,-0.3270,-0.3966,
17.686775,1.5414,-0.1737,0.4986,0.3001,-0.3270,-0.3966,
17.705361,1.3567,1.0156,1.0924,0.3001,-0.3270,-0.3966,
17.710162,1.3567,1.0156,1.0924,-0.1098,-0.6781,-0.0035,
17.751854,1.3567,1.0156,1.0924,-0.1098,-0.6781,-0.0035,
17.770566,2.1675,1.9830,-1.0864,-0.1098,-0.6781,-0.0035,
17.776562,2.1675,1.9830,-1.0864,-0.4687,-0.5169,0.8935,
17.817547,2.1675,1.9830,-1.0864,-0.4687,-0.5169,0.8935,
17.834359,-1.4925,1.6111,-2.0907,-0.4687,-0.5169,0.8935,
17.841290,-1.4925,1.6111,-2.0907,-1.5583,-0.9423,0.6939,
17.883442,-1.4925,1.6111,-2.0907,-1.5583,-0.9423,0.6939,
17.899477,-0.4618,0.3460,-0.1172,-1.5583,-0.9423,0.6939,
17.907021,-0.4618,0.3460,-0.1172,-0.9418,-0.3952,-0.2187,
17.948918,-0.4618,0.3460,-0.1172,-0.9418,-0.3952,-0.2187,
17.965657,0.8171,-1.1326,0.8985,-0.9418,-0.3952,-0.2187,
17.972896,0.8171,-1.1326,0.8985,-0.7540,0.9206,-0.3534,
18.014170,0.8171,-1.1326,0.8985,-0.7540,0.9206,-0.3534,
18.031867,-1.8087,-1.6752,1.2798,-0.7540,0.9206,-0.3534,
18.038420,-1.8087,-1.6752,1.2798,-0.2028,0.6845,0.1742,
18.081710,-1.8087,-1.6752,1.2798,-0.2028,0.6845,0.1742,
18.096623,-1.1098,-1.1149,1.3015,-0.2028,0.6845,0.1742,
18.104043,-1.1098,-1.1149,1.3015,0.0757,0.2967,0.2401,
18.145149,-1.1098,-1.1149,1.3015,0.0757,0.2967,0.2401,
18.162635,-0.1479,-1.4988,1.2069,0.0757,0.2967,0.2401,
18.169551,-0.1479,-1.4988,1.2069,0.4256,0.4307,0.0620,
18.211213,-0.1479,-1.4988,1.2069,0.4256,0.4307,0.0620,
18.228144,-0.3847,1.0489,2.3268,0.4256,0.4307,0.0620,
18.235852,-0.3847,1.0489,2.3268,0.2523,0.4435,-0.0970,
18.277326,-0.3847,1.0489,2.3268,0.2523,0.4435,-0.0970,
18.294458,0.0848,0.1832,3.4167,0.2523,0.4435,-0.0970,
18.300442,0.0848,0.1832,3.4167,0.1834,0.4664,-0.0162,
18.342197,0.0848,0.1832,3.4167,0.1834,0.4664,-0.0162,
18.359808,0.8015,1.1644,2.0722,0.1834,0.4664,-0.0162,
18.367598,0.8015,1.1644,2.0722,0.1874,1.0363,-0.0718,
18.407671,0.8015,1.1644,2.0722,0.1874,1.0363,-0.0718,
18.423929,-4.0404,2.2277,-0.8400,0.1874,1.0363,-0.0718,
18.432017,-4.0404,2.2277,-0.8400,0.4027,-0.5730,-0.4885,
18.473589,-4.0404,2.2277,-0.8400,0.4027,-0.5730,-0.4885,
18.490912,0.4514,-4.4434,-2.7644,0.4027,-0.5730,-0.4885,
18.498226,0.4514,-4.4434,-2.7644,0.6800,0.2443,-0.2882,
18.538041,0.4514,-4.4434,-2.7644,0.6800,0.2443,-0.2882,
18.556846,-1.8617,1.3214,-0.3058,0.6800,0.2443,-0.2882,
18.562019,-1.8617,1.3214,-0.3058,0.1675,-1.0366,0.3204,
18.604445,-1.8617,1.3214,-0.3058,0.1675,-1.0366,0.3204,
18.619858,-0.0734,-0.9886,-1.1776,0.1675,-1.0366,0.3204,
18.627500,-0.0734,-0.9886,-1.1776,0.1103,-1.5284,0.5487,
18.670028,-0.0734,-0.9886,-1.1776,0.1103,-1.5284,0.5487,
18.687127,0.7941,-0.5116,0.2747,0.1103,-1.5284,0.5487,
18.695099,0.7941,-0.5116,0.2747,-0.1442,-1.5189,0.3589,
18.734473,0.7941,-0.5116,0.2747,-0.1442,-1.5189,0.3589,
18.752134,1.0455,-1.0319,1.0132,-0.1442,-1.5189,0.3589,
18.759339,1.0455,-1.0319,1.0132,-0.0023,-1.2773,0.0878,
18.800860,1.0455,-1.0319,1.0132,-0.0023,-1.2773,0.0878,
18.816676,1.1997,-0.9878,0.9927,-0.0023,-1.2773,0.0878,
18.825317,1.1997,-0.9878,0.9927,0.1223,-0.9777,-0.2497,
18.865702,1.1997,-0.9878,0.9927,0.1223,-0.9777,-0.2497,
18.883374,2.3706,0.2393,0.8013,0.1223,-0.9777,-0.2497,
18.890222,2.3706,0.2393,0.8013,0.1668,-0.7187,-0.2492,
18.931908,2.3706,0.2393,0.8013,0.1668,-0.7187,-0.2492,
18.948688,2.3658,0.9261,1.8362,0.1668,-0.7187,-0.2492,
18.955959,2.3658,0.9261,1.8362,-0.1367,-0.6770,0.0783,
18.997268,2.3658,0.9261,1.8362,-0.1367,-0.6770,0.0783,
19.014170,3.5304,1.8528,-0.6078,-0.1367,-0.6770,0.0783,
19.020459,3.5304,1.8528,-0.6078,-0.2679,0.2266,0.9081,
19.062556,3.5304,1.8528,-0.6078,-0.2679,0.2266,0.9081,
19.079014,-2.7465,0.3319,-1.0204,-0.2679,0.2266,0.9081,
19.086524,-2.7465,0.3319,-1.0204,-1.5023,-0.6035,0.4210,
19.126853,-2.7465,0.3319,-1.0204,-1.5023,-0.6035,0.4210,
19.143994,1.3188,1.2592,0.3020,-1.5023,-0.6035,0.4210,
19.151541,1.3188,1.2592,0.3020,-0.5438,0.5449,-0.2053,
19.193868,1.3188,1.2592,0.3020,-0.5438,0.5449,-0.2053,
19.211405,0.6296,-1.4151,0.2868,-0.5438,0.5449,-0.2053,
19.217312,0.6296,-1.4151,0.2868,-0.7054,1.4119,-0.3804,
19.259849,0.6296,-1.4151,0.2868,-0.7054,1.4119,-0.3804,
19.276719,-1.5858,-1.2584,0.7392,-0.7054,1.4119,-0.3804,
19.282754,-1.5858,-1.2584,0.7392,-0.0470,1.0855,0.0476,
19.324693,-1.5858,-1.2584,0.7392,-0.0470,1.0855,0.0476,
19.342903,-0.5160,-1.4446,1.0679,-0.0470,1.0855,0.0476,
19.350170,-0.5160,-1.4446,1.0679,0.1976,0.8914,0.0142,
19.391490,-0.5160,-1.4446,1.0679,0.1976,0.8914,0.0142,
19.408147,-0.6835,-1.6789,1.0448,0.1976,0.8914,0.0142,
19.414754,-0.6835,-1.6789,1.0448,0.4899,0.7133,-0.0396,
19.455646,-0.6835,-1.6789,1.0448,0.4899,0.7133,-0.0396,
19.472173,-0.7218,1.5022,2.0948,0.4899,0.7133,-0.0396,
19.480203,-0.7218,1.5022,2.0948,0.3905,0.5724,-0.2387,
19.521078,-0.7218,1.5022,2.0948,0.3905,0.5724,-0.2387,
19.538060,0.2916,-0.6839,1.4608,0.3905,0.5724,-0.2387,
19.546213,0.2916,-0.6839,1.4608,0.1956,1.4516,-0.2173,
19.585939,0.2916,-0.6839,1.4608,0.1956,1.4516,-0.2173,
19.602457,-0.9827,3.1808,-0.8460,0.1956,1.4516,-0.2173,
19.609848,-0.9827,3.1808,-0.8460,-0.1746,-0.0113,-0.2897,
19.650878,-0.9827,3.1808,-0.8460,-0.1746,-0.0113,-0.2897,
19.669065,-0.1300,-5.1690,-2.8867,-0.1746,-0.0113,-0.2897,
19.675219,-0.1300,-5.1690,-2.8867,1.5488,0.9264,-0.3089,
19.717155,-0.1300,-5.1690,-2.8867,1.5488,0.9264,-0.3089,
19.734696,-1.7226,2.9398,-0.4290,1.5488,0.9264,-0.3089,
19.740807,-1.7226,2.9398,-0.4290,0.4982,-0.3940,-0.0202,
19.783204,-1.7226,2.9398,-0.4290,0.4982,-0.3940,-0.0202,
19.800867,2.1147,-0.9882,-0.4861,0.4982,-0.3940,-0.0202,
19.806880,2.1147,-0.9882,-0.4861,0.0451,-0.5938,0.5021,
19.847675,2.1147,-0.9882,-0.4861,0.0451,-0.5938,0.5021,
19.864574,1.2547,-1.3995,-0.0716,0.0451,-0.5938,0.5021,
19.872315,1.2547,-1.3995,-0.0716,0.4226,-0.2637,0.2001,
19.913584,1.2547,-1.3995,-0.0716,0.4226,-0.2637,0.2001,
19.929509,0.3199,-0.1706,0.5903,0.4226,-0.2637,0.2001,
19.938516,0.3199,-0.1706,0.5903,0.2848,-0.4803,0.0428,
19.978965,0.3199,-0.1706,0.5903,0.2848,-0.4803,0.0428,
19.995425,0.9709,-0.8861,1.1692,0.2848,-0.4803,0.0428,
20.003500,0.9709,-0.8861,1.1692,0.1107,-0.5747,-0.1796,
20.045634,0.9709,-0.8861,1.1692,0.1107,-0.5747,-0.1796,
20.061024,3.0644,-0.5734,0.9390,0.1107,-0.5747,-0.1796,
20.068722,3.0644,-0.5734,0.9390,0.2372,-0.1909,-0.2037,
20.112256,3.0644,-0.5734,0.9390,0.2372,-0.1909,-0.2037,
20.127579,2.5517,0.5751,1.5356,0.2372,-0.1909,-0.2037,
20.137057,2.5517,0.5751,1.5356,-0.0689,-0.2553,-0.0273,
20.176201,2.5517,0.5751,1.5356,-0.0689,-0.2553,-0.0273,
20.193334,2.8802,2.6025,-1.1388,-0.0689,-0.2553,-0.0273,
20.200458,2.8802,2.6025,-1.1388,-0.1712,0.7982,0.9332,
20.241361,2.8802,2.6025,-1.1388,-0.1712,0.7982,0.9332,
20.257306,-2.1827,-1.1724,-0.7736,-0.1712,0.7982,0.9332,
20.265679,-2.1827,-1.1724,-0.7736,-1.0986,0.2983,0.3091,
20.306810,-2.1827,-1.1724,-0.7736,-1.0986,0.2983,0.3091,
20.324149,2.3574,0.9230,0.3154,-1.0986,0.2983,0.3091,
20.331795,2.3574,0.9230,0.3154,0.0692,2.2668,-0.2634,
20.373550,2.3574,0.9230,0.3154,0.0692,2.2668,-0.2634,
20.388930,-0.0281,-0.7221,-0.4786,0.0692,2.2668,-0.2634,
20.395758,-0.0281,-0.7221,-0.4786,-0.2121,2.1429,-0.0478,
20.437107,-0.0281,-0.7221,-0.4786,-0.2121,2.1429,-0.0478,
20.453562,-0.5297,-1.2313,-0.1124,-0.2121,2.1429,-0.0478,
20.460863,-0.5297,-1.2313,-0.1124,0.4786,2.0050,0.0898,
20.502592,-0.5297,-1.2313,-0.1124,0.4786,2.0050,0.0898,
20.519325,-0.7685,-1.4519,0.1411,0.4786,2.0050,0.0898,
20.527160,-0.7685,-1.4519,0.1411,0.5000,1.9971,0.0612,
20.568723,-0.7685,-1.4519,0.1411,0.5000,1.9971,0.0612,
20.585206,-0.6049,-1.4047,0.5103,0.5000,1.9971,0.0612,
20.592616,-0.6049,-1.4047,0.5103,0.5397,1.2204,0.1620,
20.634938,-0.6049,-1.4047,0.5103,0.5397,1.2204,0.1620,
20.651043,-1.7539,2.0450,2.2123,0.5397,1.2204,0.1620,
20.658531,-1.7539,2.0450,2.2123,-0.0211,0.7637,-0.0373,
20.699351,-1.7539,2.0450,2.2123,-0.0211,0.7637,-0.0373,
20.716315,3.0450,3.8465,1.4621,-0.0211,0.7637,-0.0373,
20.723260,3.0450,3.8465,1.4621,-0.2303,1.2121,-0.6012,
20.765393,3.0450,3.8465,1.4621,-0.2303,1.2121,-0.6012,
20.781666,0.1002,-1.1117,-1.0037,-0.2303,1.2121,-0.6012,
20.788831,0.1002,-1.1117,-1.0037,0.5069,0.6582,-0.1222,
20.832152,0.1002,-1.1117,-1.0037,0.5069,0.6582,-0.1222,
20.847097,-1.4620,-4.1290,-3.4503,0.5069,0.6582,-0.1222,
20.853682,-1.4620,-4.1290,-3.4503,1.6929,1.1174,-0.1848,
20.896682,-1.4620,-4.1290,-3.4503,1.6929,1.1174,-0.1848,
20.912768,-0.5659,2.3494,-0.6629,1.6929,1.1174,-0.1848,
20.919948,-0.5659,2.3494,-0.6629,0.3624,-0.2544,0.1090,
20.961886,-0.5659,2.3494,-0.6629,0.3624,-0.2544,0.1090,
20.978842,1.7145,-1.2311,-0.6427,0.3624,-0.2544,0.1090,
20.986885,1.7145,-1.2311,-0.6427,0.2857,-0.1584,0.5336,
21.027709,1.7145,-1.2311,-0.6427,0.2857,-0.1584,0.5336,
21.043217,0.7956,-1.0216,-0.1429,0.2857,-0.1584,0.5336,
21.050851,0.7956,-1.0216,-0.1429,0.4840,-0.1216,0.2059,
21.093026,0.7956,-1.0216,-0.1429,0.4840,-0.1216,0.2059,
21.108464,0.8697,-0.6176,0.6021,0.4840,-0.1216,0.2059,
21.115927,0.8697,-0.6176,0.6021,0.4635,-0.1379,-0.0557,
21.158550,0.8697,-0.6176,0.6021,0.4635,-0.1379,-0.0557,
21.174629,1.0802,-0.4092,1.0362,0.4635,-0.1379,-0.0557,
21.181880,1.0802,-0.4092,1.0362,0.3317,-0.2127,-0.3210,
21.223046,1.0802,-0.4092,1.0362,0.3317,-0.2127,-0.3210,
21.241076,2.6375,0.3602,1.3754,0.3317,-0.2127,-0.3210,
21.248297,2.6375,0.3602,1.3754,0.2279,0.0185,-0.2350,
21.289296,2.6375,0.3602,1.3754,0.2279,0.0185,-0.2350,
21.306079,2.7039,0.7050,0.2297,0.2279,0.0185,-0.2350,
21.313465,2.7039,0.7050,0.2297,-0.0892,0.3406,0.2983,
21.355308,2.7039,0.7050,0.2297,-0.0892,0.3406,0.2983,
21.371468,0.3323,1.6760,-1.7652,-0.0892,0.3406,0.2983,
21.377903,0.3323,1.6760,-1.7652,-0.3651,0.8792,0.7150,
21.420023,0.3323,1.6760,-1.7652,-0.3651,0.8792,0.7150,
21.436960,-2.2604,0.0382,-0.0101,-0.3651,0.8792,0.7150,
21.443947,-2.2604,0.0382,-0.0101,-0.6855,0.9111,-0.0255,
21.486125,-2.2604,0.0382,-0.0101,-0.6855,0.9111,-0.0255,
21.502647,1.3722,-0.1088,-0.1240,-0.6855,0.9111,-0.0255,
21.509298,1.3722,-0.1088,-0.1240,-0.3719,2.0239,-0.2486,
21.551369,1.3722,-0.1088,-0.1240,-0.3719,2.0239,-0.2486,
21.568964,-0.5498,-1.0615,-0.4864,-0.3719,2.0239,-0.2486,
21.573839,-0.5498,-1.0615,-0.4864,0.0218,2.3294,0.0982,
21.615786,-0.5498,-1.0615,-0.4864,0.0218,2.3294,0.0982,
21.632539,-1.2380,-0.4587,-0.3451,0.0218,2.3294,0.0982,
21.639812,-1.2380,-0.4587,-0.3451,0.2205,1.9163,0.0678,
21.681340,-1.2380,-0.4587,-0.3451,0.2205,1.9163,0.0678,
21.698069,-1.1669,-2.3982,-0.1886,0.2205,1.9163,0.0678,
21.705601,-1.1669,-2.3982,-0.1886,0.3048,1.6898,0.1717,
21.747429,-1.1669,-2.3982,-0.1886,0.3048,1.6898,0.1717,
21.764538,-2.1217,0.4413,0.5965,0.3048,1.6898,0.1717,
21.771513,-2.1217,0.4413,0.5965,0.6335,0.6898,0.0568,
21.813751,-2.1217,0.4413,0.5965,0.6335,0.6898,0.0568,
21.829407,-1.2104,1.3276,2.7413,0.6335,0.6898,0.0568,
21.836672,-1.2104,1.3276,2.7413,-0.2673,0.4452,-0.0473,
21.879588,-1.2104,1.3276,2.7413,-0.2673,0.4452,-0.0473,
21.894570,2.8237,7.9919,0.9587,-0.2673,0.4452,-0.0473,
21.902674,2.8237,7.9919,0.9587,0.1006,0.8239,-0.7347,
21.945020,2.8237,7.9919,0.9587,0.1006,0.8239,-0.7347,
21.959383,-1.1913,-4.6971,-1.5806,0.1006,0.8239,-0.7347,
21.968755,-1.1913,-4.6971,-1.5806,0.6382,0.2697,0.2124,
22.010001,-1.1913,-4.6971,-1.5806,0.6382,0.2697,0.2124,
22.024471,0.6692,-1.6336,-3.4179,0.6382,0.2697,0.2124,
22.032470,0.6692,-1.6336,-3.4179,1.3635,1.0776,-0.0942,
22.073620,0.6692,-1.6336,-3.4179,1.3635,1.0776,-0.0942,
22.090185,-0.3228,0.6863,-1.4283,1.3635,1.0776,-0.0942,
22.097306,-0.3228,0.6863,-1.4283,0.3152,-0.1944,0.3807,
22.139187,-0.3228,0.6863,-1.4283,0.3152,-0.1944,0.3807,
22.155810,1.1221,-1.3435,-1.0307,0.3152,-0.1944,0.3807,
22.163477,1.1221,-1.3435,-1.0307,0.3994,-0.3103,0.3638,
22.204804,1.1221,-1.3435,-1.0307,0.3994,-0.3103,0.3638,
22.223306,0.5701,-0.0261,-0.1733,0.3994,-0.3103,0.3638,
22.229553,0.5701,-0.0261,-0.1733,0.4203,-0.3448,0.0470,
22.270908,0.5701,-0.0261,-0.1733,0.4203,-0.3448,0.0470,
22.288813,0.1415,-0.6393,0.5063,0.4203,-0.3448,0.0470,
22.293928,0.1415,-0.6393,0.5063,0.2804,-0.4840,-0.2013,
22.336961,0.1415,-0.6393,0.5063,0.2804,-0.4840,-0.2013,
22.353770,1.0821,-0.5095,0.4207,0.2804,-0.4840,-0.2013,
22.360869,1.0821,-0.5095,0.4207,0.2798,-0.4088,-0.2798,
22.402824,1.0821,-0.5095,0.4207,0.2798,-0.4088,-0.2798,
22.419115,1.4815,0.3865,1.6086,0.2798,-0.4088,-0.2798,
22.425543,1.4815,0.3865,1.6086,-0.0266,-0.4213,-0.0087,
22.467757,1.4815,0.3865,1.6086,-0.0266,-0.4213,-0.0087,
22.485433,2.8713,3.2794,-1.1968,-0.0266,-0.4213,-0.0087,
22.491538,2.8713,3.2794,-1.1968,-0.0953,0.3968,1.0127,
22.532797,2.8713,3.2794,-1.1968,-0.0953,0.3968,1.0127,
22.549284,-3.4141,-0.4215,-0.0281,-0.0953,0.3968,1.0127,
22.556902,-3.4141,-0.4215,-0.0281,-1.0337,-0.1200,0.1043,
22.597518,-3.4141,-0.4215,-0.0281,-1.0337,-0.1200,0.1043,
22.615116,1.0571,1.2317,-0.1410,-1.0337,-0.1200,0.1043,
22.622518,1.0571,1.2317,-0.1410,-0.7640,1.3326,-0.1442,
22.664992,1.0571,1.2317,-0.1410,-0.7640,1.3326,-0.1442,
22.680766,-1.0374,-0.6435,-0.7827,-0.7640,1.3326,-0.1442,
22.687928,-1.0374,-0.6435,-0.7827,-0.7378,1.1367,0.0298,
22.729704,-1.0374,-0.6435,-0.7827,-0.7378,1.1367,0.0298,
22.745834,-2.0346,-0.7004,0.0339,-0.7378,1.1367,0.0298,
22.753789,-2.0346,-0.7004,0.0339,-0.1597,0.6504,0.0425,
22.795207,-2.0346,-0.7004,0.0339,-0.1597,0.6504,0.0425,
22.810946,-1.5885,-1.5884,0.4220,-0.1597,0.6504,0.0425,
22.819505,-1.5885,-1.5884,0.4220,0.1161,0.5428,-0.0276,
22.861204,-1.5885,-1.5884,0.4220,0.1161,0.5428,-0.0276,
22.876812,-0.7440,-1.4815,1.6055,0.1161,0.5428,-0.0276,
22.884915,-0.7440,-1.4815,1.6055,0.3502,0.5078,-0.0820,
22.926161,-0.7440,-1.4815,1.6055,0.3502,0.5078,-0.0820,
22.943405,0.1895,2.0926,1.5433,0.3502,0.5078,-0.0820,
22.950683,0.1895,2.0926,1.5433,-0.9545,1.0301,0.1226,
22.990858,0.1895,2.0926,1.5433,-0.9545,1.0301,0.1226,
23.006588,-3.1879,1.5678,0.5704,-0.9545,1.0301,0.1226,
23.015678,-3.1879,1.5678,0.5704,0.1976,-0.5021,0.0331,
23.056314,-3.1879,1.5678,0.5704,0.1976,-0.5021,0.0331,
23.073294,2.8268,0.5024,-2.4893,0.1976,-0.5021,0.0331,
23.080544,2.8268,0.5024,-2.4893,1.3853,0.5359,0.0987,
23.121694,2.8268,0.5024,-2.4893,1.3853,0.5359,0.0987,
23.140229,-4.3890,-0.2560,1.6453,1.3853,0.5359,0.0987,
23.145782,-4.3890,-0.2560,1.6453,0.5527,-0.1419,-0.1113,
23.187229,-4.3890,-0.2560,1.6453,0.5527,-0.1419,-0.1113,
23.204306,2.0866,-1.2371,-0.7378,0.5527,-0.1419,-0.1113,
23.211051,2.0866,-1.2371,-0.7378,0.7211,-0.3630,0.2358,
23.252916,2.0866,-1.2371,-0.7378,0.7211,-0.3630,0.2358,
23.269396,-0.4692,-0.9232,0.4103,0.7211,-0.3630,0.2358,
23.277638,-0.4692,-0.9232,0.4103,0.3647,-0.7143,0.0869,
23.319019,-0.4692,-0.9232,0.4103,0.3647,-0.7143,0.0869,
23.335342,0.2801,-0.5398,1.3909,0.3647,-0.7143,0.0869,
23.344033,0.2801,-0.5398,1.3909,0.2517,-0.8558,0.0434,
23.385011,0.2801,-0.5398,1.3909,0.2517,-0.8558,0.0434,
23.401096,0.5924,-0.3740,-0.0428,0.2517,-0.8558,0.0434,
23.407294,0.5924,-0.3740,-0.0428,-0.0142,-0.7453,0.3054,
23.449495,0.5924,-0.3740,-0.0428,-0.0142,-0.7453,0.3054,
23.467160,1.0970,5.5288,-1.6766,-0.0142,-0.7453,0.3054,
23.472965,1.0970,5.5288,-1.6766,-0.4759,-0.6377,0.8966,
23.515910,1.0970,5.5288,-1.6766,-0.4759,-0.6377,0.8966,
23.531201,-3.3160,0.0300,-0.3617,-0.4759,-0.6377,0.8966,
23.540094,-3.3160,0.0300,-0.3617,-1.9586,-1.4456,0.2799,
23.581030,-3.3160,0.0300,-0.3617,-1.9586,-1.4456,0.2799,
23.598730,-0.2301,1.6596,0.2864,-1.9586,-1.4456,0.2799,
23.606087,-0.2301,1.6596,0.2864,-0.8896,-0.2697,-0.4649,
23.646599,-0.2301,1.6596,0.2864,-0.8896,-0.2697,-0.4649,
23.663047,-0.6648,-1.3775,-0.0764,-0.8896,-0.2697,-0.4649,
23.670797,-0.6648,-1.3775,-0.0764,-0.9795,-0.3992,-0.2460,
23.712525,-0.6648,-1.3775,-0.0764,-0.9795,-0.3992,-0.2460,
23.728481,-1.2305,-2.6710,1.1051,-0.9795,-0.3992,-0.2460,
23.736431,-1.2305,-2.6710,1.1051,0.3273,0.1515,-0.4682,
23.776713,-1.2305,-2.6710,1.1051,0.3273,0.1515,-0.4682,
23.793791,-0.1305,-0.0799,2.5736,0.3273,0.1515,-0.4682,
23.801569,-0.1305,-0.0799,2.5736,0.0878,0.1955,-0.0698,
23.842723,-0.1305,-0.0799,2.5736,0.0878,0.1955,-0.0698,
23.859818,-1.6315,1.0255,2.0746,0.0878,0.1955,-0.0698,
23.867128,-1.6315,1.0255,2.0746,-0.5592,0.4756,-0.0666,
23.908992,-1.6315,1.0255,2.0746,-0.5592,0.4756,-0.0666,
23.924069,-1.1952,4.3321,0.3573,-0.5592,0.4756,-0.0666,
23.932270,-1.1952,4.3321,0.3573,-0.1378,-0.3186,-0.2816,
23.974109,-1.1952,4.3321,0.3573,-0.1378,-0.3186,-0.2816,
23.990826,0.8448,-0.4570,-2.1910,-0.1378,-0.3186,-0.2816,
23.997929,0.8448,-0.4570,-2.1910,0.1933,-0.6657,0.0394,
24.038109,0.8448,-0.4570,-2.1910,0.1933,-0.6657,0.0394,
24.057601,-1.4999,-0.6018,-1.0566,0.1933,-0.6657,0.0394,
24.063317,-1.4999,-0.6018,-1.0566,0.9006,0.0536,-0.3990,
24.104984,-1.4999,-0.6018,-1.0566,0.9006,0.0536,-0.3990,
24.120844,-0.0465,-0.8607,-0.8582,0.9006,0.0536,-0.3990,
24.127249,-0.0465,-0.8607,-0.8582,0.5684,-0.7196,0.0993,
24.169615,-0.0465,-0.8607,-0.8582,0.5684,-0.7196,0.0993,
24.187609,0.5077,-1.1204,-0.3113,0.5684,-0.7196,0.0993,
24.194419,0.5077,-1.1204,-0.3113,0.4778,-0.6761,-0.0234,
24.234092,0.5077,-1.1204,-0.3113,0.4778,-0.6761,-0.0234,
24.251083,1.0735,-0.6946,0.2539,0.4778,-0.6761,-0.0234,
24.259305,1.0735,-0.6946,0.2539,0.3859,-0.4937,-0.1115,
24.300703,1.0735,-0.6946,0.2539,0.3859,-0.4937,-0.1115,
24.321165,0.6920,-0.1351,0.7952,0.3859,-0.4937,-0.1115,
24.323936,0.6920,-0.1351,0.7952,0.3190,-0.4262,-0.2350,
24.366098,0.6920,-0.1351,0.7952,0.3190,-0.4262,-0.2350,
24.383860,2.3216,-0.7067,0.1825,0.3190,-0.4262,-0.2350,
24.390933,2.3216,-0.7067,0.1825,0.3661,-0.1474,-0.2062,
24.431043,2.3216,-0.7067,0.1825,0.3661,-0.1474,-0.2062,
24.449216,3.4680,1.1264,1.5561,0.3661,-0.1474,-0.2062,
24.457736,3.4680,1.1264,1.5561,0.2769,0.1808,-0.1481,
24.499246,3.4680,1.1264,1.5561,0.2769,0.1808,-0.1481,
24.514652,1.7606,1.6457,-1.0350,0.2769,0.1808,-0.1481,
24.521725,1.7606,1.6457,-1.0350,0.0440,0.8338,0.2410,
24.563515,1.7606,1.6457,-1.0350,0.0440,0.8338,0.2410,
24.578917,-3.2483,-0.5120,-1.1926,0.0440,0.8338,0.2410,
24.586432,-3.2483,-0.5120,-1.1926,-0.8137,0.5872,0.5357,
24.628056,-3.2483,-0.5120,-1.1926,-0.8137,0.5872,0.5357,
24.645052,1.4144,0.9457,-0.7067,-0.8137,0.5872,0.5357,
24.652214,1.4144,0.9457,-0.7067,-0.5027,1.4949,0.0935,
24.693112,1.4144,0.9457,-0.7067,-0.5027,1.4949,0.0935,
24.710736,0.0668,-0.1604,-0.7710,-0.5027,1.4949,0.0935,
24.721248,0.0668,-0.1604,-0.7710,-0.4360,1.6872,0.0073,
24.758856,0.0668,-0.1604,-0.7710,-0.4360,1.6872,0.0073,
24.775687,-2.1073,-0.7228,-0.4694,-0.4360,1.6872,0.0073,
24.782696,-2.1073,-0.7228,-0.4694,-0.2993,1.7903,0.1060,
24.824590,-2.1073,-0.7228,-0.4694,-0.2993,1.7903,0.1060,
24.840716,-0.7225,-2.2806,-0.4189,-0.2993,1.7903,0.1060,
24.848133,-0.7225,-2.2806,-0.4189,0.2095,1.5620,-0.1245,
24.891062,-0.7225,-2.2806,-0.4189,0.2095,1.5620,-0.1245,
24.907014,-0.9469,-2.0976,-0.0973,0.2095,1.5620,-0.1245,
24.914721,-0.9469,-2.0976,-0.0973,0.6813,1.4459,-0.2207,
24.955578,-0.9469,-2.0976,-0.0973,0.6813,1.4459,-0.2207,
24.974125,-1.2441,2.5031,1.9588,0.6813,1.4459,-0.2207,
24.980396,-1.2441,2.5031,1.9588,0.1350,0.9323,-0.0252,
25.021284,-1.2441,2.5031,1.9588,0.1350,0.9323,-0.0252,
25.037768,1.9267,-0.2054,2.7931,0.1350,0.9323,-0.0252,
25.044575,1.9267,-0.2054,2.7931,-0.3555,0.8015,0.0718,
25.086934,1.9267,-0.2054,2.7931,-0.3555,0.8015,0.0718,
25.104143,-1.0527,6.3695,-0.6133,-0.3555,0.8015,0.0718,
25.111334,-1.0527,6.3695,-0.6133,0.5059,-0.2925,-0.0185,
25.150791,-1.0527,6.3695,-0.6133,0.5059,-0.2925,-0.0185,
25.169159,1.1715,-4.6395,-3.6326,0.5059,-0.2925,-0.0185,
25.175396,1.1715,-4.6395,-3.6326,0.7094,1.2724,0.1730,
25.218835,1.1715,-4.6395,-3.6326,0.7094,1.2724,0.1730,
25.234908,-1.7105,1.5672,-0.8347,0.7094,1.2724,0.1730,
25.242157,-1.7105,1.5672,-0.8347,1.2087,0.3077,0.2627,
25.284369,-1.7105,1.5672,-0.8347,1.2087,0.3077,0.2627,
25.298825,-0.7116,-1.8875,-1.8766,1.2087,0.3077,0.2627,
25.306756,-0.7116,-1.8875,-1.8766,0.8445,-0.3277,0.2433,
25.347806,-0.7116,-1.8875,-1.8766,0.8445,-0.3277,0.2433,
25.365185,-0.2942,-0.7225,-0.4916,0.8445,-0.3277,0.2433,
25.372565,-0.2942,-0.7225,-0.4916,0.6573,-0.5728,-0.0426,
25.416525,-0.2942,-0.7225,-0.4916,0.6573,-0.5728,-0.0426,
25.430183,0.6302,-0.2097,0.1265,0.6573,-0.5728,-0.0426,
25.438323,0.6302,-0.2097,0.1265,0.3490,-0.7055,-0.0933,
25.479063,0.6302,-0.2097,0.1265,0.3490,-0.7055,-0.0933,
25.496085,0.1707,0.3664,0.6324,0.3490,-0.7055,-0.0933,
25.502950,0.1707,0.3664,0.6324,0.0802,-0.7520,-0.1269,
25.544886,0.1707,0.3664,0.6324,0.0802,-0.7520,-0.1269,
25.561645,2.7963,0.8189,0.8853,0.0802,-0.7520,-0.1269,
25.568437,2.7963,0.8189,0.8853,-0.0602,-0.7295,0.1697,
25.609336,2.7963,0.8189,0.8853,-0.0602,-0.7295,0.1697,
25.626723,3.5616,1.4067,-0.1105,-0.0602,-0.7295,0.1697,
25.635210,3.5616,1.4067,-0.1105,-0.1568,-0.0263,0.6694,
25.675264,3.5616,1.4067,-0.1105,-0.1568,-0.0263,0.6694,
25.694636,-1.5183,1.2834,-3.1591,-0.1568,-0.0263,0.6694,
25.701529,-1.5183,1.2834,-3.1591,-1.0319,0.1287,0.6067,
25.741974,-1.5183,1.2834,-3.1591,-1.0319,0.1287,0.6067,
25.756777,-3.0645,2.0490,-0.1669,-1.0319,0.1287,0.6067,
25.764712,-3.0645,2.0490,-0.1669,-1.1642,-0.4600,0.1071,
25.806492,-3.0645,2.0490,-0.1669,-1.1642,-0.4600,0.1071,
25.823877,2.1276,-2.1112,-0.6712,-1.1642,-0.4600,0.1071,
25.831021,2.1276,-2.1112,-0.6712,-0.8738,1.3659,-0.2633,
25.872319,2.1276,-2.1112,-0.6712,-0.8738,1.3659,-0.2633,
25.890452,-1.9646,-1.2219,0.0964,-0.8738,1.3659,-0.2633,
25.896420,-1.9646,-1.2219,0.0964,-0.2431,1.3514,0.0244,
25.937191,-1.9646,-1.2219,0.0964,-0.2431,1.3514,0.0244,
25.954061,-1.8039,-2.0956,-0.0741,-0.2431,1.3514,0.0244,
25.961655,-1.8039,-2.0956,-0.0741,0.3016,0.9401,0.1194,
26.002827,-1.8039,-2.0956,-0.0741,0.3016,0.9401,0.1194,
26.020053,-1.2845,-2.3454,0.1142,0.3016,0.9401,0.1194,
26.026351,-1.2845,-2.3454,0.1142,0.6799,0.9268,-0.0322,
26.067813,-1.2845,-2.3454,0.1142,0.6799,0.9268,-0.0322,
26.085099,-0.4436,2.9587,1.3562,0.6799,0.9268,-0.0322,
26.092140,-0.4436,2.9587,1.3562,0.4983,0.6439,-0.0513,
26.134039,-0.4436,2.9587,1.3562,0.4983,0.6439,-0.0513,
26.152136,0.6089,3.9288,0.5588,0.4983,0.6439,-0.0513,
26.158846,0.6089,3.9288,0.5588,-0.8184,1.2785,-0.2630,
26.198643,0.6089,3.9288,0.5588,-0.8184,1.2785,-0.2630,
26.216614,-4.3424,-1.2500,-0.2529,-0.8184,1.2785,-0.2630,
26.222573,-4.3424,-1.2500,-0.2529,-0.0032,-0.4136,0.2283,
26.265176,-4.3424,-1.2500,-0.2529,-0.0032,-0.4136,0.2283,
26.281263,2.5151,-0.9280,-4.3213,-0.0032,-0.4136,0.2283,
26.288661,2.5151,-0.9280,-4.3213,1.3082,0.2025,-0.3511,
26.330090,2.5151,-0.9280,-4.3213,1.3082,0.2025,-0.3511,
26.345790,-1.8102,-0.4437,0.0318,1.3082,0.2025,-0.3511,
26.354111,-1.8102,-0.4437,0.0318,0.5742,-0.6577,0.2782,
26.396039,-1.8102,-0.4437,0.0318,0.5742,-0.6577,0.2782,
26.412256,0.3557,-0.9158,-1.5773,0.5742,-0.6577,0.2782,
26.420359,0.3557,-0.9158,-1.5773,0.6435,-0.9201,0.2494,
26.462872,0.3557,-0.9158,-1.5773,0.6435,-0.9201,0.2494,
26.477725,0.4947,-0.8316,-0.7223,0.6435,-0.9201,0.2494,
26.486131,0.4947,-0.8316,-0.7223,0.2150,-0.9833,0.0977,
26.528445,0.4947,-0.8316,-0.7223,0.2150,-0.9833,0.0977,
26.543405,1.7207,-0.8548,0.6193,0.2150,-0.9833,0.0977,
26.551774,1.7207,-0.8548,0.6193,0.1407,-0.7750,-0.0889,
26.593496,1.7207,-0.8548,0.6193,0.1407,-0.7750,-0.0889,
26.610765,1.8996,-0.1622,0.6905,0.1407,-0.7750,-0.0889,
26.617697,1.8996,-0.1622,0.6905,0.2753,-0.2152,-0.3994,
26.657937,1.8996,-0.1622,0.6905,0.2753,-0.2152,-0.3994,
26.674776,2.5283,0.8551,0.9192,0.2753,-0.2152,-0.3994,
26.682777,2.5283,0.8551,0.9192,0.2720,-0.0345,-0.1677,
26.723787,2.5283,0.8551,0.9192,0.2720,-0.0345,-0.1677,
26.740113,1.2145,1.5875,-0.3423,0.2720,-0.0345,-0.1677,
26.748519,1.2145,1.5875,-0.3423,-0.1283,-0.1315,0.4505,
26.788966,1.2145,1.5875,-0.3423,-0.1283,-0.1315,0.4505,
26.805201,-1.6671,1.3402,-2.4245,-0.1283,-0.1315,0.4505,
26.812577,-1.6671,1.3402,-2.4245,-0.9038,0.2304,0.7176,
26.854210,-1.6671,1.3402,-2.4245,-0.9038,0.2304,0.7176,
26.872368,-1.1368,1.2959,-0.8370,-0.9038,0.2304,0.7176,
26.879536,-1.1368,1.2959,-0.8370,-1.0864,-0.0817,0.0651,
26.920400,-1.1368,1.2959,-0.8370,-1.0864,-0.0817,0.0651,
26.937293,0.9036,-2.2509,-0.9225,-1.0864,-0.0817,0.0651,
26.944397,0.9036,-2.2509,-0.9225,-0.6005,1.9911,-0.3509,
26.984000,0.9036,-2.2509,-0.9225,-0.6005,1.9911,-0.3509,
27.001439,-2.3329,-0.1762,-0.2067,-0.6005,1.9911,-0.3509,
27.008984,-2.3329,-0.1762,-0.2067,-0.1799,1.3234,0.0904,
27.050670,-2.3329,-0.1762,-0.2067,-0.1799,1.3234,0.0904,
27.067390,-1.3457,-1.7647,-0.3647,-0.1799,1.3234,0.0904,
27.074473,-1.3457,-1.7647,-0.3647,0.1442,1.0339,0.1384,
27.116865,-1.3457,-1.7647,-0.3647,0.1442,1.0339,0.1384,
27.133158,-1.4102,-2.1440,-0.2201,0.1442,1.0339,0.1384,
27.140129,-1.4102,-2.1440,-0.2201,0.5455,0.9894,0.0122,
27.182027,-1.4102,-2.1440,-0.2201,0.5455,0.9894,0.0122,
27.199108,-1.2725,1.7561,0.8471,0.5455,0.9894,0.0122,
27.206733,-1.2725,1.7561,0.8471,0.5052,0.7645,-0.0542,
27.246728,-1.2725,1.7561,0.8471,0.5052,0.7645,-0.0542,
27.263649,0.5850,1.1949,3.1482,0.5052,0.7645,-0.0542,
27.272364,0.5850,1.1949,3.1482,-0.2679,0.8928,0.0637,
27.313237,0.5850,1.1949,3.1482,-0.2679,0.8928,0.0637,
27.329348,-0.5093,6.4604,-0.2401,-0.2679,0.8928,0.0637,
27.336236,-0.5093,6.4604,-0.2401,-0.7088,-0.4133,-0.2685,
27.377419,-0.5093,6.4604,-0.2401,-0.7088,-0.4133,-0.2685,
27.393674,-0.0487,-3.5843,-2.8334,-0.7088,-0.4133,-0.2685,
27.401289,-0.0487,-3.5843,-2.8334,0.5150,0.3636,-0.1506,
27.442874,-0.0487,-3.5843,-2.8334,0.5150,0.3636,-0.1506,
27.458966,-0.6182,2.0701,-2.5107,0.5150,0.3636,-0.1506,
27.467533,-0.6182,2.0701,-2.5107,0.8329,-0.0522,-0.1550,
27.508819,-0.6182,2.0701,-2.5107,0.8329,-0.0522,-0.1550,
27.525046,-0.5498,-1.5818,-1.6999,0.8329,-0.0522,-0.1550,
27.532776,-0.5498,-1.5818,-1.6999,0.5756,-0.8441,0.3187,
27.574837,-0.5498,-1.5818,-1.6999,0.5756,-0.8441,0.3187,
27.589903,1.1288,-1.3820,-0.8932,0.5756,-0.8441,0.3187,
27.598658,1.1288,-1.3820,-0.8932,0.4291,-0.9672,0.0185,
27.639856,1.1288,-1.3820,-0.8932,0.4291,-0.9672,0.0185,
27.656807,1.0629,-0.9648,-0.0125,0.4291,-0.9672,0.0185,
27.664821,1.0629,-0.9648,-0.0125,0.4343,-0.8903,-0.1930,
27.705182,1.0629,-0.9648,-0.0125,0.4343,-0.8903,-0.1930,
27.722756,2.1817,0.0005,0.6062,0.4343,-0.8903,-0.1930,
27.729228,2.1817,0.0005,0.6062,0.2059,-0.5727,-0.5282,
27.771559,2.1817,0.0005,0.6062,0.2059,-0.5727,-0.5282,
27.787659,1.3224,-1.1318,1.0107,0.2059,-0.5727,-0.5282,
27.793951,1.3224,-1.1318,1.0107,0.2724,-0.2963,-0.1327,
27.837749,1.3224,-1.1318,1.0107,0.2724,-0.2963,-0.1327,
27.853745,2.1264,1.5074,0.3622,0.2724,-0.2963,-0.1327,
27.860612,2.1264,1.5074,0.3622,0.2946,-0.3193,0.6681,
27.901545,2.1264,1.5074,0.3622,0.2946,-0.3193,0.6681,
27.918154,0.3234,1.8718,-3.3911,0.2946,-0.3193,0.6681,
27.926598,0.3234,1.8718,-3.3911,-0.5412,0.6384,0.9873,
27.967101,0.3234,1.8718,-3.3911,-0.5412,0.6384,0.9873,
27.984836,-2.4374,1.6990,-0.4791,-0.5412,0.6384,0.9873,
27.991545,-2.4374,1.6990,-0.4791,-0.9998,-0.1758,0.3920,
28.033594,-2.4374,1.6990,-0.4791,-0.9998,-0.1758,0.3920,
28.049638,2.3472,-0.9696,-0.9325,-0.9998,-0.1758,0.3920,
28.056910,2.3472,-0.9696,-0.9325,-0.3728,1.9665,-0.4326,
28.098789,2.3472,-0.9696,-0.9325,-0.3728,1.9665,-0.4326,
28.114786,-1.4356,-0.9012,-0.5458,-0.3728,1.9665,-0.4326,
28.122806,-1.4356,-0.9012,-0.5458,-0.0669,1.9482,-0.0512,
28.165240,-1.4356,-0.9012,-0.5458,-0.0669,1.9482,-0.0512,
28.181699,-1.5264,-1.6040,-0.5476,-0.0669,1.9482,-0.0512,
28.190345,-1.5264,-1.6040,-0.5476,0.2753,1.5130,0.1758,
28.230978,-1.5264,-1.6040,-0.5476,0.2753,1.5130,0.1758,
28.246216,-1.4234,-2.0588,-0.6177,0.2753,1.5130,0.1758,
28.254087,-1.4234,-2.0588,-0.6177,0.3920,1.5475,0.1709,
28.294708,-1.4234,-2.0588,-0.6177,0.3920,1.5475,0.1709,
28.311804,-1.3959,1.3579,0.2141,0.3920,1.5475,0.1709,
28.318693,-1.3959,1.3579,0.2141,0.4146,0.7957,0.0075,
28.360576,-1.3959,1.3579,0.2141,0.4146,0.7957,0.0075,
28.377992,0.5262,0.3387,2.4976,0.4146,0.7957,0.0075,
28.384418,0.5262,0.3387,2.4976,-0.3852,0.8410,0.0921,
28.425367,0.5262,0.3387,2.4976,-0.3852,0.8410,0.0921,
28.442416,1.1074,5.4455,-0.0264,-0.3852,0.8410,0.0921,
28.451245,1.1074,5.4455,-0.0264,-0.1544,1.3786,-0.4846,
28.491327,1.1074,5.4455,-0.0264,-0.1544,1.3786,-0.4846,
28.508636,-1.9149,-2.0814,-1.6087,-0.1544,1.3786,-0.4846,
28.514813,-1.9149,-2.0814,-1.6087,0.4887,0.0027,0.1927,
28.557460,-1.9149,-2.0814,-1.6087,0.4887,0.0027,0.1927,
28.573826,2.9690,-0.3685,-4.7050,0.4887,0.0027,0.1927,
28.581873,2.9690,-0.3685,-4.7050,1.0264,0.8204,-0.0408,
28.621583,2.9690,-0.3685,-4.7050,1.0264,0.8204,-0.0408,
28.638694,-0.5451,0.4888,-1.4302,1.0264,0.8204,-0.0408,
28.646356,-0.5451,0.4888,-1.4302,0.7181,-0.3199,0.3862,
28.689528,-0.5451,0.4888,-1.4302,0.7181,-0.3199,0.3862,
28.706191,1.1197,-1.7114,-1.3161,0.7181,-0.3199,0.3862,
28.711728,1.1197,-1.7114,-1.3161,0.4859,-0.5644,0.0712,
28.753466,1.1197,-1.7114,-1.3161,0.4859,-0.5644,0.0712,
28.772294,0.6937,-1.5194,-0.2267,0.4859,-0.5644,0.0712,
28.778109,0.6937,-1.5194,-0.2267,0.3957,-0.6439,-0.1232,
28.818506,0.6937,-1.5194,-0.2267,0.3957,-0.6439,-0.1232,
28.835130,0.7930,-2.4561,-0.3272,0.3957,-0.6439,-0.1232,
28.842056,0.7930,-2.4561,-0.3272,0.5212,-0.5269,-0.1750,
28.884458,0.7930,-2.4561,-0.3272,0.5212,-0.5269,-0.1750,
28.900860,1.5600,-0.0108,0.4761,0.5212,-0.5269,-0.1750,
28.906993,1.5600,-0.0108,0.4761,0.2352,-0.5356,-0.3364,
28.947885,1.5600,-0.0108,0.4761,0.2352,-0.5356,-0.3364,
28.965962,4.2932,0.1405,0.8352,0.2352,-0.5356,-0.3364,
28.972740,4.2932,0.1405,0.8352,0.3063,0.2804,-0.3210,
29.014136,4.2932,0.1405,0.8352,0.3063,0.2804,-0.3210,
29.031742,2.1592,1.7061,0.3558,0.3063,0.2804,-0.3210,
29.037970,2.1592,1.7061,0.3558,-0.0301,0.0840,0.2468,
29.080027,2.1592,1.7061,0.3558,-0.0301,0.0840,0.2468,
29.096768,0.4949,0.5416,-3.1912,-0.0301,0.0840,0.2468,
29.104842,0.4949,0.5416,-3.1912,-0.3711,0.9387,0.8309,
29.145001,0.4949,0.5416,-3.1912,-0.3711,0.9387,0.8309,
29.162166,-2.6765,1.6478,-0.5465,-0.3711,0.9387,0.8309,
29.169577,-2.6765,1.6478,-0.5465,-0.7530,0.5290,0.2008,
29.211729,-2.6765,1.6478,-0.5465,-0.7530,0.5290,0.2008,
29.228025,2.4621,-0.5161,-0.7096,-0.7530,0.5290,0.2008,
29.234887,2.4621,-0.5161,-0.7096,-0.4181,2.4268,-0.2100,
29.277003,2.4621,-0.5161,-0.7096,-0.4181,2.4268,-0.2100,
29.294476,-0.2351,0.0671,-0.7411,-0.4181,2.4268,-0.2100,
29.300214,-0.2351,0.0671,-0.7411,-0.2138,2.5136,0.0043,
29.341183,-0.2351,0.0671,-0.7411,-0.2138,2.5136,0.0043,
29.357960,-0.7522,-1.9157,-1.2192,-0.2138,2.5136,0.0043,
29.365394,-0.7522,-1.9157,-1.2192,0.0825,2.0386,0.1549,
29.406367,-0.7522,-1.9157,-1.2192,0.0825,2.0386,0.1549,
29.423245,-0.6669,-2.0228,-1.3338,0.0825,2.0386,0.1549,
29.431788,-0.6669,-2.0228,-1.3338,0.6242,1.9942,-0.0351,
29.472708,-0.6669,-2.0228,-1.3338,0.6242,1.9942,-0.0351,
29.490498,-0.9947,-0.3606,0.1049,0.6242,1.9942,-0.0351,
29.496582,-0.9947,-0.3606,0.1049,0.5841,1.1813,0.1139,
29.538051,-0.9947,-0.3606,0.1049,0.5841,1.1813,0.1139,
29.555292,-0.3178,0.5349,1.4387,0.5841,1.1813,0.1139,
29.562812,-0.3178,0.5349,1.4387,0.3059,0.9496,0.0396,
29.605036,-0.3178,0.5349,1.4387,0.3059,0.9496,0.0396,
29.621678,0.0269,-0.0434,1.5978,0.3059,0.9496,0.0396,
29.628695,0.0269,-0.0434,1.5978,0.1964,1.0774,-0.1003,
29.671269,0.0269,-0.0434,1.5978,0.1964,1.0774,-0.1003,
29.686946,-0.3218,5.0163,-3.0128,0.1964,1.0774,-0.1003,
29.694965,-0.3218,5.0163,-3.0128,0.3444,0.0666,-0.6164,
29.735019,-0.3218,5.0163,-3.0128,0.3444,0.0666,-0.6164,
29.753093,0.9225,-4.7211,-3.2352,0.3444,0.0666,-0.6164,
29.759646,0.9225,-4.7211,-3.2352,0.8007,0.2205,0.1523,
29.801125,0.9225,-4.7211,-3.2352,0.8007,0.2205,0.1523,
29.818446,-1.6202,2.2283,-1.3781,0.8007,0.2205,0.1523,
29.824123,-1.6202,2.2283,-1.3781,0.5918,-0.2503,0.3380,
29.865059,-1.6202,2.2283,-1.3781,0.5918,-0.2503,0.3380,
29.883363,1.5168,-1.7185,-1.5579,0.5918,-0.2503,0.3380,
29.889453,1.5168,-1.7185,-1.5579,-0.0308,-0.9374,0.6657,
29.930134,1.5168,-1.7185,-1.5579,-0.0308,-0.9374,0.6657,
29.948120,1.0152,-0.7410,-0.3730,-0.0308,-0.9374,0.6657,
29.954700,1.0152,-0.7410,-0.3730,0.3639,-0.6483,0.2804,
29.997644,1.0152,-0.7410,-0.3730,0.3639,-0.6483,0.2804,
30.014502,1.2179,-1.1878,0.1407,0.3639,-0.6483,0.2804,
30.021157,1.2179,-1.1878,0.1407,0.3690,-0.5683,0.0855,
30.062404,1.2179,-1.1878,0.1407,0.3690,-0.5683,0.0855,
30.078593,0.1458,-0.9866,0.3921,0.3690,-0.5683,0.0855,
30.087055,0.1458,-0.9866,0.3921,0.4122,-0.5252,-0.2921,
30.128100,0.1458,-0.9866,0.3921,0.4122,-0.5252,-0.2921,
30.145112,1.6279,-0.2019,0.6170,0.4122,-0.5252,-0.2921,
30.151687,1.6279,-0.2019,0.6170,0.2657,-0.5241,-0.3581,
30.193885,1.6279,-0.2019,0.6170,0.2657,-0.5241,-0.3581,
30.210211,2.7892,0.6031,1.6629,0.2657,-0.5241,-0.3581,
30.217681,2.7892,0.6031,1.6629,0.1234,-0.5681,0.0550,
30.259479,2.7892,0.6031,1.6629,0.1234,-0.5681,0.0550,
30.274577,4.0265,1.5644,-1.7059,0.1234,-0.5681,0.0550,
30.283602,4.0265,1.5644,-1.7059,0.0464,0.4154,0.4980,
30.324108,4.0265,1.5644,-1.7059,0.0464,0.4154,0.4980,
30.340306,-2.0272,1.1537,-2.8637,0.0464,0.4154,0.4980,
30.348134,-2.0272,1.1537,-2.8637,-1.1104,0.4116,0.3067,
30.390704,-2.0272,1.1537,-2.8637,-1.1104,0.4116,0.3067,
30.406678,-0.6488,0.7550,-0.6236,-1.1104,0.4116,0.3067,
30.414770,-0.6488,0.7550,-0.6236,-1.1550,0.6399,0.0764,
30.455667,-0.6488,0.7550,-0.6236,-1.1550,0.6399,0.0764,
30.472419,0.3571,-0.7718,-0.6817,-1.1550,0.6399,0.0764,
30.479542,0.3571,-0.7718,-0.6817,-1.1736,0.8676,0.0648,
30.521901,0.3571,-0.7718,-0.6817,-1.1736,0.8676,0.0648,
30.537914,-1.1324,-0.9030,-0.9622,-1.1736,0.8676,0.0648,
30.545316,-1.1324,-0.9030,-0.9622,-0.3178,0.7772,0.0548,
30.586411,-1.1324,-0.9030,-0.9622,-0.3178,0.7772,0.0548,
30.603155,-1.7925,-0.6591,-0.4275,-0.3178,0.7772,0.0548,
30.610563,-1.7925,-0.6591,-0.4275,0.0790,0.6519,-0.1837,
30.652463,-1.7925,-0.6591,-0.4275,0.0790,0.6519,-0.1837,
30.669000,-0.7779,-1.4806,0.0653,0.0790,0.6519,-0.1837,
30.675402,-0.7779,-1.4806,0.0653,0.3528,0.4409,-0.1023,
30.717577,-0.7779,-1.4806,0.0653,0.3528,0.4409,-0.1023,
30.735202,0.4324,-1.1529,1.2647,0.3528,0.4409,-0.1023,
30.740248,0.4324,-1.1529,1.2647,0.7288,0.5530,0.0131,
30.783982,0.4324,-1.1529,1.2647,0.7288,0.5530,0.0131,
30.800851,-0.5948,0.5270,2.7272,0.7288,0.5530,0.0131,
30.807099,-0.5948,0.5270,2.7272,0.5829,0.6854,0.0302,
30.849502,-0.5948,0.5270,2.7272,0.5829,0.6854,0.0302,
30.864827,1.0598,1.9696,0.9413,0.5829,0.6854,0.0302,
30.872245,1.0598,1.9696,0.9413,-0.0121,0.8021,-0.2585,
30.913802,1.0598,1.9696,0.9413,-0.0121,0.8021,-0.2585,
30.931618,-1.3316,1.5235,-2.3761,-0.0121,0.8021,-0.2585,
30.938389,-1.3316,1.5235,-2.3761,0.2053,-0.2576,-0.3378,
30.980031,-1.3316,1.5235,-2.3761,0.2053,-0.2576,-0.3378,
30.996530,1.4322,-4.0900,-4.1105,0.2053,-0.2576,-0.3378,
31.004242,1.4322,-4.0900,-4.1105,1.0208,0.7208,-0.1184,
31.043988,1.4322,-4.0900,-4.1105,1.0208,0.7208,-0.1184,
31.062225,-2.7171,2.6498,-0.3882,1.0208,0.7208,-0.1184,
31.069378,-2.7171,2.6498,-0.3882,0.2414,-0.7530,0.3800,
31.110076,-2.7171,2.6498,-0.3882,0.2414,-0.7530,0.3800,
31.127155,1.0889,-1.7327,-1.1378,0.2414,-0.7530,0.3800,
31.134364,1.0889,-1.7327,-1.1378,0.0690,-0.9927,0.5780,
31.175651,1.0889,-1.7327,-1.1378,0.0690,-0.9927,0.5780,
31.192806,0.8110,-0.6352,-0.0794,0.0690,-0.9927,0.5780,
31.199834,0.8110,-0.6352,-0.0794,0.1442,-0.7596,0.3034,
31.241464,0.8110,-0.6352,-0.0794,0.1442,-0.7596,0.3034,
31.258176,1.1278,-1.3765,0.5630,0.1442,-0.7596,0.3034,
31.264658,1.1278,-1.3765,0.5630,0.1836,-0.6403,-0.0263,
31.307316,1.1278,-1.3765,0.5630,0.1836,-0.6403,-0.0263,
31.323905,1.5814,-0.8753,0.8232,0.1836,-0.6403,-0.0263,
31.331485,1.5814,-0.8753,0.8232,0.1915,-0.1382,-0.3636,
31.372027,1.5814,-0.8753,0.8232,0.1915,-0.1382,-0.3636,
31.388999,1.7304,0.0538,0.1229,0.1915,-0.1382,-0.3636,
31.395983,1.7304,0.0538,0.1229,0.1316,-0.1691,-0.1524,
31.438125,1.7304,0.0538,0.1229,0.1316,-0.1691,-0.1524,
31.454842,1.4627,0.9255,1.1351,0.1316,-0.1691,-0.1524,
31.461210,1.4627,0.9255,1.1351,-0.2372,-0.8406,0.3589,
31.503914,1.4627,0.9255,1.1351,-0.2372,-0.8406,0.3589,
31.521130,2.7581,0.5184,-2.7106,-0.2372,-0.8406,0.3589,
31.527784,2.7581,0.5184,-2.7106,-0.5486,0.4065,0.5553,
31.569422,2.7581,0.5184,-2.7106,-0.5486,0.4065,0.5553,
31.585682,-2.6933,3.4048,-1.0060,-0.5486,0.4065,0.5553,
31.593419,-2.6933,3.4048,-1.0060,-1.0814,-0.0782,0.6394,
31.634591,-2.6933,3.4048,-1.0060,-1.0814,-0.0782,0.6394,
31.652273,1.5715,-0.1131,-0.3421,-1.0814,-0.0782,0.6394,
31.658553,1.5715,-0.1131,-0.3421,-0.7740,1.0452,-0.3572,
31.701000,1.5715,-0.1131,-0.3421,-0.7740,1.0452,-0.3572,
31.716790,-0.0181,-2.0689,-0.6094,-0.7740,1.0452,-0.3572,
31.724271,-0.0181,-2.0689,-0.6094,-0.2908,2.1057,-0.2468,
31.764867,-0.0181,-2.0689,-0.6094,-0.2908,2.1057,-0.2468,
31.782658,-1.3790,-1.1124,-0.3929,-0.2908,2.1057,-0.2468,
31.789671,-1.3790,-1.1124,-0.3929,0.1880,1.5797,0.0185,
31.829428,-1.3790,-1.1124,-0.3929,0.1880,1.5797,0.0185,
31.847156,-2.0356,-1.7064,-0.2876,0.1880,1.5797,0.0185,
31.854902,-2.0356,-1.7064,-0.2876,0.3067,0.8861,0.1550,
31.896278,-2.0356,-1.7064,-0.2876,0.3067,0.8861,0.1550,
31.912670,-0.5957,-0.9489,1.0354,0.3067,0.8861,0.1550,
31.919858,-0.5957,-0.9489,1.0354,0.5333,0.4403,0.0805,
31.960908,-0.5957,-0.9489,1.0354,0.5333,0.4403,0.0805,
31.978165,-0.2406,1.0723,2.1652,0.5333,0.4403,0.0805,
31.984745,-0.2406,1.0723,2.1652,0.2176,0.4158,0.0217,
32.027330,-0.2406,1.0723,2.1652,0.2176,0.4158,0.0217,
32.043755,-0.4340,0.4578,1.2837,0.2176,0.4158,0.0217,
32.050866,-0.4340,0.4578,1.2837,0.2155,1.0197,-0.1503,
32.091830,-0.4340,0.4578,1.2837,0.2155,1.0197,-0.1503,
32.108982,-1.1391,3.3013,-1.8346,0.2155,1.0197,-0.1503,
32.117523,-1.1391,3.3013,-1.8346,-0.1782,-0.5130,-0.4212,
32.159007,-1.1391,3.3013,-1.8346,-0.1782,-0.5130,-0.4212,
32.173955,0.6618,-4.9585,-4.2975,-0.1782,-0.5130,-0.4212,
32.180839,0.6618,-4.9585,-4.2975,1.0687,0.6164,-0.0640,
32.223926,0.6618,-4.9585,-4.2975,1.0687,0.6164,-0.0640,
32.240047,-2.7548,1.6719,-1.1108,1.0687,0.6164,-0.0640,
32.247537,-2.7548,1.6719,-1.1108,0.2914,-1.5579,0.4840,
32.288464,-2.7548,1.6719,-1.1108,0.2914,-1.5579,0.4840,
32.305275,1.6701,-1.3564,-1.8215,0.2914,-1.5579,0.4840,
32.313302,1.6701,-1.3564,-1.8215,0.1892,-1.6394,0.3709,
32.353511,1.6701,-1.3564,-1.8215,0.1892,-1.6394,0.3709,
32.372517,1.7780,-1.1149,0.0595,0.1892,-1.6394,0.3709,
32.377318,1.7780,-1.1149,0.0595,0.2280,-1.2207,0.1901,
32.419221,1.7780,-1.1149,0.0595,0.2280,-1.2207,0.1901,
32.436873,2.3291,-1.0932,0.7745,0.2280,-1.2207,0.1901,
32.443323,2.3291,-1.0932,0.7745,0.3459,-0.6410,-0.0683,
32.484461,2.3291,-1.0932,0.7745,0.3459,-0.6410,-0.0683,
32.502184,1.7401,-0.7008,1.2232,0.3459,-0.6410,-0.0683,
32.508974,1.7401,-0.7008,1.2232,0.2786,-0.0241,-0.5163,
32.551077,1.7401,-0.7008,1.2232,0.2786,-0.0241,-0.5163,
32.568164,1.8615,0.0905,0.6863,0.2786,-0.0241,-0.5163,
32.574851,1.8615,0.0905,0.6863,0.2747,0.1284,-0.1926,
32.615281,1.8615,0.0905,0.6863,0.2747,0.1284,-0.1926,
32.632008,1.1247,1.6347,0.1216,0.2747,0.1284,-0.1926,
32.639451,1.1247,1.6347,0.1216,-0.1214,-0.4459,0.4395,
32.680677,1.1247,1.6347,0.1216,-0.1214,-0.4459,0.4395,
32.697428,1.0087,1.1903,-2.9665,-0.1214,-0.4459,0.4395,
32.704368,1.0087,1.1903,-2.9665,-0.7669,0.4009,0.8978,
32.746524,1.0087,1.1903,-2.9665,-0.7669,0.4009,0.8978,
32.763620,-1.2426,1.5512,-1.1297,-0.7669,0.4009,0.8978,
32.771247,-1.2426,1.5512,-1.1297,-1.0166,0.2078,0.1909,
32.812116,-1.2426,1.5512,-1.1297,-1.0166,0.2078,0.1909,
32.828906,1.9658,-0.5800,-0.3986,-1.0166,0.2078,0.1909,
32.836124,1.9658,-0.5800,-0.3986,-0.6032,2.0308,-0.3526,
32.877787,1.9658,-0.5800,-0.3986,-0.6032,2.0308,-0.3526,
32.895103,-1.3280,-1.2619,-0.8967,-0.6032,2.0308,-0.3526,
32.901848,-1.3280,-1.2619,-0.8967,-0.1642,2.0560,-0.0929,
32.944165,-1.3280,-1.2619,-0.8967,-0.1642,2.0560,-0.0929,
32.960892,-0.8213,-0.8949,-1.2348,-0.1642,2.0560,-0.0929,
32.968183,-0.8213,-0.8949,-1.2348,0.1356,1.5884,-0.0099,
33.009152,-0.8213,-0.8949,-1.2348,0.1356,1.5884,-0.0099,
33.025636,-1.5297,-2.2613,-0.4302,0.1356,1.5884,-0.0099,
33.033009,-1.5297,-2.2613,-0.4302,0.3816,1.2491,0.0617,
33.075304,-1.5297,-2.2613,-0.4302,0.3816,1.2491,0.0617,
33.090058,0.3396,-0.4445,0.8380,0.3816,1.2491,0.0617,
33.098534,0.3396,-0.4445,0.8380,0.6597,0.5673,0.1768,
33.139928,0.3396,-0.4445,0.8380,0.6597,0.5673,0.1768,
33.156976,-0.3025,0.6573,2.5710,0.6597,0.5673,0.1768,
33.164259,-0.3025,0.6573,2.5710,0.1965,0.9878,-0.0640,
33.205872,-0.3025,0.6573,2.5710,0.1965,0.9878,-0.0640,
33.222822,0.1979,1.5939,0.3010,0.1965,0.9878,-0.0640,
33.230602,0.1979,1.5939,0.3010,0.3853,1.4001,-0.3774,
33.270826,0.1979,1.5939,0.3010,0.3853,1.4001,-0.3774,
33.286888,-0.9020,1.6088,-1.9898,0.3853,1.4001,-0.3774,
33.295664,-0.9020,1.6088,-1.9898,0.0707,0.1126,-0.3468,
33.336852,-0.9020,1.6088,-1.9898,0.0707,0.1126,-0.3468,
33.355166,0.9104,-4.9456,-4.2266,0.0707,0.1126,-0.3468,
33.360719,0.9104,-4.9456,-4.2266,1.1571,0.6694,0.1697,
33.402085,0.9104,-4.9456,-4.2266,1.1571,0.6694,0.1697,
33.419127,-1.3617,2.1519,-1.3555,1.1571,0.6694,0.1697,
33.425964,-1.3617,2.1519,-1.3555,0.3803,-0.4598,0.3262,
33.467003,-1.3617,2.1519,-1.3555,0.3803,-0.4598,0.3262,
33.483852,2.0758,-1.6918,-1.3927,0.3803,-0.4598,0.3262,
33.490605,2.0758,-1.6918,-1.3927,0.1707,-0.7150,0.4368,
33.533596,2.0758,-1.6918,-1.3927,0.1707,-0.7150,0.4368,
33.549247,1.3672,-1.0029,-0.0956,0.1707,-0.7150,0.4368,
33.556798,1.3672,-1.0029,-0.0956,0.3571,-0.3540,0.1523,
33.597987,1.3672,-1.0029,-0.0956,0.3571,-0.3540,0.1523,
33.615263,1.0812,-0.9657,0.2626,0.3571,-0.3540,0.1523,
33.621681,1.0812,-0.9657,0.2626,0.3615,-0.2969,-0.1110,
33.664654,1.0812,-0.9657,0.2626,0.3615,-0.2969,-0.1110,
33.679683,0.5844,-0.7248,0.7564,0.3615,-0.2969,-0.1110,
33.689282,0.5844,-0.7248,0.7564,0.2515,-0.4586,-0.3257,
33.729240,0.5844,-0.7248,0.7564,0.2515,-0.4586,-0.3257,
33.745883,2.4621,-0.3433,0.5149,0.2515,-0.4586,-0.3257,
33.754005,2.4621,-0.3433,0.5149,0.1626,-0.4064,-0.2636,
33.794709,2.4621,-0.3433,0.5149,0.1626,-0.4064,-0.2636,
33.811749,2.9405,0.7023,1.0606,0.1626,-0.4064,-0.2636,
33.818646,2.9405,0.7023,1.0606,-0.0276,-0.3797,0.2703,
33.860901,2.9405,0.7023,1.0606,-0.0276,-0.3797,0.2703,
33.876680,2.4164,2.1962,-2.0305,-0.0276,-0.3797,0.2703,
33.883880,2.4164,2.1962,-2.0305,-0.2250,0.4985,0.5935,
33.925830,2.4164,2.1962,-2.0305,-0.2250,0.4985,0.5935,
33.942054,-2.0595,0.6591,-0.8964,-0.2250,0.4985,0.5935,
33.948728,-2.0595,0.6591,-0.8964,-1.1272,0.2564,0.2318,
33.991728,-2.0595,0.6591,-0.8964,-1.1272,0.2564,0.2318,
34.009979,0.9197,-0.1845,-0.5400,-1.1272,0.2564,0.2318,
34.014622,0.9197,-0.1845,-0.5400,-0.7460,1.3639,-0.1382,
34.056844,0.9197,-0.1845,-0.5400,-0.7460,1.3639,-0.1382,
34.073996,-0.1217,-0.8485,-0.7917,-0.7460,1.3639,-0.1382,
34.081045,-0.1217,-0.8485,-0.7917,-0.5260,1.7046,-0.1150,
34.123252,-0.1217,-0.8485,-0.7917,-0.5260,1.7046,-0.1150,
34.138794,-0.8763,-0.3287,-0.2130,-0.5260,1.7046,-0.1150,
34.146011,-0.8763,-0.3287,-0.2130,-0.2262,1.2005,0.1808,
34.187565,-0.8763,-0.3287,-0.2130,-0.2262,1.2005,0.1808,
34.203722,-1.0388,-1.7770,-0.3650,-0.2262,1.2005,0.1808,
34.210857,-1.0388,-1.7770,-0.3650,0.0791,1.1605,0.1556,
34.252745,-1.0388,-1.7770,-0.3650,0.0791,1.1605,0.1556,
34.271799,-0.9940,-1.7372,0.2618,0.0791,1.1605,0.1556,
34.277729,-0.9940,-1.7372,0.2618,0.4630,0.8854,0.1403,
34.318930,-0.9940,-1.7372,0.2618,0.4630,0.8854,0.1403,
34.336347,-0.1936,0.5554,1.5758,0.4630,0.8854,0.1403,
34.342117,-0.1936,0.5554,1.5758,0.5935,0.4067,0.1310,
34.384406,-0.1936,0.5554,1.5758,0.5935,0.4067,0.1310,
34.400011,0.2740,-0.2338,2.8746,0.5935,0.4067,0.1310,
34.408066,0.2740,-0.2338,2.8746,0.1211,0.8071,-0.0602,
34.449769,0.2740,-0.2338,2.8746,0.1211,0.8071,-0.0602,
34.467334,0.5642,6.6969,0.4357,0.1211,0.8071,-0.0602,
34.473627,0.5642,6.6969,0.4357,0.0551,0.3129,-0.4539,
34.515708,0.5642,6.6969,0.4357,0.0551,0.3129,-0.4539,
34.532114,-0.6560,-1.7830,-2.1448,0.0551,0.3129,-0.4539,
34.538423,-0.6560,-1.7830,-2.1448,0.3248,-0.1869,-0.1147,
34.579906,-0.6560,-1.7830,-2.1448,0.3248,-0.1869,-0.1147,
34.596568,-0.0841,-2.4601,-3.5747,0.3248,-0.1869,-0.1147,
34.606121,-0.0841,-2.4601,-3.5747,0.9571,0.1562,0.1046,
34.646153,-0.0841,-2.4601,-3.5747,0.9571,0.1562,0.1046,
34.662064,-0.5581,0.9132,-1.2294,0.9571,0.1562,0.1046,
34.669571,-0.5581,0.9132,-1.2294,0.2205,-1.1571,0.3256,
34.710823,-0.5581,0.9132,-1.2294,0.2205,-1.1571,0.3256,
34.727592,2.0662,-0.8942,-1.0636,0.2205,-1.1571,0.3256,
34.734699,2.0662,-0.8942,-1.0636,0.3262,-0.8306,0.3717,
34.777557,2.0662,-0.8942,-1.0636,0.3262,-0.8306,0.3717,
34.793013,1.3134,-0.8191,-0.0732,0.3262,-0.8306,0.3717,
34.800405,1.3134,-0.8191,-0.0732,0.3644,-0.5918,0.1524,
34.841934,1.3134,-0.8191,-0.0732,0.3644,-0.5918,0.1524,
34.858798,0.8184,-0.6340,0.7117,0.3644,-0.5918,0.1524,
34.866400,0.8184,-0.6340,0.7117,0.2747,-0.4117,-0.0887,
34.907583,0.8184,-0.6340,0.7117,0.2747,-0.4117,-0.0887,
34.924280,1.4744,-0.8682,0.7655,0.2747,-0.4117,-0.0887,
34.932071,1.4744,-0.8682,0.7655,0.1177,-0.3386,-0.3658,
34.973441,1.4744,-0.8682,0.7655,0.1177,-0.3386,-0.3658,
34.989344,2.1498,-0.2458,0.8956,0.1177,-0.3386,-0.3658,
34.996516,2.1498,-0.2458,0.8956,0.2279,-0.1104,-0.2905,
35.039661,2.1498,-0.2458,0.8956,0.2279,-0.1104,-0.2905,
35.054938,2.8417,0.4105,1.3145,0.2279,-0.1104,-0.2905,
35.062626,2.8417,0.4105,1.3145,-0.0557,-0.3267,0.1857,
35.104439,2.8417,0.4105,1.3145,-0.0557,-0.3267,0.1857,
35.119956,1.7773,1.3827,-2.2675,-0.0557,-0.3267,0.1857,
35.128010,1.7773,1.3827,-2.2675,-0.3461,0.5334,0.5001,
35.170778,1.7773,1.3827,-2.2675,-0.3461,0.5334,0.5001,
35.186914,-2.6733,1.9447,-1.2028,-0.3461,0.5334,0.5001,
35.193130,-2.6733,1.9447,-1.2028,-1.1544,0.2442,0.5730,
35.235245,-2.6733,1.9447,-1.2028,-1.1544,0.2442,0.5730,
35.251772,2.2964,0.3487,-0.3621,-1.1544,0.2442,0.5730,
35.259667,2.2964,0.3487,-0.3621,-0.8708,1.3375,-0.1510,
35.300004,2.2964,0.3487,-0.3621,-0.8708,1.3375,-0.1510,
35.317139,0.4369,-1.0410,-1.0381,-0.8708,1.3375,-0.1510,
35.324134,0.4369,-1.0410,-1.0381,-0.4890,2.0007,-0.2062,
35.366649,0.4369,-1.0410,-1.0381,-0.4890,2.0007,-0.2062,
35.383413,-1.0829,-1.5210,-0.3543,-0.4890,2.0007,-0.2062,
35.390235,-1.0829,-1.5210,-0.3543,0.0896,1.6478,0.0116,
35.431437,-1.0829,-1.5210,-0.3543,0.0896,1.6478,0.0116,
35.447429,-2.0341,-1.8819,-0.2225,0.0896,1.6478,0.0116,
35.455594,-2.0341,-1.8819,-0.2225,0.3822,1.0595,0.1355,
35.497583,-2.0341,-1.8819,-0.2225,0.3822,1.0595,0.1355,
35.514436,-0.9976,-1.9584,0.3333,0.3822,1.0595,0.1355,
35.520418,-0.9976,-1.9584,0.3333,0.6119,0.7320,0.0611,
35.562504,-0.9976,-1.9584,0.3333,0.6119,0.7320,0.0611,
35.578669,-0.4925,2.4962,1.3751,0.6119,0.7320,0.0611,
35.585895,-0.4925,2.4962,1.3751,0.4470,-0.0973,0.0929,
35.627431,-0.4925,2.4962,1.3751,0.4470,-0.0973,0.0929,
35.643470,0.8122,-0.9916,2.1695,0.4470,-0.0973,0.0929,
35.651665,0.8122,-0.9916,2.1695,-0.1182,0.8506,-0.2260,
35.694737,0.8122,-0.9916,2.1695,-0.1182,0.8506,-0.2260,
35.711167,-0.2771,6.4275,-0.4277,-0.1182,0.8506,-0.2260,
35.717984,-0.2771,6.4275,-0.4277,-0.0559,-0.1553,-0.4035,
35.758394,-0.2771,6.4275,-0.4277,-0.0559,-0.1553,-0.4035,
35.774904,0.5033,-4.1172,-3.1274,-0.0559,-0.1553,-0.4035,
35.782057,0.5033,-4.1172,-3.1274,1.3121,0.8349,-0.3677,
35.825095,0.5033,-4.1172,-3.1274,1.3121,0.8349,-0.3677,
35.842103,-1.8076,1.8115,-2.0414,1.3121,0.8349,-0.3677,
35.847732,-1.8076,1.8115,-2.0414,0.4684,0.1506,-0.0371,
35.889297,-1.8076,1.8115,-2.0414,0.4684,0.1506,-0.0371,
35.907101,0.6397,-0.6744,-1.0229,0.4684,0.1506,-0.0371,
35.915488,0.6397,-0.6744,-1.0229,0.1335,-1.0148,0.5774,
35.954848,0.6397,-0.6744,-1.0229,0.1335,-1.0148,0.5774,
35.972138,1.8523,-1.4653,-0.3274,0.1335,-1.0148,0.5774,
35.979267,1.8523,-1.4653,-0.3274,0.3998,-0.4122,0.3621,
36.020487,1.8523,-1.4653,-0.3274,0.3998,-0.4122,0.3621,
36.036558,0.9188,-0.8694,0.4474,0.3998,-0.4122,0.3621,
36.044663,0.9188,-0.8694,0.4474,0.4253,-0.4876,0.0782,
36.086544,0.9188,-0.8694,0.4474,0.4253,-0.4876,0.0782,
36.103661,1.0263,-0.8288,1.1039,0.4253,-0.4876,0.0782,
36.110638,1.0263,-0.8288,1.1039,0.3257,-0.3677,-0.2523,
36.151029,1.0263,-0.8288,1.1039,0.3257,-0.3677,-0.2523,
36.168973,1.4225,-0.0089,0.9973,0.3257,-0.3677,-0.2523,
36.175252,1.4225,-0.0089,0.9973,0.0921,-0.3545,-0.1361,
36.217027,1.4225,-0.0089,0.9973,0.0921,-0.3545,-0.1361,
36.233920,2.5340,0.5015,0.8933,0.0921,-0.3545,-0.1361,
36.240087,2.5340,0.5015,0.8933,-0.2114,-0.5916,0.3876,
36.283028,2.5340,0.5015,0.8933,-0.2114,-0.5916,0.3876,
36.298972,2.1824,2.3372,-2.6261,-0.2114,-0.5916,0.3876,
36.305895,2.1824,2.3372,-2.6261,-0.5664,0.5319,1.0571,
36.348120,2.1824,2.3372,-2.6261,-0.5664,0.5319,1.0571,
36.366508,-3.3649,1.5317,-0.6139,-0.5664,0.5319,1.0571,
36.371479,-3.3649,1.5317,-0.6139,-1.2146,-0.2532,0.2937,
36.413485,-3.3649,1.5317,-0.6139,-1.2146,-0.2532,0.2937,
36.429911,1.4464,-0.6351,-0.3384,-1.2146,-0.2532,0.2937,
36.438157,1.4464,-0.6351,-0.3384,-0.7792,0.9949,-0.3062,
36.478808,1.4464,-0.6351,-0.3384,-0.7792,0.9949,-0.3062,
36.495651,-0.9802,-1.2146,-0.3988,-0.7792,0.9949,-0.3062,
36.503513,-0.9802,-1.2146,-0.3988,-0.1408,1.6115,-0.1151,
36.544606,-0.9802,-1.2146,-0.3988,-0.1408,1.6115,-0.1151,
36.561370,-1.5817,-0.5261,-0.2856,-0.1408,1.6115,-0.1151,
36.569728,-1.5817,-0.5261,-0.2856,0.1035,1.1083,0.1127,
36.610988,-1.5817,-0.5261,-0.2856,0.1035,1.1083,0.1127,
36.626992,-0.8630,-0.9648,-0.2538,0.1035,1.1083,0.1127,
36.633332,-0.8630,-0.9648,-0.2538,0.1709,1.0324,-0.0296,
36.675776,-0.8630,-0.9648,-0.2538,0.1709,1.0324,-0.0296,
36.691997,-0.2253,-1.3754,0.3464,0.1709,1.0324,-0.0296,
36.700761,-0.2253,-1.3754,0.3464,0.4374,0.5731,0.0967,
36.740818,-0.2253,-1.3754,0.3464,0.4374,0.5731,0.0967,
36.758572,-0.4607,0.1090,1.2577,0.4374,0.5731,0.0967,
36.765413,-0.4607,0.1090,1.2577,0.5680,0.6390,-0.0137,
36.805987,-0.4607,0.1090,1.2577,0.5680,0.6390,-0.0137,
36.823737,0.1295,0.0691,2.9180,0.5680,0.6390,-0.0137,
36.830322,0.1295,0.0691,2.9180,0.4348,0.6910,-0.1516,
36.873023,0.1295,0.0691,2.9180,0.4348,0.6910,-0.1516,
36.888790,1.1479,5.5098,0.2104,0.4348,0.6910,-0.1516,
36.897220,1.1479,5.5098,0.2104,0.0093,0.9594,-0.6532,
36.937505,1.1479,5.5098,0.2104,0.0093,0.9594,-0.6532,
36.953749,-1.5191,-0.5850,-1.1116,0.0093,0.9594,-0.6532,
36.961719,-1.5191,-0.5850,-1.1116,0.2430,-0.5179,-0.1000,
37.003485,-1.5191,-0.5850,-1.1116,0.2430,-0.5179,-0.1000,
37.022087,0.6007,-4.0357,-4.0375,0.2430,-0.5179,-0.1000,
37.026890,0.6007,-4.0357,-4.0375,1.0061,0.2552,-0.0751,
37.067998,0.6007,-4.0357,-4.0375,1.0061,0.2552,-0.0751,
37.085954,-1.0621,1.9412,-0.2908,1.0061,0.2552,-0.0751,
37.091479,-1.0621,1.9412,-0.2908,0.1455,-0.8599,0.1552,
37.132603,-1.0621,1.9412,-0.2908,0.1455,-0.8599,0.1552,
37.149197,1.3829,-1.4649,-1.4097,0.1455,-0.8599,0.1552,
37.156786,1.3829,-1.4649,-1.4097,0.2958,-0.8123,0.4788,
37.198231,1.3829,-1.4649,-1.4097,0.2958,-0.8123,0.4788,
37.215181,0.7183,-0.4921,-0.2909,0.2958,-0.8123,0.4788,
37.222094,0.7183,-0.4921,-0.2909,0.2109,-0.7854,0.2431,
37.264394,0.7183,-0.4921,-0.2909,0.2109,-0.7854,0.2431,
37.280678,1.3997,-1.0459,0.5936,0.2109,-0.7854,0.2431,
37.288775,1.3997,-1.0459,0.5936,0.3147,-0.4942,0.0805,
37.329002,1.3997,-1.0459,0.5936,0.3147,-0.4942,0.0805,
37.346140,1.4282,-0.4205,1.3435,0.3147,-0.4942,0.0805,
37.353028,1.4282,-0.4205,1.3435,0.2005,-0.2714,-0.1723,
37.395854,1.4282,-0.4205,1.3435,0.2005,-0.2714,-0.1723,
37.413665,2.0400,-0.0482,1.2757,0.2005,-0.2714,-0.1723,
37.419670,2.0400,-0.0482,1.2757,0.1461,-0.0861,-0.2100,
37.461341,2.0400,-0.0482,1.2757,0.1461,-0.0861,-0.2100,
37.477541,2.8969,0.3695,0.5186,0.1461,-0.0861,-0.2100,
37.484252,2.8969,0.3695,0.5186,-0.1025,0.4927,0.0849,
37.525997,2.8969,0.3695,0.5186,-0.1025,0.4927,0.0849,
37.542748,1.2438,1.5949,-2.0533,-0.1025,0.4927,0.0849,
37.549299,1.2438,1.5949,-2.0533,-0.7665,0.7785,0.7572,
37.591495,1.2438,1.5949,-2.0533,-0.7665,0.7785,0.7572,
37.608262,-1.2163,-0.8340,-1.5100,-0.7665,0.7785,0.7572,
37.615945,-1.2163,-0.8340,-1.5100,-0.3745,1.3832,-0.0006,
37.656842,-1.2163,-0.8340,-1.5100,-0.3745,1.3832,-0.0006,
37.674395,1.4028,0.2689,-0.4239,-0.3745,1.3832,-0.0006,
37.680734,1.4028,0.2689,-0.4239,-0.3932,1.6840,-0.1880,
37.722461,1.4028,0.2689,-0.4239,-0.3932,1.6840,-0.1880,
37.738490,-0.4695,-1.4126,-0.8690,-0.3932,1.6840,-0.1880,
37.745891,-0.4695,-1.4126,-0.8690,-0.0791,2.0624,0.0857,
37.787952,-0.4695,-1.4126,-0.8690,-0.0791,2.0624,0.0857,
37.804708,0.1834,-1.0410,-0.3540,-0.0791,2.0624,0.0857,
37.812574,0.1834,-1.0410,-0.3540,0.3129,2.0837,-0.0078,
37.853654,0.1834,-1.0410,-0.3540,0.3129,2.0837,-0.0078,
37.870090,-0.9471,-1.3935,-0.2973,0.3129,2.0837,-0.0078,
37.878238,-0.9471,-1.3935,-0.2973,0.3299,1.5082,0.0965,
37.919859,-0.9471,-1.3935,-0.2973,0.3299,1.5082,0.0965,
37.937375,-0.8593,0.3584,0.7622,0.3299,1.5082,0.0965,
37.943409,-0.8593,0.3584,0.7622,0.4788,0.8879,0.0315,
37.984453,-0.8593,0.3584,0.7622,0.4788,0.8879,0.0315,
38.001392,-0.0572,-0.3494,2.4928,0.4788,0.8879,0.0315,
38.009376,-0.0572,-0.3494,2.4928,0.2810,0.8436,-0.1390,
38.049440,-0.0572,-0.3494,2.4928,0.2810,0.8436,-0.1390,
38.066787,2.7608,9.0958,0.1888,0.2810,0.8436,-0.1390,
38.073756,2.7608,9.0958,0.1888,-0.0464,0.1924,-0.4053,
38.115705,2.7608,9.0958,0.1888,-0.0464,0.1924,-0.4053,
38.134827,-0.5285,-5.4435,-2.5241,-0.0464,0.1924,-0.4053,
38.139394,-0.5285,-5.4435,-2.5241,0.6151,0.7138,0.0160,
38.181440,-0.5285,-5.4435,-2.5241,0.6151,0.7138,0.0160,
38.197711,-0.6001,1.0371,-3.4434,0.6151,0.7138,0.0160,
38.204517,-0.6001,1.0371,-3.4434,0.7567,1.1049,-0.2390,
38.245939,-0.6001,1.0371,-3.4434,0.7567,1.1049,-0.2390,
38.262654,-0.3338,-0.2870,-0.8470,0.7567,1.1049,-0.2390,
38.270465,-0.3338,-0.2870,-0.8470,0.3198,-0.5012,0.4988,
38.312073,-0.3338,-0.2870,-0.8470,0.3198,-0.5012,0.4988,
38.328270,0.9614,-0.7445,-0.7557,0.3198,-0.5012,0.4988,
38.335213,0.9614,-0.7445,-0.7557,0.2534,-0.5577,0.5559,
38.377240,0.9614,-0.7445,-0.7557,0.2534,-0.5577,0.5559,
38.394145,0.2011,-0.7767,0.2082,0.2534,-0.5577,0.5559,
38.401314,0.2011,-0.7767,0.2082,0.2254,-0.6242,0.3662,
38.442971,0.2011,-0.7767,0.2082,0.2254,-0.6242,0.3662,
38.459762,0.3407,-1.1162,0.5819,0.2254,-0.6242,0.3662,
38.472021,0.3407,-1.1162,0.5819,0.1964,-0.7092,-0.0121,
38.508349,0.3407,-1.1162,0.5819,0.1964,-0.7092,-0.0121,
38.525515,1.1054,-0.5085,0.4797,0.1964,-0.7092,-0.0121,
38.533020,1.1054,-0.5085,0.4797,0.2329,-0.7020,-0.3027,
38.573414,1.1054,-0.5085,0.4797,0.2329,-0.7020,-0.3027,
38.590062,2.9461,0.6886,0.3853,0.2329,-0.7020,-0.3027,
38.598486,2.9461,0.6886,0.3853,0.1379,-0.7107,-0.2227,
38.639574,2.9461,0.6886,0.3853,0.1379,-0.7107,-0.2227,
38.656084,3.8965,1.8483,1.7756,0.1379,-0.7107,-0.2227,
38.662636,3.8965,1.8483,1.7756,-0.2793,-0.8390,0.0979,
38.704838,3.8965,1.8483,1.7756,-0.2793,-0.8390,0.0979,
38.721757,2.5074,0.9121,-1.2569,-0.2793,-0.8390,0.0979,
38.729279,2.5074,0.9121,-1.2569,-0.3971,0.3755,0.4090,
38.770406,2.5074,0.9121,-1.2569,-0.3971,0.3755,0.4090,
38.786188,-3.9219,-1.0399,-0.3776,-0.3971,0.3755,0.4090,
38.794700,-3.9219,-1.0399,-0.3776,-0.8186,-0.0189,0.0044,
38.835948,-3.9219,-1.0399,-0.3776,-0.8186,-0.0189,0.0044,
38.854011,1.6902,0.4619,-0.1179,-0.8186,-0.0189,0.0044,
38.859604,1.6902,0.4619,-0.1179,-0.6689,0.8331,-0.1190,
38.900801,1.6902,0.4619,-0.1179,-0.6689,0.8331,-0.1190,
38.917623,-0.8099,-0.9751,-0.2047,-0.6689,0.8331,-0.1190,
38.925930,-0.8099,-0.9751,-0.2047,-0.5102,1.4520,-0.0217,
38.966965,-0.8099,-0.9751,-0.2047,-0.5102,1.4520,-0.0217,
38.984145,-1.7489,-0.6438,-0.3941,-0.5102,1.4520,-0.0217,
38.992014,-1.7489,-0.6438,-0.3941,-0.1463,1.0719,0.1987,
39.033899,-1.7489,-0.6438,-0.3941,-0.1463,1.0719,0.1987,
39.050009,-1.4939,-1.5796,-0.0285,-0.1463,1.0719,0.1987,
39.056542,-1.4939,-1.5796,-0.0285,0.0493,0.9525,0.0843,
39.097111,-1.4939,-1.5796,-0.0285,0.0493,0.9525,0.0843,
39.114945,-0.7647,-1.3805,0.6937,0.0493,0.9525,0.0843,
39.121702,-0.7647,-1.3805,0.6937,0.4875,0.4907,0.0660,
39.163602,-0.7647,-1.3805,0.6937,0.4875,0.4907,0.0660,
39.180727,1.2231,1.0262,2.3543,0.4875,0.4907,0.0660,
39.187174,1.2231,1.0262,2.3543,0.4168,0.7370,-0.0576,
39.229202,1.2231,1.0262,2.3543,0.4168,0.7370,-0.0576,
39.245530,1.5555,-0.4301,1.2832,0.4168,0.7370,-0.0576,
39.253663,1.5555,-0.4301,1.2832,0.3783,1.4368,0.3337,
39.294024,1.5555,-0.4301,1.2832,0.3783,1.4368,0.3337,
39.311645,-2.2912,3.6983,-2.9996,0.3783,1.4368,0.3337,
39.318054,-2.2912,3.6983,-2.9996,0.0841,0.9442,-0.2644,
39.360178,-2.2912,3.6983,-2.9996,0.0841,0.9442,-0.2644,
39.377713,-1.4786,-4.0756,-3.7331,0.0841,0.9442,-0.2644,
39.384426,-1.4786,-4.0756,-3.7331,1.0989,1.0944,-0.0945,
39.425399,-1.4786,-4.0756,-3.7331,1.0989,1.0944,-0.0945,
39.442147,-2.7430,2.0856,-1.1304,1.0989,1.0944,-0.0945,
39.450166,-2.7430,2.0856,-1.1304,0.0965,-1.1498,0.4462,
39.490437,-2.7430,2.0856,-1.1304,0.0965,-1.1498,0.4462,
39.508037,0.3936,-1.3078,-0.8066,0.0965,-1.1498,0.4462,
39.514702,0.3936,-1.3078,-0.8066,-0.0579,-1.7323,0.5078,
39.556995,0.3936,-1.3078,-0.8066,-0.0579,-1.7323,0.5078,
39.573769,1.2981,-1.1076,1.0009,-0.0579,-1.7323,0.5078,
39.580555,1.2981,-1.1076,1.0009,-0.0742,-1.3138,0.1817,
39.621514,1.2981,-1.1076,1.0009,-0.0742,-1.3138,0.1817,
39.639973,0.9819,-1.3097,1.5302,-0.0742,-1.3138,0.1817,
39.645686,0.9819,-1.3097,1.5302,0.0965,-0.7964,-0.2454,
39.687903,0.9819,-1.3097,1.5302,0.0965,-0.7964,-0.2454,
39.705303,0.6738,-1.0734,0.1208,0.0965,-0.7964,-0.2454,
39.710791,0.6738,-1.0734,0.1208,0.2815,-0.7385,-0.1216,
39.753939,0.6738,-1.0734,0.1208,0.2815,-0.7385,-0.1216,
39.770177,0.1511,1.4554,1.1563,0.2815,-0.7385,-0.1216,
39.777699,0.1511,1.4554,1.1563,-0.0660,-1.4355,0.3899,
39.817629,0.1511,1.4554,1.1563,-0.0660,-1.4355,0.3899,
39.834947,3.1767,3.5793,-1.7768,-0.0660,-1.4355,0.3899,
39.843170,3.1767,3.5793,-1.7768,-0.5528,-1.0227,0.9287,
39.884658,3.1767,3.5793,-1.7768,-0.5528,-1.0227,0.9287,
39.900498,-1.7559,-0.5238,-1.1219,-0.5528,-1.0227,0.9287,
39.907070,-1.7559,-0.5238,-1.1219,-1.6564,-0.7868,0.1388,
39.948551,-1.7559,-0.5238,-1.1219,-1.6564,-0.7868,0.1388,
39.965671,0.4420,0.8544,0.3751,-1.6564,-0.7868,0.1388,
39.973216,0.4420,0.8544,0.3751,-0.9568,0.1469,-0.3995,
40.014846,0.4420,0.8544,0.3751,-0.9568,0.1469,-0.3995,
40.031507,-0.2814,-0.3056,0.4507,-0.9568,0.1469,-0.3995,
40.038929,-0.2814,-0.3056,0.4507,-1.0957,0.6471,-0.3089,
40.080104,-0.2814,-0.3056,0.4507,-1.0957,0.6471,-0.3089,
40.096261,-2.6436,-2.1744,0.2216,-1.0957,0.6471,-0.3089,
40.103447,-2.6436,-2.1744,0.2216,-0.4475,0.0693,0.0345,
40.144935,-2.6436,-2.1744,0.2216,-0.4475,0.0693,0.0345,
40.162398,-1.2389,-1.6480,0.8360,-0.4475,0.0693,0.0345,
40.170035,-1.2389,-1.6480,0.8360,0.2337,0.1141,-0.2636,
40.210962,-1.2389,-1.6480,0.8360,0.2337,0.1141,-0.2636,
40.228796,-1.0837,-1.3798,1.5086,0.2337,0.1141,-0.2636,
40.235396,-1.0837,-1.3798,1.5086,0.6550,-0.0047,-0.2173,
40.278441,-1.0837,-1.3798,1.5086,0.6550,-0.0047,-0.2173,
40.293756,0.0801,2.2023,2.7694,0.6550,-0.0047,-0.2173,
40.300254,0.0801,2.2023,2.7694,0.7254,0.3403,-0.2126,
40.342945,0.0801,2.2023,2.7694,0.7254,0.3403,-0.2126,
40.360247,0.2596,3.1532,2.0930,0.7254,0.3403,-0.2126,
40.368030,0.2596,3.1532,2.0930,-0.4672,0.8683,-0.3241,
40.407536,0.2596,3.1532,2.0930,-0.4672,0.8683,-0.3241,
40.426613,-2.4445,0.9739,-1.5918,-0.4672,0.8683,-0.3241,
40.432994,-2.4445,0.9739,-1.5918,-0.3609,-0.9887,0.0699,
40.474313,-2.4445,0.9739,-1.5918,-0.3609,-0.9887,0.0699,
40.490884,-0.1952,-4.5575,-3.6912,-0.3609,-0.9887,0.0699,
40.496182,-0.1952,-4.5575,-3.6912,0.8209,-0.0666,-0.1445,
40.537757,-0.1952,-4.5575,-3.6912,0.8209,-0.0666,-0.1445,
40.554948,-0.8468,0.7503,-0.8878,0.8209,-0.0666,-0.1445,
40.562571,-0.8468,0.7503,-0.8878,0.2498,-1.0997,0.1452,
40.603939,-0.8468,0.7503,-0.8878,0.2498,-1.0997,0.1452,
40.620817,0.6326,-0.7179,-0.4919,0.2498,-1.0997,0.1452,
40.627831,0.6326,-0.7179,-0.4919,0.5380,-1.4009,0.4823,
40.669201,0.6326,-0.7179,-0.4919,0.5380,-1.4009,0.4823,
40.687163,0.8476,-0.7961,0.1566,0.5380,-1.4009,0.4823,
40.693924,0.8476,-0.7961,0.1566,0.3308,-1.2314,0.2311,
40.736292,0.8476,-0.7961,0.1566,0.3308,-1.2314,0.2311,
40.751960,0.9478,-0.8584,0.9249,0.3308,-1.2314,0.2311,
40.758622,0.9478,-0.8584,0.9249,0.2650,-1.0825,-0.0487,
40.801357,0.9478,-0.8584,0.9249,0.2650,-1.0825,-0.0487,
40.816370,1.7439,-0.7288,0.7982,0.2650,-1.0825,-0.0487,
40.825582,1.7439,-0.7288,0.7982,0.2421,-0.5592,-0.3476,
40.866560,1.7439,-0.7288,0.7982,0.2421,-0.5592,-0.3476,
40.882598,3.0308,0.6005,0.2715,0.2421,-0.5592,-0.3476,
40.889306,3.0308,0.6005,0.2715,0.2324,-0.0901,-0.2056,
40.931385,3.0308,0.6005,0.2715,0.2324,-0.0901,-0.2056,
40.947771,1.9189,1.1744,1.9368,0.2324,-0.0901,-0.2056,
40.955200,1.9189,1.1744,1.9368,-0.0473,-0.5644,0.3822,
40.995956,1.9189,1.1744,1.9368,-0.0473,-0.5644,0.3822,
41.013008,2.0864,1.2496,-2.4307,-0.0473,-0.5644,0.3822,
41.020003,2.0864,1.2496,-2.4307,-0.2337,0.9627,0.7614,
41.061927,2.0864,1.2496,-2.4307,-0.2337,0.9627,0.7614,
41.079417,-5.1693,1.7514,-0.1602,-0.2337,0.9627,0.7614,
41.087631,-5.1693,1.7514,-0.1602,-1.0942,-0.5235,0.3093,
41.127682,-5.1693,1.7514,-0.1602,-1.0942,-0.5235,0.3093,
41.144481,2.7351,-0.4146,-0.3701,-1.0942,-0.5235,0.3093,
41.151779,2.7351,-0.4146,-0.3701,-0.5982,1.2901,-0.1672,
41.193333,2.7351,-0.4146,-0.3701,-0.5982,1.2901,-0.1672,
41.209389,-0.6131,-1.6461,-0.2675,-0.5982,1.2901,-0.1672,
41.217411,-0.6131,-1.6461,-0.2675,-0.3274,1.8986,-0.1286,
41.258207,-0.6131,-1.6461,-0.2675,-0.3274,1.8986,-0.1286,
41.275401,-0.6696,-1.2875,0.2128,-0.3274,1.8986,-0.1286,
41.283080,-0.6696,-1.2875,0.2128,0.2028,1.5711,0.0715,
41.325057,-0.6696,-1.2875,0.2128,0.2028,1.5711,0.0715,
41.341829,-0.5998,-1.9742,0.3488,0.2028,1.5711,0.0715,
41.350710,-0.5998,-1.9742,0.3488,0.5395,1.4809,0.1300,
41.390095,-0.5998,-1.9742,0.3488,0.5395,1.4809,0.1300,
41.406833,-0.6815,0.2264,0.7317,0.5395,1.4809,0.1300,
41.413428,-0.6815,0.2264,0.7317,0.5418,1.1860,0.0652,
41.455306,-0.6815,0.2264,0.7317,0.5418,1.1860,0.0652,
41.472557,-1.8567,0.8141,1.3700,0.5418,1.1860,0.0652,
41.479609,-1.8567,0.8141,1.3700,-0.2860,1.0397,-0.3073,
41.521115,-1.8567,0.8141,1.3700,-0.2860,1.0397,-0.3073,
41.537002,1.1575,7.8576,-0.7581,-0.2860,1.0397,-0.3073,
41.544526,1.1575,7.8576,-0.7581,-0.4673,0.9149,-0.9595,
41.585782,1.1575,7.8576,-0.7581,-0.4673,0.9149,-0.9595,
41.602512,1.3100,-4.8319,-1.3286,-0.4673,0.9149,-0.9595,
41.609765,1.3100,-4.8319,-1.3286,0.6555,0.2392,0.7537,
41.651752,1.3100,-4.8319,-1.3286,0.6555,0.2392,0.7537,
41.670055,0.2916,0.5857,-3.5856,0.6555,0.2392,0.7537,
41.674970,0.2916,0.5857,-3.5856,1.2008,1.1661,-0.3838,
41.717088,0.2916,0.5857,-3.5856,1.2008,1.1661,-0.3838,
41.733344,-0.5113,-0.2284,-0.6595,1.2008,1.1661,-0.3838,
41.740717,-0.5113,-0.2284,-0.6595,0.5357,-0.2798,0.4145,
41.783102,-0.5113,-0.2284,-0.6595,0.5357,-0.2798,0.4145,
41.798605,2.2442,-1.6297,-0.8107,0.5357,-0.2798,0.4145,
41.806704,2.2442,-1.6297,-0.8107,0.5056,-0.3876,0.2359,
41.848121,2.2442,-1.6297,-0.8107,0.5056,-0.3876,0.2359,
41.864466,1.1570,-0.7375,0.3805,0.5056,-0.3876,0.2359,
41.872755,1.1570,-0.7375,0.3805,0.5695,-0.4371,-0.1173,
41.914478,1.1570,-0.7375,0.3805,0.5695,-0.4371,-0.1173,
41.931162,1.6429,-0.9751,1.2351,0.5695,-0.4371,-0.1173,
41.938352,1.6429,-0.9751,1.2351,0.3906,-0.4963,-0.3490,
41.979592,1.6429,-0.9751,1.2351,0.3906,-0.4963,-0.3490,
41.996127,1.8359,-0.1780,0.7807,0.3906,-0.4963,-0.3490,
42.004518,1.8359,-0.1780,0.7807,0.2266,-0.3642,-0.2813,
42.045980,1.8359,-0.1780,0.7807,0.2266,-0.3642,-0.2813,
42.060814,3.1249,2.8272,-1.0680,0.2266,-0.3642,-0.2813,
42.070411,3.1249,2.8272,-1.0680,0.1104,0.4858,0.8118,
42.110726,3.1249,2.8272,-1.0680,0.1104,0.4858,0.8118,
42.127196,-0.1283,1.4408,-0.9161,0.1104,0.4858,0.8118,
42.135050,-0.1283,1.4408,-0.9161,-0.8488,0.2468,0.6263,
42.176432,-0.1283,1.4408,-0.9161,-0.8488,0.2468,0.6263,
42.191714,1.4646,-0.4213,-0.6938,-0.8488,0.2468,0.6263,
42.199283,1.4646,-0.4213,-0.6938,-0.4238,2.1316,-0.6083,
42.240564,1.4646,-0.4213,-0.6938,-0.4238,2.1316,-0.6083,
42.256896,0.5678,-1.3830,-1.1046,-0.4238,2.1316,-0.6083,
42.264472,0.5678,-1.3830,-1.1046,-0.2271,2.3720,-0.1588,
42.306908,0.5678,-1.3830,-1.1046,-0.2271,2.3720,-0.1588,
42.322938,0.7397,-0.7254,-0.0837,-0.2271,2.3720,-0.1588,
42.330075,0.7397,-0.7254,-0.0837,0.1556,1.5304,0.4896,
42.370682,0.7397,-0.7254,-0.0837,0.1556,1.5304,0.4896,
42.388146,0.4688,-1.8374,-0.3274,0.1556,1.5304,0.4896,
42.396017,0.4688,-1.8374,-0.3274,0.5307,2.2639,0.0890,
42.436783,0.4688,-1.8374,-0.3274,0.5307,2.2639,0.0890,
42.453059,-0.9843,-1.7991,-0.4376,0.5307,2.2639,0.0890,
42.460874,-0.9843,-1.7991,-0.4376,0.9475,2.1921,-0.0739,
42.502967,-0.9843,-1.7991,-0.4376,0.9475,2.1921,-0.0739,
42.520730,-1.9824,1.8620,0.4818,0.9475,2.1921,-0.0739,
42.526348,-1.9824,1.8620,0.4818,0.2117,1.2973,0.0680,
42.567603,-1.9824,1.8620,0.4818,0.2117,1.2973,0.0680,
42.585735,0.4051,-0.6573,1.9494,0.2117,1.2973,0.0680,
42.592369,0.4051,-0.6573,1.9494,0.1545,0.9801,0.0162,
42.632625,0.4051,-0.6573,1.9494,0.1545,0.9801,0.0162,
42.653178,1.4612,5.2344,-2.2554,0.1545,0.9801,0.0162,
42.658043,1.4612,5.2344,-2.2554,0.4238,0.6805,-0.6634,
42.700079,1.4612,5.2344,-2.2554,0.4238,0.6805,-0.6634,
42.717281,-0.6925,-6.0617,-3.0235,0.4238,0.6805,-0.6634,
42.724237,-0.6925,-6.0617,-3.0235,1.0249,0.8922,0.0947,
42.765256,-0.6925,-6.0617,-3.0235,1.0249,0.8922,0.0947,
42.781330,-0.7781,3.1615,-1.7645,1.0249,0.8922,0.0947,
42.789140,-0.7781,3.1615,-1.7645,0.6920,0.8604,-0.2080,
42.829830,-0.7781,3.1615,-1.7645,0.6920,0.8604,-0.2080,
42.847776,0.9254,-1.0856,-0.8364,0.6920,0.8604,-0.2080,
42.853838,0.9254,-1.0856,-0.8364,0.0531,-0.1400,0.5753,
42.897205,0.9254,-1.0856,-0.8364,0.0531,-0.1400,0.5753,
42.912639,1.2040,-0.8421,-0.8784,0.0531,-0.1400,0.5753,
42.920237,1.2040,-0.8421,-0.8784,0.4824,-0.1701,0.3523,
42.960966,1.2040,-0.8421,-0.8784,0.4824,-0.1701,0.3523,
42.977764,0.8659,-0.5760,0.0510,0.4824,-0.1701,0.3523,
42.985469,0.8659,-0.5760,0.0510,0.3407,-0.2714,0.0055,
43.027288,0.8659,-0.5760,0.0510,0.3407,-0.2714,0.0055,
43.043611,1.1922,-0.9228,0.9053,0.3407,-0.2714,0.0055,
43.051056,1.1922,-0.9228,0.9053,0.2998,-0.1831,-0.2236,
43.092568,1.1922,-0.9228,0.9053,0.2998,-0.1831,-0.2236,
43.108912,1.2059,-0.4205,0.6883,0.2998,-0.1831,-0.2236,
43.115643,1.2059,-0.4205,0.6883,0.1979,-0.0822,-0.2590,
43.158942,1.2059,-0.4205,0.6883,0.1979,-0.0822,-0.2590,
43.173998,1.6374,0.3296,1.4712,0.1979,-0.0822,-0.2590,
43.181409,1.6374,0.3296,1.4712,-0.3172,-0.2782,-0.0235,
43.223177,1.6374,0.3296,1.4712,-0.3172,-0.2782,-0.0235,
43.240079,3.0468,2.6485,-1.2060,-0.3172,-0.2782,-0.0235,
43.247178,3.0468,2.6485,-1.2060,-0.2198,0.6648,1.2246,
43.288586,3.0468,2.6485,-1.2060,-0.2198,0.6648,1.2246,
43.304634,-2.4196,-0.3009,-1.9030,-0.2198,0.6648,1.2246,
43.313597,-2.4196,-0.3009,-1.9030,-1.3216,-0.1058,0.2937,
43.353031,-2.4196,-0.3009,-1.9030,-1.3216,-0.1058,0.2937,
43.371307,1.3827,0.8189,-0.1532,-1.3216,-0.1058,0.2937,
43.378783,1.3827,0.8189,-0.1532,-0.3285,1.3030,-0.1364,
43.420861,1.3827,0.8189,-0.1532,-0.3285,1.3030,-0.1364,
43.436571,0.4592,-1.2097,-0.4296,-0.3285,1.3030,-0.1364,
43.444225,0.4592,-1.2097,-0.4296,-0.1949,1.7434,-0.2259,
43.485224,0.4592,-1.2097,-0.4296,-0.1949,1.7434,-0.2259,
43.502507,-0.2412,-0.4089,-0.1728,-0.1949,1.7434,-0.2259,
43.509476,-0.2412,-0.4089,-0.1728,0.4285,1.7484,-0.0047,
43.551055,-0.2412,-0.4089,-0.1728,0.4285,1.7484,-0.0047,
43.568093,-0.4293,-1.1700,0.5495,0.4285,1.7484,-0.0047,
43.575139,-0.4293,-1.1700,0.5495,0.5486,1.7138,-0.1394,
43.616431,-0.4293,-1.1700,0.5495,0.5486,1.7138,-0.1394,
43.631870,-0.9402,-1.5989,0.5378,0.5486,1.7138,-0.1394,
43.640041,-0.9402,-1.5989,0.5378,0.7031,1.3497,-0.1683,
43.681093,-0.9402,-1.5989,0.5378,0.7031,1.3497,-0.1683,
43.697781,-1.3674,1.4892,1.9771,0.7031,1.3497,-0.1683,
43.705231,-1.3674,1.4892,1.9771,0.1092,0.7208,0.0058,
43.746918,-1.3674,1.4892,1.9771,0.1092,0.7208,0.0058,
43.763852,0.5715,6.7308,-0.2524,0.1092,0.7208,0.0058,
43.770987,0.5715,6.7308,-0.2524,-0.4288,0.7277,-1.0577,
43.813019,0.5715,6.7308,-0.2524,-0.4288,0.7277,-1.0577,
43.830145,0.2904,-3.9308,-2.1586,-0.4288,0.7277,-1.0577,
43.838168,0.2904,-3.9308,-2.1586,0.6553,-0.3430,0.2413,
43.877695,0.2904,-3.9308,-2.1586,0.6553,-0.3430,0.2413,
43.894865,-0.8014,-0.6647,-2.4429,0.6553,-0.3430,0.2413,
43.902734,-0.8014,-0.6647,-2.4429,0.9610,0.4519,-0.2825,
43.944045,-0.8014,-0.6647,-2.4429,0.9610,0.4519,-0.2825,
43.960335,1.0500,0.0134,-0.4300,0.9610,0.4519,-0.2825,
43.967234,1.0500,0.0134,-0.4300,0.2291,-0.7918,0.3816,
44.009125,1.0500,0.0134,-0.4300,0.2291,-0.7918,0.3816,
44.025630,2.5478,-1.8239,-0.2219,0.2291,-0.7918,0.3816,
44.033230,2.5478,-1.8239,-0.2219,0.4032,0.0157,0.5734,
44.075292,2.5478,-1.8239,-0.2219,0.4032,0.0157,0.5734,
44.092635,0.4610,-0.7708,0.0905,0.4032,0.0157,0.5734,
44.098765,0.4610,-0.7708,0.0905,0.5345,-0.1023,0.2979,
44.141809,0.4610,-0.7708,0.0905,0.5345,-0.1023,0.2979,
44.157493,1.4038,-0.2051,0.8980,0.5345,-0.1023,0.2979,
44.164923,1.4038,-0.2051,0.8980,0.5328,-0.3270,-0.1045,
44.204785,1.4038,-0.2051,0.8980,0.5328,-0.3270,-0.1045,
44.221992,2.8124,0.9433,1.7201,0.5328,-0.3270,-0.1045,
44.229202,2.8124,0.9433,1.7201,0.2844,-0.1701,-0.3206,
44.271126,2.8124,0.9433,1.7201,0.2844,-0.1701,-0.3206,
44.289074,2.6980,0.6827,0.9848,0.2844,-0.1701,-0.3206,
44.294912,2.6980,0.6827,0.9848,0.0150,0.1150,0.1165,
44.336395,2.6980,0.6827,0.9848,0.0150,0.1150,0.1165,
44.353944,-1.4873,1.3450,-3.2844,0.0150,0.1150,0.1165,
44.360299,-1.4873,1.3450,-3.2844,-0.8899,0.4618,0.9752,
44.401748,-1.4873,1.3450,-3.2844,-0.8899,0.4618,0.9752,
44.418872,-4.1933,2.3743,-0.9775,-0.8899,0.4618,0.9752,
44.426553,-4.1933,2.3743,-0.9775,-1.3978,-0.7834,0.4934,
44.466336,-4.1933,2.3743,-0.9775,-1.3978,-0.7834,0.4934,
44.483686,1.9301,-1.3644,-0.7305,-1.3978,-0.7834,0.4934,
44.491031,1.9301,-1.3644,-0.7305,-0.9597,1.2295,-0.4160,
44.533110,1.9301,-1.3644,-0.7305,-0.9597,1.2295,-0.4160,
44.549840,-1.4993,-0.6273,0.0459,-0.9597,1.2295,-0.4160,
44.556993,-1.4993,-0.6273,0.0459,-0.5174,1.2530,-0.0535,
44.597367,-1.4993,-0.6273,0.0459,-0.5174,1.2530,-0.0535,
44.614550,-1.6374,-2.4657,0.2963,-0.5174,1.2530,-0.0535,
44.621679,-1.6374,-2.4657,0.2963,-0.0927,0.4696,0.2514,
44.663330,-1.6374,-2.4657,0.2963,-0.0927,0.4696,0.2514,
44.680637,-0.9944,-3.2077,0.5111,-0.0927,0.4696,0.2514,
44.688959,-0.9944,-3.2077,0.5111,0.7191,0.8037,-0.0651,
44.728128,-0.9944,-3.2077,0.5111,0.7191,0.8037,-0.0651,
44.745550,-0.1485,1.0612,1.1869,0.7191,0.8037,-0.0651,
44.752864,-0.1485,1.0612,1.1869,0.8770,0.5678,-0.0339,
44.794917,-0.1485,1.0612,1.1869,0.8770,0.5678,-0.0339,
44.811790,0.4204,1.6019,2.4766,0.8770,0.5678,-0.0339,
44.819023,0.4204,1.6019,2.4766,-0.3079,0.9169,-0.0363,
44.859726,0.4204,1.6019,2.4766,-0.3079,0.9169,-0.0363,
44.876160,-3.8144,6.4906,-1.3855,-0.3079,0.9169,-0.0363,
44.883828,-3.8144,6.4906,-1.3855,-0.3096,-0.3935,-0.8349,
44.925782,-3.8144,6.4906,-1.3855,-0.3096,-0.3935,-0.8349,
44.941658,1.2878,-6.3606,-3.5465,-0.3096,-0.3935,-0.8349,
44.949073,1.2878,-6.3606,-3.5465,0.8170,0.1307,0.5657,
44.991066,1.2878,-6.3606,-3.5465,0.8170,0.1307,0.5657,
45.009048,-2.9042,3.4387,-0.6579,0.8170,0.1307,0.5657,
45.015576,-2.9042,3.4387,-0.6579,0.8916,0.2413,-0.2332,
45.057046,-2.9042,3.4387,-0.6579,0.8916,0.2413,-0.2332,
45.072366,-1.4201,-1.3318,-1.8297,0.8916,0.2413,-0.2332,
45.080064,-1.4201,-1.3318,-1.8297,0.3235,-1.2368,0.4210,
45.121100,-1.4201,-1.3318,-1.8297,0.3235,-1.2368,0.4210,
45.139310,0.3417,-0.2062,-0.9849,0.3235,-1.2368,0.4210,
45.146920,0.3417,-0.2062,-0.9849,0.2680,-1.2958,0.2066,
45.186571,0.3417,-0.2062,-0.9849,0.2680,-1.2958,0.2066,
45.204052,0.8990,-0.8765,-0.0405,0.2680,-1.2958,0.2066,
45.215092,0.8990,-0.8765,-0.0405,0.1235,-1.3680,0.0782,
45.252685,0.8990,-0.8765,-0.0405,0.1235,-1.3680,0.0782,
45.270430,1.3963,-0.4111,1.1503,0.1235,-1.3680,0.0782,
45.277991,1.3963,-0.4111,1.1503,0.1712,-0.9229,-0.2808,
45.318477,1.3963,-0.4111,1.1503,0.1712,-0.9229,-0.2808,
45.337652,2.2186,-0.2458,1.1323,0.1712,-0.9229,-0.2808,
45.342898,2.2186,-0.2458,1.1323,0.3639,-0.2894,-0.2027,
45.383728,2.2186,-0.2458,1.1323,0.3639,-0.2894,-0.2027,
45.399917,0.7538,1.2405,2.1163,0.3639,-0.2894,-0.2027,
45.407808,0.7538,1.2405,2.1163,0.0524,-0.5223,0.2376,
45.451574,0.7538,1.2405,2.1163,0.0524,-0.5223,0.2376,
45.468193,1.5837,2.3686,-1.7114,0.0524,-0.5223,0.2376,
45.474083,1.5837,2.3686,-1.7114,-0.2983,0.1060,1.0437,
45.515014,1.5837,2.3686,-1.7114,-0.2983,0.1060,1.0437,
45.533116,-2.9669,0.5509,-1.3639,-0.2983,0.1060,1.0437,
45.538769,-2.9669,0.5509,-1.3639,-1.4032,-0.2566,0.2981,
45.580728,-2.9669,0.5509,-1.3639,-1.4032,-0.2566,0.2981,
45.597343,3.2464,1.1973,0.1510,-1.4032,-0.2566,0.2981,
45.604017,3.2464,1.1973,0.1510,-0.8515,1.2572,-0.2257,
45.646756,3.2464,1.1973,0.1510,-0.8515,1.2572,-0.2257,
45.662839,-1.6635,-0.9902,-0.5661,-0.8515,1.2572,-0.2257,
45.670009,-1.6635,-0.9902,-0.5661,-0.7228,1.6281,-0.2147,
45.711089,-1.6635,-0.9902,-0.5661,-0.7228,1.6281,-0.2147,
45.728027,-1.1938,-2.2888,-0.2792,-0.7228,1.6281,-0.2147,
45.736692,-1.1938,-2.2888,-0.2792,-0.0557,1.3303,-0.1289,
45.777021,-1.1938,-2.2888,-0.2792,-0.0557,1.3303,-0.1289,
45.796225,-1.3093,-2.5597,0.1442,-0.0557,1.3303,-0.1289,
45.800958,-1.3093,-2.5597,0.1442,0.3809,0.9687,-0.0041,
45.842084,-1.3093,-2.5597,0.1442,0.3809,0.9687,-0.0041,
45.858951,-0.9544,0.0928,0.8859,0.3809,0.9687,-0.0041,
45.866050,-0.9544,0.0928,0.8859,0.6651,0.9424,0.0087,
45.909151,-0.9544,0.0928,0.8859,0.6651,0.9424,0.0087,
45.924917,-0.0225,2.1459,3.1235,0.6651,0.9424,0.0087,
45.932124,-0.0225,2.1459,3.1235,-0.3703,0.8373,0.0163,
45.974789,-0.0225,2.1459,3.1235,-0.3703,0.8373,0.0163,
45.990905,-0.7709,6.8020,-0.0341,-0.3703,0.8373,0.0163,
45.998642,-0.7709,6.8020,-0.0341,-0.5359,-0.1640,-0.8063,
46.038943,-0.7709,6.8020,-0.0341,-0.5359,-0.1640,-0.8063,
46.055312,1.1149,-4.5722,-2.8676,-0.5359,-0.1640,-0.8063,
46.063190,1.1149,-4.5722,-2.8676,0.6655,-0.1434,0.4133,
46.103684,1.1149,-4.5722,-2.8676,0.6655,-0.1434,0.4133,
46.120635,-2.0529,2.1374,-1.6612,0.6655,-0.1434,0.4133,
46.127356,-2.0529,2.1374,-1.6612,0.5858,-0.2202,-0.1965,
46.169556,-2.0529,2.1374,-1.6612,0.5858,-0.2202,-0.1965,
46.186656,-0.6017,-1.4853,-2.0291,0.5858,-0.2202,-0.1965,
46.193648,-0.6017,-1.4853,-2.0291,0.4995,-1.3665,0.3291,
46.235242,-0.6017,-1.4853,-2.0291,0.4995,-1.3665,0.3291,
46.251971,0.8890,-1.3527,-1.0980,0.4995,-1.3665,0.3291,
46.260186,0.8890,-1.3527,-1.0980,0.3419,-1.4591,0.1136,
46.303822,0.8890,-1.3527,-1.0980,0.3419,-1.4591,0.1136,
46.318944,1.4666,-0.7056,0.0984,0.3419,-1.4591,0.1136,
46.325272,1.4666,-0.7056,0.0984,0.3415,-1.2431,-0.0964,
46.365345,1.4666,-0.7056,0.0984,0.3415,-1.2431,-0.0964,
46.385406,1.6799,-0.6042,0.6871,0.3415,-1.2431,-0.0964,
46.389422,1.6799,-0.6042,0.6871,0.2366,-0.8573,-0.3487,
46.432089,1.6799,-0.6042,0.6871,0.2366,-0.8573,-0.3487,
46.448293,1.4953,0.4855,0.9464,0.2366,-0.8573,-0.3487,
46.457290,1.4953,0.4855,0.9464,0.1074,-0.5666,-0.2344,
46.496486,1.4953,0.4855,0.9464,0.1074,-0.5666,-0.2344,
46.513769,3.0710,0.9168,2.0304,0.1074,-0.5666,-0.2344,
46.520083,3.0710,0.9168,2.0304,0.0673,-0.4711,0.3149,
46.561791,3.0710,0.9168,2.0304,0.0673,-0.4711,0.3149,
46.578412,1.7863,1.8369,-2.4217,0.0673,-0.4711,0.3149,
46.585708,1.7863,1.8369,-2.4217,-0.1788,0.6202,0.8676,
46.628308,1.7863,1.8369,-2.4217,-0.1788,0.6202,0.8676,
46.644751,-3.9547,0.9681,-0.2659,-0.1788,0.6202,0.8676,
46.651671,-3.9547,0.9681,-0.2659,-1.1842,-0.0304,0.4395,
46.693196,-3.9547,0.9681,-0.2659,-1.1842,-0.0304,0.4395,
46.709373,2.2097,0.1039,-0.3289,-1.1842,-0.0304,0.4395,
46.717598,2.2097,0.1039,-0.3289,-0.6550,1.1483,-0.1132,
46.760003,2.2097,0.1039,-0.3289,-0.6550,1.1483,-0.1132,
46.775734,0.1554,-1.8122,-0.3846,-0.6550,1.1483,-0.1132,
46.782645,0.1554,-1.8122,-0.3846,-0.3115,2.1913,-0.1124,
46.824870,0.1554,-1.8122,-0.3846,-0.3115,2.1913,-0.1124,
46.840825,-0.9313,-0.9031,-0.3690,-0.3115,2.1913,-0.1124,
46.847547,-0.9313,-0.9031,-0.3690,0.1790,1.7512,0.1717,
46.889685,-0.9313,-0.9031,-0.3690,0.1790,1.7512,0.1717,
46.906682,-1.9102,-2.0198,-0.1902,0.1790,1.7512,0.1717,
46.914460,-1.9102,-2.0198,-0.1902,0.5174,1.4923,0.0345,
46.956080,-1.9102,-2.0198,-0.1902,0.5174,1.4923,0.0345,
46.971578,-0.4930,-0.7802,0.3542,0.5174,1.4923,0.0345,
46.978761,-0.4930,-0.7802,0.3542,0.7633,0.9953,0.0279,
47.020547,-0.4930,-0.7802,0.3542,0.7633,0.9953,0.0279,
47.037291,-0.5659,2.7380,2.9417,0.7633,0.9953,0.0279,
47.045036,-0.5659,2.7380,2.9417,0.0064,0.8048,-0.0027,
47.087129,-0.5659,2.7380,2.9417,0.0064,0.8048,-0.0027,
47.103736,1.5335,4.9085,-0.4587,0.0064,0.8048,-0.0027,
47.110601,1.5335,4.9085,-0.4587,-0.0470,1.4238,-0.7387,
47.151962,1.5335,4.9085,-0.4587,-0.0470,1.4238,-0.7387,
47.169392,-2.8063,-1.5234,-0.9762,-0.0470,1.4238,-0.7387,
