
time,ax,ay,az,wx,wy,wz,
0.030689,0.0000,0.0000,0.0000,0.0000,0.0000,0.0000,
0.034328,0.0000,0.0000,0.0000,-0.0678,-0.0774,0.0623,
0.092014,0.0000,0.0000,0.0000,-0.0678,-0.0774,0.0623,
0.099232,0.0000,0.0000,0.0000,-0.0791,-0.0858,0.0331,
0.157115,0.0000,0.0000,0.0000,-0.0791,-0.0858,0.0331,
0.165111,0.0000,0.0000,0.0000,-0.0457,-0.0933,0.0134,
0.223032,0.0000,0.0000,0.0000,-0.0457,-0.0933,0.0134,
0.230775,0.0000,0.0000,0.0000,-0.0402,-0.0951,0.0034,
0.288785,0.0000,0.0000,0.0000,-0.0402,-0.0951,0.0034,
0.295886,0.0000,0.0000,0.0000,-0.0307,-0.0741,-0.0231,
0.353712,0.0000,0.0000,0.0000,-0.0307,-0.0741,-0.0231,
0.361171,0.0000,0.0000,0.0000,0.0199,0.0408,-0.0105,
0.418871,0.0000,0.0000,0.0000,0.0199,0.0408,-0.0105,
0.426604,0.0000,0.0000,0.0000,0.1109,0.1509,-0.0855,
0.485220,0.0000,0.0000,0.0000,0.1109,0.1509,-0.0855,
0.486102,0.1386,-0.1395,0.3781,0.1109,0.1509,-0.0855,
0.492025,0.1386,-0.1395,0.3781,0.1620,0.0776,-0.1813,
0.551254,0.1386,-0.1395,0.3781,0.1620,0.0776,-0.1813,
0.552143,-0.2165,0.0613,-0.0254,0.1620,0.0776,-0.1813,
0.557952,-0.2165,0.0613,-0.0254,0.1862,0.3497,-0.0819,
0.615666,-0.2165,0.0613,-0.0254,0.1862,0.3497,-0.0819,
0.616513,-0.3009,-0.2508,0.2740,0.1862,0.3497,-0.0819,
0.623031,-0.3009,-0.2508,0.2740,0.0713,0.3477,-0.0692,
0.681193,-0.3009,-0.2508,0.2740,0.0713,0.3477,-0.0692,
0.682018,-0.5510,0.1144,0.8062,0.0713,0.3477,-0.0692,
0.689533,-0.5510,0.1144,0.8062,0.1758,0.3370,-0.1423,
0.748499,-0.5510,0.1144,0.8062,0.1758,0.3370,-0.1423,
0.749269,-0.4066,-0.1027,0.4618,0.1758,0.3370,-0.1423,
0.754818,-0.4066,-0.1027,0.4618,-0.1718,0.4362,-0.0365,
0.820162,-0.4066,-0.1027,0.4618,-0.1425,-0.0228,0.0560,
0.878250,-0.4066,-0.1027,0.4618,-0.1425,-0.0228,0.0560,
0.879853,0.5816,-0.9504,0.7981,-0.1425,-0.0228,0.0560,
0.885155,0.5816,-0.9504,0.7981,-0.0869,-0.1405,-0.2639,
0.893200,0.5816,-0.9504,0.7981,-0.0869,-0.1405,-0.2639,
0.951307,0.5816,-0.9504,0.7981,0.0339,-0.1468,-0.3183,
0.959338,0.5816,-0.9504,0.7981,0.0339,-0.1468,-0.3183,
0.960260,0.3474,-1.0192,1.5641,0.0339,-0.1468,-0.3183,
1.016200,0.3474,-1.0192,1.5641,0.2398,-0.0142,-0.3134,
1.025293,0.3474,-1.0192,1.5641,0.2398,-0.0142,-0.3134,
1.026378,0.9602,-0.9367,1.1857,0.2398,-0.0142,-0.3134,
1.082012,0.9602,-0.9367,1.1857,0.2973,0.1891,-0.3036,
1.090052,0.9602,-0.9367,1.1857,0.2973,0.1891,-0.3036,
1.091062,0.5350,-0.4369,1.4175,0.2973,0.1891,-0.3036,
1.148422,0.5350,-0.4369,1.4175,0.1666,0.2706,-0.2201,
1.156190,0.5350,-0.4369,1.4175,0.1666,0.2706,-0.2201,
1.157330,0.0249,0.3438,2.1678,0.1666,0.2706,-0.2201,
1.213351,0.0249,0.3438,2.1678,0.1038,0.3986,-0.1301,
1.221321,0.0249,0.3438,2.1678,0.1038,0.3986,-0.1301,
1.222389,-0.1596,0.9414,2.9170,0.1038,0.3986,-0.1301,
1.278561,-0.1596,0.9414,2.9170,-0.1503,-0.0773,-0.0608,
1.286717,-0.1596,0.9414,2.9170,-0.1503,-0.0773,-0.0608,
1.287914,-0.2545,2.2901,2.1798,-0.1503,-0.0773,-0.0608,
1.343901,-0.2545,2.2901,2.1798,0.6070,-0.5168,-0.0999,
1.351973,-0.2545,2.2901,2.1798,0.6070,-0.5168,-0.0999,
1.353041,-0.6152,-0.6342,-0.3357,0.6070,-0.5168,-0.0999,
1.408885,-0.6152,-0.6342,-0.3357,0.3041,-0.3922,-0.3729,
1.417806,-0.6152,-0.6342,-0.3357,0.3041,-0.3922,-0.3729,
1.418483,-1.7684,-0.9139,-1.7086,0.3041,-0.3922,-0.3729,
1.474820,-1.7684,-0.9139,-1.7086,0.3879,-0.4950,0.0078,
1.483687,-1.7684,-0.9139,-1.7086,0.3879,-0.4950,0.0078,
1.484668,-0.5936,-0.5605,-1.2504,0.3879,-0.4950,0.0078,
1.540443,-0.5936,-0.5605,-1.2504,0.4285,-0.5113,0.1054,
1.548480,-0.5936,-0.5605,-1.2504,0.4285,-0.5113,0.1054,
1.549526,-0.0764,-0.8247,0.0259,0.4285,-0.5113,0.1054,
1.605566,-0.0764,-0.8247,0.0259,0.4594,-0.7123,0.0541,
1.614137,-0.0764,-0.8247,0.0259,0.4594,-0.7123,0.0541,
1.615268,1.4290,-0.9440,-0.4431,0.4594,-0.7123,0.0541,
1.672135,1.4290,-0.9440,-0.4431,0.4178,-0.6755,-0.1881,
1.680802,1.4290,-0.9440,-0.4431,0.4178,-0.6755,-0.1881,
1.682533,1.2135,-0.6576,0.2756,0.4178,-0.6755,-0.1881,
1.737085,1.2135,-0.6576,0.2756,0.2894,-0.5473,-0.1607,
1.745224,1.2135,-0.6576,0.2756,0.2894,-0.5473,-0.1607,
1.746271,0.8001,-0.2077,0.5561,0.2894,-0.5473,-0.1607,
1.802407,0.8001,-0.2077,0.5561,0.1768,-0.6101,-0.1394,
1.810476,0.8001,-0.2077,0.5561,0.1768,-0.6101,-0.1394,
1.812139,1.4492,0.6948,1.1695,0.1768,-0.6101,-0.1394,
1.867287,1.4492,0.6948,1.1695,0.1046,-0.4296,0.0338,
1.875784,1.4492,0.6948,1.1695,0.1046,-0.4296,0.0338,
1.876827,2.0478,0.9990,0.7999,0.1046,-0.4296,0.0338,
1.933561,2.0478,0.9990,0.7999,0.0200,-0.3393,0.4624,
1.941623,2.0478,0.9990,0.7999,0.0200,-0.3393,0.4624,
1.942725,-0.3522,2.6304,-1.2579,0.0200,-0.3393,0.4624,
1.998472,-0.3522,2.6304,-1.2579,-0.9122,0.3125,0.7370,
2.007088,-0.3522,2.6304,-1.2579,-0.9122,0.3125,0.7370,
2.008310,-0.6865,-0.4073,-0.7504,-0.9122,0.3125,0.7370,
2.064843,-0.6865,-0.4073,-0.7504,-0.3572,1.1356,0.2885,
2.072784,-0.6865,-0.4073,-0.7504,-0.3572,1.1356,0.2885,
2.073880,0.6783,1.6083,-0.0518,-0.3572,1.1356,0.2885,
2.130850,0.6783,1.6083,-0.0518,-0.3684,1.2915,-0.1600,
2.139907,0.6783,1.6083,-0.0518,-0.3684,1.2915,-0.1600,
2.141122,-0.7753,-1.6812,-0.4749,-0.3684,1.2915,-0.1600,
2.194843,-0.7753,-1.6812,-0.4749,-0.4751,0.9476,-0.2066,
2.203876,-0.7753,-1.6812,-0.4749,-0.4751,0.9476,-0.2066,
2.205460,-1.9744,-2.1159,0.8097,-0.4751,0.9476,-0.2066,
2.260808,-1.9744,-2.1159,0.8097,-0.0301,0.5773,0.0418,
2.268832,-1.9744,-2.1159,0.8097,-0.0301,0.5773,0.0418,
2.270454,-0.3791,-2.1697,0.6986,-0.0301,0.5773,0.0418,
2.325862,-0.3791,-2.1697,0.6986,-0.2993,0.4055,0.1761,
2.334492,-0.3791,-2.1697,0.6986,-0.2993,0.4055,0.1761,
2.336325,0.3227,0.2518,1.6297,-0.2993,0.4055,0.1761,
2.391671,0.3227,0.2518,1.6297,-0.3922,0.1494,0.1669,
2.399939,0.3227,0.2518,1.6297,-0.3922,0.1494,0.1669,
2.400571,0.1480,1.8009,2.3413,-0.3922,0.1494,0.1669,
2.456466,0.1480,1.8009,2.3413,0.1046,-0.9540,-0.4058,
2.465221,0.1480,1.8009,2.3413,0.1046,-0.9540,-0.4058,
2.466319,-1.4420,2.4774,-0.5655,0.1046,-0.9540,-0.4058,
2.522281,-1.4420,2.4774,-0.5655,-0.1834,-0.1388,-0.0218,
2.530217,-1.4420,2.4774,-0.5655,-0.1834,-0.1388,-0.0218,
2.530893,-1.3540,-0.9140,-3.0462,-0.1834,-0.1388,-0.0218,
2.588087,-1.3540,-0.9140,-3.0462,0.4768,-0.0932,-0.0890,
2.597457,-1.3540,-0.9140,-3.0462,0.4768,-0.0932,-0.0890,
2.599125,-0.8673,-0.6098,-0.7569,0.4768,-0.0932,-0.0890,
2.653714,-0.8673,-0.6098,-0.7569,0.3074,-0.6405,-0.1193,
2.662048,-0.8673,-0.6098,-0.7569,0.3074,-0.6405,-0.1193,
2.663178,-1.0179,-1.5521,-1.5215,0.3074,-0.6405,-0.1193,
2.718606,-1.0179,-1.5521,-1.5215,0.4927,-0.6814,-0.0515,
2.727317,-1.0179,-1.5521,-1.5215,0.4927,-0.6814,-0.0515,
2.728558,1.4108,-1.4381,-0.0253,0.4927,-0.6814,-0.0515,
2.784351,1.4108,-1.4381,-0.0253,0.4458,-0.3719,-0.3204,
2.792298,1.4108,-1.4381,-0.0253,0.4458,-0.3719,-0.3204,
2.793261,2.0559,-0.8071,-0.2488,0.4458,-0.3719,-0.3204,
2.850186,2.0559,-0.8071,-0.2488,0.2714,-0.1729,-0.3259,
2.857624,2.0559,-0.8071,-0.2488,0.2714,-0.1729,-0.3259,
2.858631,1.7430,-0.0995,0.9827,0.2714,-0.1729,-0.3259,
2.916018,1.7430,-0.0995,0.9827,0.6258,0.0996,0.0527,
2.923811,1.7430,-0.0995,0.9827,0.6258,0.0996,0.0527,
2.925243,1.5365,0.4910,-1.0305,0.6258,0.0996,0.0527,
2.980761,1.5365,0.4910,-1.0305,0.0797,0.0904,0.3471,
2.989364,1.5365,0.4910,-1.0305,0.0797,0.0904,0.3471,
2.990151,-3.5554,4.0402,-0.9447,0.0797,0.0904,0.3471,
3.047542,-3.5554,4.0402,-0.9447,-0.5064,-0.1755,0.7112,
3.056219,-3.5554,4.0402,-0.9447,-0.5064,-0.1755,0.7112,
3.057397,-2.5248,0.6299,-0.1468,-0.5064,-0.1755,0.7112,
3.112214,-2.5248,0.6299,-0.1468,-0.5588,0.1437,0.2111,
3.119931,-2.5248,0.6299,-0.1468,-0.5588,0.1437,0.2111,
3.121193,-0.4331,0.0457,-0.1427,-0.5588,0.1437,0.2111,
3.177442,-0.4331,0.0457,-0.1427,-0.4624,0.1513,0.0489,
3.185709,-0.4331,0.0457,-0.1427,-0.4624,0.1513,0.0489,
3.190559,-2.0529,-1.4965,0.1305,-0.4624,0.1513,0.0489,
3.242409,-2.0529,-1.4965,0.1305,-0.3409,0.0564,0.1701,
3.251021,-2.0529,-1.4965,0.1305,-0.3409,0.0564,0.1701,
3.252308,-1.4063,-1.4758,1.4651,-0.3409,0.0564,0.1701,
3.308616,-1.4063,-1.4758,1.4651,0.0234,-0.3264,-0.0185,
3.316623,-1.4063,-1.4758,1.4651,0.0234,-0.3264,-0.0185,
3.317729,-0.7475,-1.6199,0.9306,0.0234,-0.3264,-0.0185,
3.374611,-0.7475,-1.6199,0.9306,-0.0930,-0.3105,0.0063,
3.382341,-0.7475,-1.6199,0.9306,-0.0930,-0.3105,0.0063,
3.383264,-0.2167,0.4253,2.3359,-0.0930,-0.3105,0.0063,
3.439483,-0.2167,0.4253,2.3359,-0.0638,-0.4398,0.3372,
3.446661,-0.2167,0.4253,2.3359,-0.0638,-0.4398,0.3372,
3.447272,0.5365,0.9784,2.0288,-0.0638,-0.4398,0.3372,
3.505389,0.5365,0.9784,2.0288,-0.0505,-0.4808,-0.2734,
3.513283,0.5365,0.9784,2.0288,-0.0505,-0.4808,-0.2734,
3.513636,-1.8273,3.6353,1.2217,-0.0505,-0.4808,-0.2734,
3.570521,-1.8273,3.6353,1.2217,0.3784,-1.2598,-0.3227,
3.579258,-1.8273,3.6353,1.2217,0.3784,-1.2598,-0.3227,
3.580414,-4.6903,0.3632,-3.5731,0.3784,-1.2598,-0.3227,
3.635321,-4.6903,0.3632,-3.5731,0.1180,-1.0107,0.1219,
3.643832,-4.6903,0.3632,-3.5731,0.1180,-1.0107,0.1219,
3.644351,-2.5412,-1.0099,-0.3902,0.1180,-1.0107,0.1219,
3.702341,-2.5412,-1.0099,-0.3902,0.3891,-2.3676,0.0125,
3.709582,-2.5412,-1.0099,-0.3902,0.3891,-2.3676,0.0125,
3.709904,-2.5775,-0.5116,-1.6358,0.3891,-2.3676,0.0125,
3.767164,-2.5775,-0.5116,-1.6358,0.1684,-2.4415,0.0556,
3.775191,-2.5775,-0.5116,-1.6358,0.1684,-2.4415,0.0556,
3.776212,0.5383,-0.4762,-0.4608,0.1684,-2.4415,0.0556,
3.834389,0.5383,-0.4762,-0.4608,0.2300,-2.2038,0.0038,
3.839436,0.5383,-0.4762,-0.4608,0.2300,-2.2038,0.0038,
3.839912,1.1900,-0.3982,0.1860,0.2300,-2.2038,0.0038,
3.898844,1.1900,-0.3982,0.1860,-0.0670,-1.8569,-0.1694,
3.906313,1.1900,-0.3982,0.1860,-0.0670,-1.8569,-0.1694,
3.906712,2.1057,-0.5140,1.8252,-0.0670,-1.8569,-0.1694,
3.964022,2.1057,-0.5140,1.8252,0.2162,-1.1251,-0.1994,
3.972743,2.1057,-0.5140,1.8252,0.2162,-1.1251,-0.1994,
3.974156,3.0497,0.4006,1.3726,0.2162,-1.1251,-0.1994,
4.029539,3.0497,0.4006,1.3726,0.3839,-0.3062,0.1368,
4.037003,3.0497,0.4006,1.3726,0.3839,-0.3062,0.1368,
4.037421,1.1650,1.6639,0.5103,0.3839,-0.3062,0.1368,
4.093996,1.1650,1.6639,0.5103,-0.1652,-0.4102,0.5059,
4.102849,1.1650,1.6639,0.5103,-0.1652,-0.4102,0.5059,
4.103168,-2.9031,1.2087,0.1172,-0.1652,-0.4102,0.5059,
4.160487,-2.9031,1.2087,0.1172,-0.7795,-0.5848,0.4398,
4.167743,-2.9031,1.2087,0.1172,-0.7795,-0.5848,0.4398,
4.168100,-3.3489,1.3468,0.2764,-0.7795,-0.5848,0.4398,
4.226107,-3.3489,1.3468,0.2764,-0.9000,-1.1179,0.3335,
4.233258,-3.3489,1.3468,0.2764,-0.9000,-1.1179,0.3335,
4.233683,-1.5307,0.6500,0.2262,-0.9000,-1.1179,0.3335,
4.292865,-1.5307,0.6500,0.2262,-0.8331,-0.8073,0.2107,
4.298432,-1.5307,0.6500,0.2262,-0.8331,-0.8073,0.2107,
4.298780,0.6721,-2.1477,1.1542,-0.8331,-0.8073,0.2107,
4.356109,0.6721,-2.1477,1.1542,-0.4160,-0.2327,-0.3161,
4.363689,0.6721,-2.1477,1.1542,-0.4160,-0.2327,-0.3161,
4.364120,-0.0312,-1.5187,2.7285,-0.4160,-0.2327,-0.3161,
4.421787,-0.0312,-1.5187,2.7285,-0.0466,-0.4270,-0.0562,
4.431535,-0.0312,-1.5187,2.7285,-0.0466,-0.4270,-0.0562,
4.431899,-0.8574,-1.4051,3.2396,-0.0466,-0.4270,-0.0562,
4.487741,-0.8574,-1.4051,3.2396,-0.1126,-0.1173,0.0011,
4.494959,-0.8574,-1.4051,3.2396,-0.1126,-0.1173,0.0011,
4.495196,1.6459,0.8388,2.9834,-0.1126,-0.1173,0.0011,
4.551929,1.6459,0.8388,2.9834,-0.3076,0.0608,0.0502,
4.560131,1.6459,0.8388,2.9834,-0.3076,0.0608,0.0502,
4.561127,0.6799,1.5886,3.9918,-0.3076,0.0608,0.0502,
4.618499,0.6799,1.5886,3.9918,0.6929,-0.3609,-0.8209,
4.625798,0.6799,1.5886,3.9918,0.6929,-0.3609,-0.8209,
4.626235,-3.0653,1.3166,-1.6239,0.6929,-0.3609,-0.8209,
4.685234,-3.0653,1.3166,-1.6239,-0.1040,-0.3439,-0.1109,
4.690990,-3.0653,1.3166,-1.6239,-0.1040,-0.3439,-0.1109,
4.691468,-2.8849,-1.5957,-2.0547,-0.1040,-0.3439,-0.1109,
4.749981,-2.8849,-1.5957,-2.0547,0.5226,-0.7810,-0.1199,
4.757524,-2.8849,-1.5957,-2.0547,0.5226,-0.7810,-0.1199,
4.757925,-1.5444,-1.1337,-0.5781,0.5226,-0.7810,-0.1199,
4.814607,-1.5444,-1.1337,-0.5781,0.3516,-1.7740,-0.2027,
4.822226,-1.5444,-1.1337,-0.5781,0.3516,-1.7740,-0.2027,
4.822679,-1.2559,-1.0520,-1.1396,0.3516,-1.7740,-0.2027,
4.880366,-1.2559,-1.0520,-1.1396,0.4720,-1.8715,-0.0925,
4.887653,-1.2559,-1.0520,-1.1396,0.4720,-1.8715,-0.0925,
4.888043,1.5329,-0.3816,-0.2194,0.4720,-1.8715,-0.0925,
4.946197,1.5329,-0.3816,-0.2194,0.3056,-1.3118,-0.1839,
4.954314,1.5329,-0.3816,-0.2194,0.3056,-1.3118,-0.1839,
4.954813,2.4076,-0.5775,0.9011,0.3056,-1.3118,-0.1839,
5.011810,2.4076,-0.5775,0.9011,0.2185,-0.9470,-0.2870,
5.019315,2.4076,-0.5775,0.9011,0.2185,-0.9470,-0.2870,
5.019647,2.8430,0.6637,1.9901,0.2185,-0.9470,-0.2870,
5.077997,2.8430,0.6637,1.9901,0.2182,-0.2282,0.0380,
5.084171,2.8430,0.6637,1.9901,0.2182,-0.2282,0.0380,
5.085120,3.7644,0.5713,0.8502,0.2182,-0.2282,0.0380,
5.142925,3.7644,0.5713,0.8502,0.0480,0.5118,0.0725,
5.150270,3.7644,0.5713,0.8502,0.0480,0.5118,0.0725,
5.150743,-0.6042,3.3178,-0.7066,0.0480,0.5118,0.0725,
5.209317,-0.6042,3.3178,-0.7066,-0.6506,0.1501,0.5744,
5.216082,-0.6042,3.3178,-0.7066,-0.6506,0.1501,0.5744,
5.217072,-2.3794,1.3234,-0.9803,-0.6506,0.1501,0.5744,
5.272737,-2.3794,1.3234,-0.9803,-0.7196,0.4328,0.4210,
5.280266,-2.3794,1.3234,-0.9803,-0.7196,0.4328,0.4210,
5.280751,0.2280,0.6417,-0.1055,-0.7196,0.4328,0.4210,
5.339850,0.2280,0.6417,-0.1055,-0.4554,1.1994,0.0325,
5.346453,0.2280,0.6417,-0.1055,-0.4554,1.1994,0.0325,
5.346884,0.0341,-2.1099,-0.0570,-0.4554,1.1994,0.0325,
5.404267,0.0341,-2.1099,-0.0570,-0.3655,1.3146,-0.1843,
5.411607,0.0341,-2.1099,-0.0570,-0.3655,1.3146,-0.1843,
5.411839,-1.0413,-2.1521,0.6416,-0.3655,1.3146,-0.1843,
5.468197,-1.0413,-2.1521,0.6416,-0.0886,0.8435,-0.0680,
5.476991,-1.0413,-2.1521,0.6416,-0.0886,0.8435,-0.0680,
5.478389,-0.8240,-1.4320,1.2305,-0.0886,0.8435,-0.0680,
5.534966,-0.8240,-1.4320,1.2305,-0.0027,0.4513,-0.0139,
5.543798,-0.8240,-1.4320,1.2305,-0.0027,0.4513,-0.0139,
5.544861,0.6611,-0.3306,1.8316,-0.0027,0.4513,-0.0139,
5.600604,0.6611,-0.3306,1.8316,-0.3645,0.2706,0.0750,
5.608642,0.6611,-0.3306,1.8316,-0.3645,0.2706,0.0750,
5.609826,-0.0396,1.8949,2.8398,-0.3645,0.2706,0.0750,
5.665966,-0.0396,1.8949,2.8398,-0.6765,-0.5745,0.0373,
5.673723,-0.0396,1.8949,2.8398,-0.6765,-0.5745,0.0373,
5.674184,-0.2862,4.3015,-0.6492,-0.6765,-0.5745,0.0373,
5.730827,-0.2862,4.3015,-0.6492,0.1060,-0.0571,-0.3105,
5.740007,-0.2862,4.3015,-0.6492,0.1060,-0.0571,-0.3105,
5.740936,-1.3657,-1.2072,-2.9185,0.1060,-0.0571,-0.3105,
5.796720,-1.3657,-1.2072,-2.9185,0.4562,0.2531,-0.0363,
5.805788,-1.3657,-1.2072,-2.9185,0.4562,0.2531,-0.0363,
5.807549,-0.1981,-0.6181,-0.5476,0.4562,0.2531,-0.0363,
5.863076,-0.1981,-0.6181,-0.5476,0.4708,-0.4852,-0.1724,
5.870014,-0.1981,-0.6181,-0.5476,0.4708,-0.4852,-0.1724,
5.870354,-1.2206,-0.7151,-1.3284,0.4708,-0.4852,-0.1724,
5.927937,-1.2206,-0.7151,-1.3284,0.4053,-0.9038,-0.0428,
5.936185,-1.2206,-0.7151,-1.3284,0.4053,-0.9038,-0.0428,
5.937105,0.7741,-1.9269,-0.2606,0.4053,-0.9038,-0.0428,
5.995635,0.7741,-1.9269,-0.2606,0.4922,-0.6162,-0.2938,
6.002623,0.7741,-1.9269,-0.2606,0.4922,-0.6162,-0.2938,
6.003773,2.7400,-0.9512,0.5100,0.4922,-0.6162,-0.2938,
6.060131,2.7400,-0.9512,0.5100,0.4189,-0.1773,-0.3894,
6.066494,2.7400,-0.9512,0.5100,0.4189,-0.1773,-0.3894,
6.066841,2.0909,0.2996,1.3668,0.4189,-0.1773,-0.3894,
6.124371,2.0909,0.2996,1.3668,0.3876,-0.1677,-0.1623,
6.132201,2.0909,0.2996,1.3668,0.3876,-0.1677,-0.1623,
6.133008,2.7225,1.2435,0.2056,0.3876,-0.1677,-0.1623,
6.189682,2.7225,1.2435,0.2056,0.0498,0.1191,0.0869,
6.197633,2.7225,1.2435,0.2056,0.0498,0.1191,0.0869,
6.200174,-1.3469,3.5869,-1.1403,0.0498,0.1191,0.0869,
6.255252,-1.3469,3.5869,-1.1403,-0.5376,-0.2624,0.8074,
6.264242,-1.3469,3.5869,-1.1403,-0.5376,-0.2624,0.8074,
6.265848,-1.9495,0.5521,-0.5723,-0.5376,-0.2624,0.8074,
6.321697,-1.9495,0.5521,-0.5723,-0.7372,0.2520,0.4924,
6.329680,-1.9495,0.5521,-0.5723,-0.7372,0.2520,0.4924,
6.330117,0.5580,1.1265,-0.1142,-0.7372,0.2520,0.4924,
6.385178,0.5580,1.1265,-0.1142,-0.4759,1.2393,0.0108,
6.393877,0.5580,1.1265,-0.1142,-0.4759,1.2393,0.0108,
6.394162,0.6907,-1.2101,-0.4535,-0.4759,1.2393,0.0108,
6.452957,0.6907,-1.2101,-0.4535,-0.3340,1.5379,-0.1107,
6.460228,0.6907,-1.2101,-0.4535,-0.3340,1.5379,-0.1107,
6.461489,-1.1674,-2.4311,0.1158,-0.3340,1.5379,-0.1107,
6.517909,-1.1674,-2.4311,0.1158,-0.2689,1.1651,-0.0812,
6.525545,-1.1674,-2.4311,0.1158,-0.2689,1.1651,-0.0812,
6.526604,-0.9956,-1.3503,0.5879,-0.2689,1.1651,-0.0812,
6.583581,-0.9956,-1.3503,0.5879,-0.0170,0.8317,0.0515,
6.590958,-0.9956,-1.3503,0.5879,-0.0170,0.8317,0.0515,
6.593109,0.1069,-1.0731,1.5074,-0.0170,0.8317,0.0515,
6.648610,0.1069,-1.0731,1.5074,-0.4241,0.4766,0.2553,
6.656235,0.1069,-1.0731,1.5074,-0.4241,0.4766,0.2553,
6.657386,0.1391,2.5622,1.9728,-0.4241,0.4766,0.2553,
6.714607,0.1391,2.5622,1.9728,-0.7526,0.2106,0.2020,
6.722690,0.1391,2.5622,1.9728,-0.7526,0.2106,0.2020,
6.724930,-0.5495,2.7486,1.4095,-0.7526,0.2106,0.2020,
6.781087,-0.5495,2.7486,1.4095,0.5101,-0.0996,-0.4050,
6.787333,-0.5495,2.7486,1.4095,0.5101,-0.0996,-0.4050,
6.788163,-1.6355,-0.0779,-3.2083,0.5101,-0.0996,-0.4050,
6.845239,-1.6355,-0.0779,-3.2083,0.0684,0.0832,-0.2140,
6.854389,-1.6355,-0.0779,-3.2083,0.0684,0.0832,-0.2140,
6.855478,-0.4462,-1.3577,-1.3254,0.0684,0.0832,-0.2140,
6.910016,-0.4462,-1.3577,-1.3254,0.5215,-0.2288,-0.1819,
6.919287,-0.4462,-1.3577,-1.3254,0.5215,-0.2288,-0.1819,
6.920546,-0.3153,-1.2683,-1.4317,0.5215,-0.2288,-0.1819,
6.976516,-0.3153,-1.2683,-1.4317,0.4594,-0.8474,-0.1816,
6.984963,-0.3153,-1.2683,-1.4317,0.4594,-0.8474,-0.1816,
6.985999,0.3893,-1.4743,-0.3680,0.4594,-0.8474,-0.1816,
7.042434,0.3893,-1.4743,-0.3680,0.6263,-0.6471,-0.2908,
7.049306,0.3893,-1.4743,-0.3680,0.6263,-0.6471,-0.2908,
7.050768,2.7488,-1.1345,-0.2808,0.6263,-0.6471,-0.2908,
7.106014,2.7488,-1.1345,-0.2808,0.3913,-0.1869,-0.4585,
7.114954,2.7488,-1.1345,-0.2808,0.3913,-0.1869,-0.4585,
7.116646,1.5847,-0.0106,1.3729,0.3913,-0.1869,-0.4585,
7.173311,1.5847,-0.0106,1.3729,0.4479,-0.3427,-0.2280,
7.181663,1.5847,-0.0106,1.3729,0.4479,-0.3427,-0.2280,
7.183140,2.9238,1.1758,0.2659,0.4479,-0.3427,-0.2280,
7.238462,2.9238,1.1758,0.2659,0.2902,0.4052,0.1136,
7.247674,2.9238,1.1758,0.2659,0.2902,0.4052,0.1136,
7.249104,0.7655,2.8436,-1.2151,0.2902,0.4052,0.1136,
7.302789,0.7655,2.8436,-1.2151,-0.3471,0.2343,0.6706,
7.310319,0.7655,2.8436,-1.2151,-0.3471,0.2343,0.6706,
7.311069,-1.4269,1.0831,-1.3742,-0.3471,0.2343,0.6706,
7.368608,-1.4269,1.0831,-1.3742,-0.6938,0.5678,0.4311,
7.377654,-1.4269,1.0831,-1.3742,-0.6938,0.5678,0.4311,
7.378678,0.5445,1.6014,-0.4685,-0.6938,0.5678,0.4311,
7.435569,0.5445,1.6014,-0.4685,-0.5840,1.5090,0.0666,
7.442052,0.5445,1.6014,-0.4685,-0.5840,1.5090,0.0666,
7.443306,0.7924,-1.2955,-0.8865,-0.5840,1.5090,0.0666,
7.500452,0.7924,-1.2955,-0.8865,-0.2442,1.8802,-0.1729,
7.507837,0.7924,-1.2955,-0.8865,-0.2442,1.8802,-0.1729,
7.508866,-0.9117,-2.8768,-0.1281,-0.2442,1.8802,-0.1729,
7.565126,-0.9117,-2.8768,-0.1281,-0.1553,1.4720,0.0776,
7.573367,-0.9117,-2.8768,-0.1281,-0.1553,1.4720,0.0776,
7.575236,-1.5048,-1.2844,0.6037,-0.1553,1.4720,0.0776,
7.631304,-1.5048,-1.2844,0.6037,0.0606,1.0252,0.1639,
7.638924,-1.5048,-1.2844,0.6037,0.0606,1.0252,0.1639,
7.640643,0.8414,-1.0119,0.9829,0.0606,1.0252,0.1639,
7.696007,0.8414,-1.0119,0.9829,-0.2114,0.8352,0.0249,
7.705905,0.8414,-1.0119,0.9829,-0.2114,0.8352,0.0249,
7.707231,-0.3250,2.7649,1.7919,-0.2114,0.8352,0.0249,
7.762442,-0.3250,2.7649,1.7919,-0.8499,0.4705,0.2201,
7.771898,-0.3250,2.7649,1.7919,-0.8499,0.4705,0.2201,
7.773303,-0.7342,3.5260,0.9572,-0.8499,0.4705,0.2201,
7.827621,-0.7342,3.5260,0.9572,0.6185,-0.3196,-0.7155,
7.835228,-0.7342,3.5260,0.9572,0.6185,-0.3196,-0.7155,
7.836552,-1.8776,-0.4584,-3.3382,0.6185,-0.3196,-0.7155,
7.893041,-1.8776,-0.4584,-3.3382,-0.3357,0.2048,0.1486,
7.901940,-1.8776,-0.4584,-3.3382,-0.3357,0.2048,0.1486,
7.903070,0.7240,-1.4673,-1.0124,-0.3357,0.2048,0.1486,
7.959251,0.7240,-1.4673,-1.0124,0.7283,0.4893,-0.1419,
7.967115,0.7240,-1.4673,-1.0124,0.7283,0.4893,-0.1419,
7.968651,0.8630,-0.5735,-1.7162,0.7283,0.4893,-0.1419,
8.022484,0.8630,-0.5735,-1.7162,0.3435,0.0701,-0.1729,
8.032188,0.8630,-0.5735,-1.7162,0.3435,0.0701,-0.1729,
8.033465,-0.3676,-1.9260,-0.3782,0.3435,0.0701,-0.1729,
8.088993,-0.3676,-1.9260,-0.3782,0.5820,-0.0553,-0.0686,
8.098307,-0.3676,-1.9260,-0.3782,0.5820,-0.0553,-0.0686,
8.100037,1.7369,-1.1026,-0.2409,0.5820,-0.0553,-0.0686,
8.155634,1.7369,-1.1026,-0.2409,0.4125,0.0350,-0.3170,
8.164348,1.7369,-1.1026,-0.2409,0.4125,0.0350,-0.3170,
8.165802,1.8802,-0.2498,0.4559,0.4125,0.0350,-0.3170,
8.219080,1.8802,-0.2498,0.4559,0.3425,-0.2430,-0.2315,
8.227495,1.8802,-0.2498,0.4559,0.3425,-0.2430,-0.2315,
8.228359,2.0174,1.3104,0.3994,0.3425,-0.2430,-0.2315,
8.285617,2.0174,1.3104,0.3994,0.2961,0.0316,0.1390,
8.293693,2.0174,1.3104,0.3994,0.2961,0.0316,0.1390,
8.294845,1.8705,1.6812,-1.2265,0.2961,0.0316,0.1390,
8.351728,1.8705,1.6812,-1.2265,-0.3433,0.1845,0.5921,
8.358673,1.8705,1.6812,-1.2265,-0.3433,0.1845,0.5921,
8.359170,-1.1921,2.0188,-2.3190,-0.3433,0.1845,0.5921,
8.416903,-1.1921,2.0188,-2.3190,-0.8212,0.7233,0.5046,
8.424469,-1.1921,2.0188,-2.3190,-0.8212,0.7233,0.5046,
8.425051,0.7100,1.4912,-0.4253,-0.8212,0.7233,0.5046,
8.482196,0.7100,1.4912,-0.4253,-0.5602,1.8318,0.0580,
8.491241,0.7100,1.4912,-0.4253,-0.5602,1.8318,0.0580,
8.493071,1.2657,-1.4786,-1.4378,-0.5602,1.8318,0.0580,
8.547705,1.2657,-1.4786,-1.4378,-0.4685,2.3138,-0.1982,
8.556769,1.2657,-1.4786,-1.4378,-0.4685,2.3138,-0.1982,
8.558041,-1.1370,-2.1369,-1.0836,-0.4685,2.3138,-0.1982,
8.614253,-1.1370,-2.1369,-1.0836,-0.5096,1.7480,0.2686,
8.623094,-1.1370,-2.1369,-1.0836,-0.5096,1.7480,0.2686,
8.623860,-1.7500,-0.6858,0.1758,-0.5096,1.7480,0.2686,
8.678363,-1.7500,-0.6858,0.1758,0.0728,1.2703,0.4094,
8.686739,-1.7500,-0.6858,0.1758,0.0728,1.2703,0.4094,
8.687276,1.1406,-2.4859,0.4250,0.0728,1.2703,0.4094,
8.743023,1.1406,-2.4859,0.4250,0.0026,1.3260,0.1532,
8.752342,1.1406,-2.4859,0.4250,0.0026,1.3260,0.1532,
8.753067,0.6486,0.8700,1.2343,0.0026,1.3260,0.1532,
8.809682,0.6486,0.8700,1.2343,-0.4371,0.9931,0.1057,
8.817846,0.6486,0.8700,1.2343,-0.4371,0.9931,0.1057,
8.818459,-0.5110,1.4075,2.2306,-0.4371,0.9931,0.1057,
8.874901,-0.5110,1.4075,2.2306,0.0021,-0.4258,-0.4618,
8.882992,-0.5110,1.4075,2.2306,0.0021,-0.4258,-0.4618,
8.884585,-1.9876,3.1042,-1.9643,0.0021,-0.4258,-0.4618,
8.939597,-1.9876,3.1042,-1.9643,-0.2973,0.1658,0.0438,
8.948661,-1.9876,3.1042,-1.9643,-0.2973,0.1658,0.0438,
8.952394,1.0915,-1.1112,-3.3243,-0.2973,0.1658,0.0438,
9.006166,1.0915,-1.1112,-3.3243,0.8150,1.3383,-0.2231,
9.013659,1.0915,-1.1112,-3.3243,0.8150,1.3383,-0.2231,
9.015042,1.5385,-0.6763,-1.5480,0.8150,1.3383,-0.2231,
9.071250,1.5385,-0.6763,-1.5480,0.5243,0.7779,-0.3830,
9.079977,1.5385,-0.6763,-1.5480,0.5243,0.7779,-0.3830,
9.080472,-1.5453,-1.0756,-1.0365,0.5243,0.7779,-0.3830,
9.137223,-1.5453,-1.0756,-1.0365,0.5626,0.1578,0.0269,
9.145339,-1.5453,-1.0756,-1.0365,0.5626,0.1578,0.0269,
9.146250,0.5110,-1.5236,-0.0691,0.5626,0.1578,0.0269,
9.202521,0.5110,-1.5236,-0.0691,0.5797,-0.0429,-0.1788,
9.210654,0.5110,-1.5236,-0.0691,0.5797,-0.0429,-0.1788,
9.211775,2.1948,-0.6231,-0.4246,0.5797,-0.0429,-0.1788,
9.269870,2.1948,-0.6231,-0.4246,0.2894,-0.0273,-0.3140,
9.275512,2.1948,-0.6231,-0.4246,0.2894,-0.0273,-0.3140,
9.276031,2.4302,0.2566,0.7048,0.2894,-0.0273,-0.3140,
9.333739,2.4302,0.2566,0.7048,0.2355,0.0247,-0.1767,
9.341008,2.4302,0.2566,0.7048,0.2355,0.0247,-0.1767,
9.341615,2.4802,0.4637,0.4966,0.2355,0.0247,-0.1767,
9.398433,2.4802,0.4637,0.4966,0.2799,0.1371,0.0286,
9.406636,2.4802,0.4637,0.4966,0.2799,0.1371,0.0286,
9.407475,-0.1038,3.5622,-1.2177,0.2799,0.1371,0.0286,
9.465382,-0.1038,3.5622,-1.2177,-0.5441,0.2969,0.8589,
9.472940,-0.1038,3.5622,-1.2177,-0.5441,0.2969,0.8589,
9.474066,-1.5742,1.1489,-2.2112,-0.5441,0.2969,0.8589,
9.530126,-1.5742,1.1489,-2.2112,-0.6921,0.6420,0.4071,
9.537576,-1.5742,1.1489,-2.2112,-0.6921,0.6420,0.4071,
9.539717,0.0300,2.2620,-0.6848,-0.6921,0.6420,0.4071,
9.594659,0.0300,2.2620,-0.6848,-0.7801,1.5722,0.0371,
9.603864,0.0300,2.2620,-0.6848,-0.7801,1.5722,0.0371,
9.604964,0.9324,-1.3647,-1.6636,-0.7801,1.5722,0.0371,
9.661288,0.9324,-1.3647,-1.6636,-0.5886,2.0400,-0.2066,
9.669284,0.9324,-1.3647,-1.6636,-0.5886,2.0400,-0.2066,
9.670296,-1.0300,-2.4885,-0.7016,-0.5886,2.0400,-0.2066,
9.726528,-1.0300,-2.4885,-0.7016,-0.7558,1.4667,0.2848,
9.734149,-1.0300,-2.4885,-0.7016,-0.7558,1.4667,0.2848,
9.735035,-2.2663,-0.1131,0.6102,-0.7558,1.4667,0.2848,
9.791521,-2.2663,-0.1131,0.6102,-0.3648,1.0440,0.6425,
9.799951,-2.2663,-0.1131,0.6102,-0.3648,1.0440,0.6425,
9.800549,1.6133,-2.3070,0.5440,-0.3648,1.0440,0.6425,
9.856153,1.6133,-2.3070,0.5440,0.0890,1.1167,0.3341,
9.865181,1.6133,-2.3070,0.5440,0.0890,1.1167,0.3341,
9.866360,1.3300,-0.3822,0.8584,0.0890,1.1167,0.3341,
9.923012,1.3300,-0.3822,0.8584,-0.1932,0.7692,0.2269,
9.931763,1.3300,-0.3822,0.8584,-0.1932,0.7692,0.2269,
9.933903,-0.5790,0.4542,2.7254,-0.1932,0.7692,0.2269,
9.988363,-0.5790,0.4542,2.7254,0.1202,-0.0550,-0.3896,
9.997174,-0.5790,0.4542,2.7254,0.1202,-0.0550,-0.3896,
9.999735,-2.3073,3.7123,-1.9665,0.1202,-0.0550,-0.3896,
10.058267,-2.3073,3.7123,-1.9665,-0.1683,-0.4928,-0.2066,
10.061384,-2.3073,3.7123,-1.9665,-0.1683,-0.4928,-0.2066,
10.062402,-1.3956,-0.2083,-3.6836,-0.1683,-0.4928,-0.2066,
10.118495,-1.3956,-0.2083,-3.6836,0.5838,0.3325,0.2109,
10.125973,-1.3956,-0.2083,-3.6836,0.5838,0.3325,0.2109,
10.126478,0.2167,-0.8775,-1.2681,0.5838,0.3325,0.2109,
10.184373,0.2167,-0.8775,-1.2681,0.5382,-0.4650,-0.1298,
10.192313,0.2167,-0.8775,-1.2681,0.5382,-0.4650,-0.1298,
10.193893,-1.3025,-1.1775,-1.6520,0.5382,-0.4650,-0.1298,
10.249207,-1.3025,-1.1775,-1.6520,0.5924,-0.8467,-0.1173,
10.257558,-1.3025,-1.1775,-1.6520,0.5924,-0.8467,-0.1173,
10.258323,1.4156,-1.5029,-0.0749,0.5924,-0.8467,-0.1173,
10.315037,1.4156,-1.5029,-0.0749,0.6397,-0.4450,-0.2500,
10.322935,1.4156,-1.5029,-0.0749,0.6397,-0.4450,-0.2500,
10.323303,2.2973,-0.5689,-0.1659,0.6397,-0.4450,-0.2500,
10.380603,2.2973,-0.5689,-0.1659,0.4331,-0.3115,-0.4073,
10.388536,2.2973,-0.5689,-0.1659,0.4331,-0.3115,-0.4073,
10.389299,1.7981,-0.2319,0.6169,0.4331,-0.3115,-0.4073,
10.446938,1.7981,-0.2319,0.6169,0.3845,-0.3502,-0.1378,
10.455318,1.7981,-0.2319,0.6169,0.3845,-0.3502,-0.1378,
10.455915,2.0875,0.2199,0.3495,0.3845,-0.3502,-0.1378,
10.512392,2.0875,0.2199,0.3495,0.2812,-0.1859,0.3054,
10.519520,2.0875,0.2199,0.3495,0.2812,-0.1859,0.3054,
10.519856,0.5339,3.4316,-0.2382,0.2812,-0.1859,0.3054,
10.576441,0.5339,3.4316,-0.2382,-0.2527,0.4459,0.8993,
10.585008,0.5339,3.4316,-0.2382,-0.2527,0.4459,0.8993,
10.585339,-1.2270,1.2126,-2.1036,-0.2527,0.4459,0.8993,
10.642914,-1.2270,1.2126,-2.1036,-0.6182,0.6607,0.4296,
10.650848,-1.2270,1.2126,-2.1036,-0.6182,0.6607,0.4296,
10.651795,-1.5073,1.4740,-0.2740,-0.6182,0.6607,0.4296,
10.707934,-1.5073,1.4740,-0.2740,-0.7608,0.9552,0.0962,
10.716641,-1.5073,1.4740,-0.2740,-0.7608,0.9552,0.0962,
10.717817,-0.3722,-0.5207,-1.0456,-0.7608,0.9552,0.0962,
10.773319,-0.3722,-0.5207,-1.0456,-0.5521,1.3674,0.0154,
10.780704,-0.3722,-0.5207,-1.0456,-0.5521,1.3674,0.0154,
10.781157,-1.0926,-2.2009,-0.0337,-0.5521,1.3674,0.0154,
10.838659,-1.0926,-2.2009,-0.0337,-0.3601,0.9867,-0.0999,
10.847148,-1.0926,-2.2009,-0.0337,-0.3601,0.9867,-0.0999,
10.848660,-1.4412,-1.1545,0.6728,-0.3601,0.9867,-0.0999,
10.905810,-1.4412,-1.1545,0.6728,0.0596,0.4055,-0.0510,
10.913279,-1.4412,-1.1545,0.6728,0.0596,0.4055,-0.0510,
10.914793,-0.4938,-2.4644,1.3487,0.0596,0.4055,-0.0510,
10.968910,-0.4938,-2.4644,1.3487,-0.1220,0.3210,0.1097,
10.977957,-0.4938,-2.4644,1.3487,-0.1220,0.3210,0.1097,
10.979335,0.5382,0.2963,1.2107,-0.1220,0.3210,0.1097,
11.036886,0.5382,0.2963,1.2107,-0.3001,0.3461,0.1932,
11.043862,0.5382,0.2963,1.2107,-0.3001,0.3461,0.1932,
11.044921,0.6990,0.9051,2.7380,-0.3001,0.3461,0.1932,
11.101439,0.6990,0.9051,2.7380,-0.2573,-0.1203,-0.1565,
11.109452,0.6990,0.9051,2.7380,-0.2573,-0.1203,-0.1565,
11.110317,-2.1133,3.9839,-0.9383,-0.2573,-0.1203,-0.1565,
11.165188,-2.1133,3.9839,-0.9383,-0.1283,-0.5731,-0.1684,
11.174547,-2.1133,3.9839,-0.9383,-0.1283,-0.5731,-0.1684,
11.176226,-1.7884,0.4902,-3.4955,-0.1283,-0.5731,-0.1684,
11.232369,-1.7884,0.4902,-3.4955,0.4609,0.1793,0.0896,
11.239278,-1.7884,0.4902,-3.4955,0.4609,0.1793,0.0896,
11.239741,-0.3304,-1.1235,-0.9541,0.4609,0.1793,0.0896,
11.296894,-0.3304,-1.1235,-0.9541,0.5823,-0.7863,-0.0826,
11.305593,-0.3304,-1.1235,-0.9541,0.5823,-0.7863,-0.0826,
11.306193,-1.9854,-0.5013,-1.9586,0.5823,-0.7863,-0.0826,
11.363050,-1.9854,-0.5013,-1.9586,0.3899,-1.3331,-0.0208,
11.371611,-1.9854,-0.5013,-1.9586,0.3899,-1.3331,-0.0208,
11.371939,0.7017,-2.1529,-0.2194,0.3899,-1.3331,-0.0208,
11.428439,0.7017,-2.1529,-0.2194,0.6260,-0.9336,-0.3219,
11.436126,0.7017,-2.1529,-0.2194,0.6260,-0.9336,-0.3219,
11.436476,2.5557,-0.6759,-0.1321,0.6260,-0.9336,-0.3219,
11.493447,2.5557,-0.6759,-0.1321,0.3812,-0.4546,-0.4640,
11.503219,2.5557,-0.6759,-0.1321,0.3812,-0.4546,-0.4640,
11.503691,2.4069,-0.4451,0.7232,0.3812,-0.4546,-0.4640,
11.559877,2.4069,-0.4451,0.7232,0.4293,-0.0864,-0.3717,
11.567280,2.4069,-0.4451,0.7232,0.4293,-0.0864,-0.3717,
11.568177,2.1991,0.2358,0.4153,0.4293,-0.0864,-0.3717,
11.625770,2.1991,0.2358,0.4153,0.4516,0.1622,-0.0687,
11.634099,2.1991,0.2358,0.4153,0.4516,0.1622,-0.0687,
11.634916,0.0515,2.7784,-0.6023,0.4516,0.1622,-0.0687,
11.689005,0.0515,2.7784,-0.6023,-0.5246,0.2190,0.7865,
11.698349,0.0515,2.7784,-0.6023,-0.5246,0.2190,0.7865,
11.699615,-1.8494,2.0560,-2.2440,-0.5246,0.2190,0.7865,
11.756432,-1.8494,2.0560,-2.2440,-0.7979,0.4059,0.4611,
11.763817,-1.8494,2.0560,-2.2440,-0.7979,0.4059,0.4611,
11.764277,-0.0674,2.2654,-0.0438,-0.7979,0.4059,0.4611,
11.821912,-0.0674,2.2654,-0.0438,-0.7842,1.3610,0.2202,
11.830250,-0.0674,2.2654,-0.0438,-0.7842,1.3610,0.2202,
11.830698,0.6622,-1.0155,-1.2770,-0.7842,1.3610,0.2202,
11.886369,0.6622,-1.0155,-1.2770,-0.5877,2.0007,0.0533,
11.894883,0.6622,-1.0155,-1.2770,-0.5877,2.0007,0.0533,
11.896282,-1.4913,-2.5221,-0.9975,-0.5877,2.0007,0.0533,
11.952838,-1.4913,-2.5221,-0.9975,-0.4371,1.1671,0.0484,
11.962657,-1.4913,-2.5221,-0.9975,-0.4371,1.1671,0.0484,
11.964266,-1.7679,-1.9624,0.9182,-0.4371,1.1671,0.0484,
12.018781,-1.7679,-1.9624,0.9182,0.2419,0.8306,-0.1941,
12.025164,-1.7679,-1.9624,0.9182,0.2419,0.8306,-0.1941,
12.025525,0.9282,-2.0568,0.5214,0.2419,0.8306,-0.1941,
12.082946,0.9282,-2.0568,0.5214,-0.1385,1.0563,-0.0334,
12.092175,0.9282,-2.0568,0.5214,-0.1385,1.0563,-0.0334,
12.092790,0.4073,2.3916,1.1940,-0.1385,1.0563,-0.0334,
12.148295,0.4073,2.3916,1.1940,-0.5316,0.8619,0.1600,
12.157763,0.4073,2.3916,1.1940,-0.5316,0.8619,0.1600,
12.158100,-0.2179,0.6043,2.0864,-0.5316,0.8619,0.1600,
12.215090,-0.2179,0.6043,2.0864,0.4110,0.0244,-0.5658,
12.223555,-0.2179,0.6043,2.0864,0.4110,0.0244,-0.5658,
12.223892,-1.8624,3.2732,-3.4453,0.4110,0.0244,-0.5658,
12.280113,-1.8624,3.2732,-3.4453,-0.3720,0.1487,0.0811,
12.288626,-1.8624,3.2732,-3.4453,-0.3720,0.1487,0.0811,
12.289449,0.3965,-1.5786,-2.5780,-0.3720,0.1487,0.0811,
12.346034,0.3965,-1.5786,-2.5780,0.8092,0.7836,0.0392,
12.355117,0.3965,-1.5786,-2.5780,0.8092,0.7836,0.0392,
12.355533,1.5189,-0.4809,-2.1846,0.8092,0.7836,0.0392,
12.411730,1.5189,-0.4809,-2.1846,0.5426,0.5507,-0.1915,
12.420137,1.5189,-0.4809,-2.1846,0.5426,0.5507,-0.1915,
12.420493,-0.2367,-0.8234,-1.2779,0.5426,0.5507,-0.1915,
12.477112,-0.2367,-0.8234,-1.2779,0.6200,0.3561,-0.0055,
12.485170,-0.2367,-0.8234,-1.2779,0.6200,0.3561,-0.0055,
12.486016,1.1321,-1.4817,-0.5943,0.6200,0.3561,-0.0055,
12.541371,1.1321,-1.4817,-0.5943,0.6651,0.2712,-0.1582,
12.550671,1.1321,-1.4817,-0.5943,0.6651,0.2712,-0.1582,
12.551797,2.1892,-0.4735,-0.2868,0.6651,0.2712,-0.1582,
12.607196,2.1892,-0.4735,-0.2868,0.4896,0.2943,-0.2579,
12.613879,2.1892,-0.4735,-0.2868,0.4896,0.2943,-0.2579,
12.615290,2.1433,0.0991,0.2572,0.4896,0.2943,-0.2579,
12.673660,2.1433,0.0991,0.2572,0.2216,-0.1177,-0.2266,
12.681277,2.1433,0.0991,0.2572,0.2216,-0.1177,-0.2266,
12.683509,1.8271,0.7291,0.1554,0.2216,-0.1177,-0.2266,
12.738257,1.8271,0.7291,0.1554,0.1775,-0.0111,0.2396,
12.747131,1.8271,0.7291,0.1554,0.1775,-0.0111,0.2396,
12.747673,1.0060,2.6420,-1.7491,0.1775,-0.0111,0.2396,
12.803064,1.0060,2.6420,-1.7491,-0.7475,0.4921,0.7882,
12.814478,1.0060,2.6420,-1.7491,-0.7475,0.4921,0.7882,
12.816822,-1.7571,1.4326,-2.2341,-0.7475,0.4921,0.7882,
12.869543,-1.7571,1.4326,-2.2341,-0.6222,0.6315,0.4198,
12.877945,-1.7571,1.4326,-2.2341,-0.6222,0.6315,0.4198,
12.879095,0.2465,2.4169,-1.0212,-0.6222,0.6315,0.4198,
12.935051,0.2465,2.4169,-1.0212,-0.6191,1.9025,0.1353,
12.943032,0.2465,2.4169,-1.0212,-0.6191,1.9025,0.1353,
12.943458,1.0992,-1.4712,-1.4327,-0.6191,1.9025,0.1353,
12.999223,1.0992,-1.4712,-1.4327,-0.4065,2.3659,-0.1825,
13.008056,1.0992,-1.4712,-1.4327,-0.4065,2.3659,-0.1825,
13.008760,-0.7852,-1.6248,-0.9586,-0.4065,2.3659,-0.1825,
13.067480,-0.7852,-1.6248,-0.9586,-0.3271,1.5343,0.1301,
13.073575,-0.7852,-1.6248,-0.9586,-0.3271,1.5343,0.1301,
13.074110,-1.7335,-1.1635,0.0609,-0.3271,1.5343,0.1301,
13.130484,-1.7335,-1.1635,0.0609,0.1698,0.8354,0.3584,
13.139617,-1.7335,-1.1635,0.0609,0.1698,0.8354,0.3584,
13.139937,0.3887,-2.5748,0.3655,0.1698,0.8354,0.3584,
13.196243,0.3887,-2.5748,0.3655,0.1443,0.9555,0.0901,
13.204635,0.3887,-2.5748,0.3655,0.1443,0.9555,0.0901,
13.205483,1.1267,0.3367,0.9353,0.1443,0.9555,0.0901,
13.262540,1.1267,0.3367,0.9353,-0.2973,0.7274,0.1726,
13.270678,1.1267,0.3367,0.9353,-0.2973,0.7274,0.1726,
13.271393,0.4000,1.8228,1.6238,-0.2973,0.7274,0.1726,
13.328104,0.4000,1.8228,1.6238,-0.6619,-0.2007,0.0035,
13.336400,0.4000,1.8228,1.6238,-0.6619,-0.2007,0.0035,
13.336766,-1.2652,3.2363,-0.5668,-0.6619,-0.2007,0.0035,
13.392917,-1.2652,3.2363,-0.5668,-0.1048,-0.1888,-0.3467,
13.400949,-1.2652,3.2363,-0.5668,-0.1048,-0.1888,-0.3467,
13.401771,-1.0903,-1.2050,-3.0759,-0.1048,-0.1888,-0.3467,
13.458312,-1.0903,-1.2050,-3.0759,0.4672,0.2382,0.0582,
13.466215,-1.0903,-1.2050,-3.0759,0.4672,0.2382,0.0582,
13.467279,0.1889,-0.6149,-1.9528,0.4672,0.2382,0.0582,
13.522805,0.1889,-0.6149,-1.9528,0.5185,-0.3743,-0.1472,
13.531935,0.1889,-0.6149,-1.9528,0.5185,-0.3743,-0.1472,
13.533002,-1.3830,0.0007,-1.7209,0.5185,-0.3743,-0.1472,
13.590470,-1.3830,0.0007,-1.7209,0.5767,-0.8086,0.0557,
13.597572,-1.3830,0.0007,-1.7209,0.5767,-0.8086,0.0557,
13.598550,0.8060,-2.3272,-0.5431,0.5767,-0.8086,0.0557,
13.654830,0.8060,-2.3272,-0.5431,0.7146,-0.6976,-0.2340,
13.663070,0.8060,-2.3272,-0.5431,0.7146,-0.6976,-0.2340,
13.664213,2.3087,-0.6289,-0.4236,0.7146,-0.6976,-0.2340,
13.720501,2.3087,-0.6289,-0.4236,0.4756,-0.3603,-0.3319,
13.727188,2.3087,-0.6289,-0.4236,0.4756,-0.3603,-0.3319,
13.727588,2.5076,-0.2812,0.3773,0.4756,-0.3603,-0.3319,
13.786403,2.5076,-0.2812,0.3773,0.4279,-0.1608,-0.2582,
13.795010,2.5076,-0.2812,0.3773,0.4279,-0.1608,-0.2582,
13.795338,2.3345,0.5612,0.2895,0.4279,-0.1608,-0.2582,
13.851869,2.3345,0.5612,0.2895,0.3445,0.0930,0.0403,
13.859640,2.3345,0.5612,0.2895,0.3445,0.0930,0.0403,
13.860975,1.6531,1.5087,-0.9073,0.3445,0.0930,0.0403,
13.917118,1.6531,1.5087,-0.9073,-0.1318,0.2848,0.8173,
13.925094,1.6531,1.5087,-0.9073,-0.1318,0.2848,0.8173,
13.926190,-1.2352,2.1307,-2.4452,-0.1318,0.2848,0.8173,
13.982725,-1.2352,2.1307,-2.4452,-0.8334,0.4268,0.6054,
13.991326,-1.2352,2.1307,-2.4452,-0.8334,0.4268,0.6054,
13.992313,-1.2537,1.4919,-0.6817,-0.8334,0.4268,0.6054,
14.046087,-1.2537,1.4919,-0.6817,-0.8095,0.6342,0.0999,
14.056914,-1.2537,1.4919,-0.6817,-0.8095,0.6342,0.0999,
14.057259,0.1561,0.5773,-1.2049,-0.8095,0.6342,0.0999,
14.113453,0.1561,0.5773,-1.2049,-0.6101,1.6264,0.0284,
14.121786,0.1561,0.5773,-1.2049,-0.6101,1.6264,0.0284,
14.122857,-0.0148,-2.3277,-0.9395,-0.6101,1.6264,0.0284,
14.179330,-0.0148,-2.3277,-0.9395,-0.4087,1.3538,-0.0480,
14.187626,-0.0148,-2.3277,-0.9395,-0.4087,1.3538,-0.0480,
14.188614,-2.0607,-1.7800,0.0352,-0.4087,1.3538,-0.0480,
14.244035,-2.0607,-1.7800,0.0352,-0.0727,0.5567,0.1672,
14.252960,-2.0607,-1.7800,0.0352,-0.0727,0.5567,0.1672,
14.253317,-0.6189,-2.4257,0.6034,-0.0727,0.5567,0.1672,
14.310262,-0.6189,-2.4257,0.6034,0.2654,0.5208,0.1095,
14.318229,-0.6189,-2.4257,0.6034,0.2654,0.5208,0.1095,
14.318576,1.8076,-0.8950,1.2420,0.2654,0.5208,0.1095,
14.375597,1.8076,-0.8950,1.2420,-0.1400,0.6026,-0.0064,
14.384266,1.8076,-0.8950,1.2420,-0.1400,0.6026,-0.0064,
14.384621,0.4604,2.2484,1.7854,-0.1400,0.6026,-0.0064,
14.438678,0.4604,2.2484,1.7854,-0.7266,-0.1718,0.1093,
14.447722,0.4604,2.2484,1.7854,-0.7266,-0.1718,0.1093,
14.448795,-1.0977,4.5762,0.1742,-0.7266,-0.1718,0.1093,
14.506133,-1.0977,4.5762,0.1742,-0.0365,-0.2822,-0.4171,
14.514540,-1.0977,4.5762,0.1742,-0.0365,-0.2822,-0.4171,
14.515762,-2.2291,-1.3670,-2.7500,-0.0365,-0.2822,-0.4171,
14.572451,-2.2291,-1.3670,-2.7500,0.4299,0.0006,0.1483,
14.580028,-2.2291,-1.3670,-2.7500,0.4299,0.0006,0.1483,
14.581131,-0.4274,-2.2075,-1.9332,0.4299,0.0006,0.1483,
14.637753,-0.4274,-2.2075,-1.9332,0.5832,-0.7080,-0.0728,
14.646215,-0.4274,-2.2075,-1.9332,0.5832,-0.7080,-0.0728,
14.646677,-1.6151,0.8249,-1.7457,0.5832,-0.7080,-0.0728,
14.703912,-1.6151,0.8249,-1.7457,0.3210,-1.1037,0.2367,
14.710978,-1.6151,0.8249,-1.7457,0.3210,-1.1037,0.2367,
14.711325,0.4542,-1.5347,-0.7269,0.3210,-1.1037,0.2367,
14.769331,0.4542,-1.5347,-0.7269,0.5466,-0.7996,-0.1124,
14.776453,0.4542,-1.5347,-0.7269,0.5466,-0.7996,-0.1124,
14.777566,1.9125,-1.0237,-0.2217,0.5466,-0.7996,-0.1124,
14.834423,1.9125,-1.0237,-0.2217,0.4276,-0.4520,-0.4246,
14.840386,1.9125,-1.0237,-0.2217,0.4276,-0.4520,-0.4246,
14.840717,1.9544,-0.6048,0.2377,0.4276,-0.4520,-0.4246,
14.900088,1.9544,-0.6048,0.2377,0.4044,-0.3943,-0.4892,
14.907590,1.9544,-0.6048,0.2377,0.4044,-0.3943,-0.4892,
14.907930,1.2572,-0.3355,0.9789,0.4044,-0.3943,-0.4892,
14.962961,1.2572,-0.3355,0.9789,0.5591,-0.3974,-0.0704,
14.971898,1.2572,-0.3355,0.9789,0.5591,-0.3974,-0.0704,
14.972797,2.1558,0.4523,-0.4415,0.5591,-0.3974,-0.0704,
15.029065,2.1558,0.4523,-0.4415,0.1191,-0.1286,0.5545,
15.038027,2.1558,0.4523,-0.4415,0.1191,-0.1286,0.5545,
15.038341,-1.5630,3.0688,-1.2767,0.1191,-0.1286,0.5545,
15.095917,-1.5630,3.0688,-1.2767,-0.8018,-0.2225,0.8347,
15.104372,-1.5630,3.0688,-1.2767,-0.8018,-0.2225,0.8347,
15.104713,-2.8484,1.3821,-0.4769,-0.8018,-0.2225,0.8347,
15.160535,-2.8484,1.3821,-0.4769,-0.6724,-0.2757,0.1067,
15.169244,-2.8484,1.3821,-0.4769,-0.6724,-0.2757,0.1067,
15.170208,-1.0354,1.3584,-0.4654,-0.6724,-0.2757,0.1067,
15.227983,-1.0354,1.3584,-0.4654,-0.7188,0.5350,0.1446,
15.235317,-1.0354,1.3584,-0.4654,-0.7188,0.5350,0.1446,
15.236336,-0.2325,-1.9741,-0.4184,-0.7188,0.5350,0.1446,
15.290014,-0.2325,-1.9741,-0.4184,-0.3606,0.7897,0.0921,
15.299142,-0.2325,-1.9741,-0.4184,-0.3606,0.7897,0.0921,
15.300332,-0.9041,-2.0622,0.7835,-0.3606,0.7897,0.0921,
15.358771,-0.9041,-2.0622,0.7835,-0.2195,0.2799,-0.0851,
15.366309,-0.9041,-2.0622,0.7835,-0.2195,0.2799,-0.0851,
15.367463,-1.0118,-1.4604,1.5100,-0.2195,0.2799,-0.0851,
15.422306,-1.0118,-1.4604,1.5100,0.2880,0.1338,-0.1271,
15.430815,-1.0118,-1.4604,1.5100,0.2880,0.1338,-0.1271,
15.432019,-0.3528,-0.7179,1.8439,0.2880,0.1338,-0.1271,
15.489512,-0.3528,-0.7179,1.8439,-0.2607,0.0464,-0.0098,
15.496922,-0.3528,-0.7179,1.8439,-0.2607,0.0464,-0.0098,
15.498286,0.2287,2.3968,2.0640,-0.2607,0.0464,-0.0098,
15.553245,0.2287,2.3968,2.0640,-0.5139,-0.1834,0.1350,
15.562879,0.2287,2.3968,2.0640,-0.5139,-0.1834,0.1350,
15.564611,-0.8262,1.9644,1.7954,-0.5139,-0.1834,0.1350,
15.618825,-0.8262,1.9644,1.7954,0.4328,-0.4694,-0.4239,
15.626519,-0.8262,1.9644,1.7954,0.4328,-0.4694,-0.4239,
15.627717,-1.7668,-0.3403,-2.7780,0.4328,-0.4694,-0.4239,
15.684350,-1.7668,-0.3403,-2.7780,0.0403,-0.4412,-0.3777,
15.692636,-1.7668,-0.3403,-2.7780,0.0403,-0.4412,-0.3777,
15.693230,-1.5096,-1.1085,-2.3800,0.0403,-0.4412,-0.3777,
15.750123,-1.5096,-1.1085,-2.3800,0.5310,-0.5441,-0.1538,
15.758225,-1.5096,-1.1085,-2.3800,0.5310,-0.5441,-0.1538,
15.759038,-0.2953,-0.8671,-1.9740,0.5310,-0.5441,-0.1538,
15.815716,-0.2953,-0.8671,-1.9740,0.4954,-0.9733,-0.0215,
15.823101,-0.2953,-0.8671,-1.9740,0.4954,-0.9733,-0.0215,
15.824194,-0.1958,-0.7269,-1.2222,0.4954,-0.9733,-0.0215,
15.879833,-0.1958,-0.7269,-1.2222,0.4925,-0.9701,-0.0968,
15.889659,-0.1958,-0.7269,-1.2222,0.4925,-0.9701,-0.0968,
15.890400,1.6251,-1.3748,-0.2917,0.4925,-0.9701,-0.0968,
15.947038,1.6251,-1.3748,-0.2917,0.5227,-0.4507,-0.3781,
15.954208,1.6251,-1.3748,-0.2917,0.5227,-0.4507,-0.3781,
15.955047,1.7239,-0.7010,0.5433,0.5227,-0.4507,-0.3781,
16.013296,1.7239,-0.7010,0.5433,0.4241,-0.4592,-0.5058,
16.021358,1.7239,-0.7010,0.5433,0.4241,-0.4592,-0.5058,
16.021701,1.4616,0.3666,1.3092,0.4241,-0.4592,-0.5058,
16.077098,1.4616,0.3666,1.3092,0.3972,-0.3015,-0.0977,
16.084925,1.4616,0.3666,1.3092,0.3972,-0.3015,-0.0977,
16.086682,3.0045,0.3429,0.1317,0.3972,-0.3015,-0.0977,
16.141954,3.0045,0.3429,0.1317,0.2508,0.1275,0.3218,
16.149919,3.0045,0.3429,0.1317,0.2508,0.1275,0.3218,
16.150781,-1.1637,3.4436,-0.5190,0.2508,0.1275,0.3218,
16.207706,-1.1637,3.4436,-0.5190,-0.6422,-0.0284,0.8740,
16.214994,-1.1637,3.4436,-0.5190,-0.6422,-0.0284,0.8740,
16.216540,-2.0077,0.3498,-1.2641,-0.6422,-0.0284,0.8740,
16.273016,-2.0077,0.3498,-1.2641,-0.7101,0.3031,0.3673,
16.283749,-2.0077,0.3498,-1.2641,-0.7101,0.3031,0.3673,
16.285214,-0.3143,2.1961,-0.6240,-0.7101,0.3031,0.3673,
16.338336,-0.3143,2.1961,-0.6240,-0.8225,0.9531,0.1796,
16.346882,-0.3143,2.1961,-0.6240,-0.8225,0.9531,0.1796,
16.347974,-0.1798,-1.2027,-0.9169,-0.8225,0.9531,0.1796,
16.405664,-0.1798,-1.2027,-0.9169,-0.5512,1.2514,0.0936,
16.412448,-0.1798,-1.2027,-0.9169,-0.5512,1.2514,0.0936,
16.413243,-1.0812,-2.4984,0.0501,-0.5512,1.2514,0.0936,
16.470128,-1.0812,-2.4984,0.0501,-0.4815,0.7784,-0.0704,
16.477875,-1.0812,-2.4984,0.0501,-0.4815,0.7784,-0.0704,
16.478831,-1.1618,-0.8498,0.2906,-0.4815,0.7784,-0.0704,
16.536216,-1.1618,-0.8498,0.2906,-0.1712,0.4125,-0.1327,
16.545700,-1.1618,-0.8498,0.2906,-0.1712,0.4125,-0.1327,
16.548414,-0.1186,-0.9920,1.0554,-0.1712,0.4125,-0.1327,
16.601606,-0.1186,-0.9920,1.0554,-0.1249,0.4397,-0.0809,
16.610029,-0.1186,-0.9920,1.0554,-0.1249,0.4397,-0.0809,
16.611138,-0.0048,2.0331,2.0169,-0.1249,0.4397,-0.0809,
16.668014,-0.0048,2.0331,2.0169,-0.5603,0.2399,0.2653,
16.675821,-0.0048,2.0331,2.0169,-0.5603,0.2399,0.2653,
16.676888,-0.1380,0.9961,2.0159,-0.5603,0.2399,0.2653,
16.733006,-0.1380,0.9961,2.0159,0.4614,-0.0308,-0.4542,
16.741009,-0.1380,0.9961,2.0159,0.4614,-0.0308,-0.4542,
16.742156,-1.8013,1.9785,-2.9778,0.4614,-0.0308,-0.4542,
16.796275,-1.8013,1.9785,-2.9778,0.0006,0.2120,-0.0099,
16.806113,-1.8013,1.9785,-2.9778,0.0006,0.2120,-0.0099,
16.807087,-0.2393,-1.7509,-2.4671,0.0006,0.2120,-0.0099,
16.864028,-0.2393,-1.7509,-2.4671,0.6422,0.2637,-0.1243,
16.872111,-0.2393,-1.7509,-2.4671,0.6422,0.2637,-0.1243,
16.873109,-0.3889,-0.5167,-1.8403,0.6422,0.2637,-0.1243,
16.929477,-0.3889,-0.5167,-1.8403,0.4207,-0.3424,-0.0716,
16.937501,-0.3889,-0.5167,-1.8403,0.4207,-0.3424,-0.0716,
16.938498,0.0713,-0.9687,-0.8908,0.4207,-0.3424,-0.0716,
16.994166,0.0713,-0.9687,-0.8908,0.5811,-0.2066,-0.1423,
17.000826,0.0713,-0.9687,-0.8908,0.5811,-0.2066,-0.1423,
17.001137,2.0815,-1.2582,-0.5350,0.5811,-0.2066,-0.1423,
17.060193,2.0815,-1.2582,-0.5350,0.6300,0.2143,-0.3619,
17.068338,2.0815,-1.2582,-0.5350,0.6300,0.2143,-0.3619,
17.069413,1.7048,-0.7128,-0.0229,0.6300,0.2143,-0.3619,
17.125525,1.7048,-0.7128,-0.0229,0.4284,0.0684,-0.3986,
17.133748,1.7048,-0.7128,-0.0229,0.4284,0.0684,-0.3986,
17.134527,1.5364,0.3309,0.4058,0.4284,0.0684,-0.3986,
17.191221,1.5364,0.3309,0.4058,0.2871,0.0791,-0.1753,
17.198469,1.5364,0.3309,0.4058,0.2871,0.0791,-0.1753,
17.198942,1.9283,-0.2296,0.4213,0.2871,0.0791,-0.1753,
17.256533,1.9283,-0.2296,0.4213,0.2225,0.2011,0.1385,
17.264431,1.9283,-0.2296,0.4213,0.2225,0.2011,0.1385,
17.265185,0.6404,3.5444,-1.6701,0.2225,0.2011,0.1385,
17.322038,0.6404,3.5444,-1.6701,-0.7928,0.3633,0.4939,
17.330179,0.6404,3.5444,-1.6701,-0.7928,0.3633,0.4939,
17.331738,-0.8013,0.5272,-1.6781,-0.7928,0.3633,0.4939,
17.387243,-0.8013,0.5272,-1.6781,-0.5930,1.0113,0.2216,
17.394803,-0.8013,0.5272,-1.6781,-0.5930,1.0113,0.2216,
17.395633,1.5352,1.2302,-1.2430,-0.5930,1.0113,0.2216,
17.452445,1.5352,1.2302,-1.2430,-0.7275,2.3094,0.0492,
17.461870,1.5352,1.2302,-1.2430,-0.7275,2.3094,0.0492,
17.462887,0.9214,-1.1029,-1.5823,-0.7275,2.3094,0.0492,
17.517714,0.9214,-1.1029,-1.5823,-0.5319,2.6814,0.1544,
17.527288,0.9214,-1.1029,-1.5823,-0.5319,2.6814,0.1544,
17.528488,-0.1860,-1.4943,-0.9179,-0.5319,2.6814,0.1544,
17.583546,-0.1860,-1.4943,-0.9179,-0.4826,2.0136,0.5104,
17.592214,-0.1860,-1.4943,-0.9179,-0.4826,2.0136,0.5104,
17.593252,-0.3925,-0.4066,-0.6564,-0.4826,2.0136,0.5104,
17.649536,-0.3925,-0.4066,-0.6564,-0.0864,1.4154,0.4180,
17.657325,-0.3925,-0.4066,-0.6564,-0.0864,1.4154,0.4180,
17.657848,0.4306,-1.8471,-0.2322,-0.0864,1.4154,0.4180,
17.714828,0.4306,-1.8471,-0.2322,0.1167,1.3912,-0.0470,
17.722646,0.4306,-1.8471,-0.2322,0.1167,1.3912,-0.0470,
17.723889,-0.2970,1.0427,0.6071,0.1167,1.3912,-0.0470,
17.780222,-0.2970,1.0427,0.6071,-0.3184,0.4904,0.1289,
17.788116,-0.2970,1.0427,0.6071,-0.3184,0.4904,0.1289,
17.788863,-1.0482,1.8123,1.4499,-0.3184,0.4904,0.1289,
17.846336,-1.0482,1.8123,1.4499,0.3529,-0.5067,-0.0238,
17.854356,-1.0482,1.8123,1.4499,0.3529,-0.5067,-0.0238,
17.854984,0.3389,1.3954,-1.6547,0.3529,-0.5067,-0.0238,
17.909871,0.3389,1.3954,-1.6547,-0.0945,0.4255,-0.2101,
17.918586,0.3389,1.3954,-1.6547,-0.0945,0.4255,-0.2101,
17.919825,0.6083,-0.9309,-2.2227,-0.0945,0.4255,-0.2101,
17.975230,0.6083,-0.9309,-2.2227,0.5892,0.5093,-0.1616,
17.984192,0.6083,-0.9309,-2.2227,0.5892,0.5093,-0.1616,
17.984793,0.7824,-0.9443,-2.4502,0.5892,0.5093,-0.1616,
18.042032,0.7824,-0.9443,-2.4502,0.5742,0.5941,-0.0971,
18.051043,0.7824,-0.9443,-2.4502,0.5742,0.5941,-0.0971,
18.052339,0.0458,-0.1141,-0.7023,0.5742,0.5941,-0.0971,
18.106402,0.0458,-0.1141,-0.7023,0.5440,0.0710,0.0005,
18.113912,0.0458,-0.1141,-0.7023,0.5440,0.0710,0.0005,
18.114345,1.3550,-1.5120,-0.6726,0.5440,0.0710,0.0005,
18.172138,1.3550,-1.5120,-0.6726,0.6185,0.1964,-0.2381,
18.180703,1.3550,-1.5120,-0.6726,0.6185,0.1964,-0.2381,
18.181564,2.4817,-0.4294,-0.3683,0.6185,0.1964,-0.2381,
18.237646,2.4817,-0.4294,-0.3683,0.4543,0.4203,-0.3384,
18.246555,2.4817,-0.4294,-0.3683,0.4543,0.4203,-0.3384,
18.247549,2.1045,0.1757,0.3211,0.4543,0.4203,-0.3384,
18.303049,2.1045,0.1757,0.3211,0.4103,0.1669,-0.2847,
18.311627,2.1045,0.1757,0.3211,0.4103,0.1669,-0.2847,
18.312104,1.8572,1.0693,0.1843,0.4103,0.1669,-0.2847,
18.367992,1.8572,1.0693,0.1843,0.2149,0.0388,0.1258,
18.376670,1.8572,1.0693,0.1843,0.2149,0.0388,0.1258,
18.377261,1.4928,1.8077,-1.2140,0.2149,0.0388,0.1258,
18.434461,1.4928,1.8077,-1.2140,-0.5227,0.2421,0.7695,
18.442179,1.4928,1.8077,-1.2140,-0.5227,0.2421,0.7695,
18.442702,-0.7078,0.5437,-2.3150,-0.5227,0.2421,0.7695,
18.499727,-0.7078,0.5437,-2.3150,-0.7185,0.6839,0.4716,
18.507967,-0.7078,0.5437,-2.3150,-0.7185,0.6839,0.4716,
18.508936,0.7247,1.9603,-0.5980,-0.7185,0.6839,0.4716,
18.565880,0.7247,1.9603,-0.5980,-0.7309,1.7150,0.2170,
18.573508,0.7247,1.9603,-0.5980,-0.7309,1.7150,0.2170,
18.574553,1.0201,-0.1745,-1.6497,-0.7309,1.7150,0.2170,
18.631047,1.0201,-0.1745,-1.6497,-0.5615,2.2330,0.0619,
18.639716,1.0201,-0.1745,-1.6497,-0.5615,2.2330,0.0619,
18.640740,-0.6621,-2.0491,-0.7227,-0.5615,2.2330,0.0619,
18.696370,-0.6621,-2.0491,-0.7227,-0.4423,1.7827,0.1063,
18.704692,-0.6621,-2.0491,-0.7227,-0.4423,1.7827,0.1063,
18.705798,-1.0552,-1.0742,-0.1349,-0.4423,1.7827,0.1063,
18.761917,-1.0552,-1.0742,-0.1349,0.0255,1.1002,0.2080,
18.770748,-1.0552,-1.0742,-0.1349,0.0255,1.1002,0.2080,
18.771826,0.4157,-2.0226,-0.1903,0.0255,1.1002,0.2080,
18.826783,0.4157,-2.0226,-0.1903,-0.0982,0.8424,0.0470,
18.836018,0.4157,-2.0226,-0.1903,-0.0982,0.8424,0.0470,
18.837115,-0.1714,1.2199,1.2753,-0.0982,0.8424,0.0470,
18.894683,-0.1714,1.2199,1.2753,-0.4204,0.3812,0.1625,
18.901677,-0.1714,1.2199,1.2753,-0.4204,0.3812,0.1625,
18.902675,-0.0645,1.0139,2.7541,-0.4204,0.3812,0.1625,
18.958559,-0.0645,1.0139,2.7541,-0.2462,-0.7028,0.1770,
18.966070,-0.0645,1.0139,2.7541,-0.2462,-0.7028,0.1770,
18.966739,-0.0271,2.0703,-1.0811,-0.2462,-0.7028,0.1770,
19.022428,-0.0271,2.0703,-1.0811,-0.0942,0.0689,-0.0987,
19.031821,-0.0271,2.0703,-1.0811,-0.0942,0.0689,-0.0987,
19.032394,0.1137,-1.2474,-1.9432,-0.0942,0.0689,-0.0987,
19.090716,0.1137,-1.2474,-1.9432,0.6031,0.4462,-0.2511,
19.098114,0.1137,-1.2474,-1.9432,0.6031,0.4462,-0.2511,
19.099055,0.1493,-1.0834,-2.2176,0.6031,0.4462,-0.2511,
19.155997,0.1493,-1.0834,-2.2176,0.6074,0.0093,-0.0866,
19.163865,0.1493,-1.0834,-2.2176,0.6074,0.0093,-0.0866,
19.164886,-0.8019,0.0460,-0.8761,0.6074,0.0093,-0.0866,
19.220515,-0.8019,0.0460,-0.8761,0.5026,-0.4844,0.1608,
19.230010,-0.8019,0.0460,-0.8761,0.5026,-0.4844,0.1608,
19.232348,1.2208,-1.7076,-0.6962,0.5026,-0.4844,0.1608,
19.288007,1.2208,-1.7076,-0.6962,0.6129,-0.2350,-0.2054,
19.297225,1.2208,-1.7076,-0.6962,0.6129,-0.2350,-0.2054,
19.298933,2.5247,-0.8866,-0.3854,0.6129,-0.2350,-0.2054,
19.351858,2.5247,-0.8866,-0.3854,0.4114,0.0918,-0.3677,
19.359777,2.5247,-0.8866,-0.3854,0.4114,0.0918,-0.3677,
19.360825,2.1034,0.5188,0.6192,0.4114,0.0918,-0.3677,
19.416598,2.1034,0.5188,0.6192,0.4468,0.0130,-0.3161,
19.425292,2.1034,0.5188,0.6192,0.4468,0.0130,-0.3161,
19.426041,1.8769,0.8032,0.2255,0.4468,0.0130,-0.3161,
19.482695,1.8769,0.8032,0.2255,0.3163,0.0582,-0.0368,
19.490252,1.8769,0.8032,0.2255,0.3163,0.0582,-0.0368,
19.490798,0.7055,1.7678,-1.0014,0.3163,0.0582,-0.0368,
19.549386,0.7055,1.7678,-1.0014,-0.4235,-0.0209,0.5713,
19.557300,0.7055,1.7678,-1.0014,-0.4235,-0.0209,0.5713,
19.558267,-2.1307,1.0338,-1.7303,-0.4235,-0.0209,0.5713,
19.614403,-2.1307,1.0338,-1.7303,-0.7472,0.0414,0.5788,
19.621203,-2.1307,1.0338,-1.7303,-0.7472,0.0414,0.5788,
19.622246,0.1322,2.1245,-0.0419,-0.7472,0.0414,0.5788,
19.680335,0.1322,2.1245,-0.0419,-0.7066,0.9473,0.2578,
19.688055,0.1322,2.1245,-0.0419,-0.7066,0.9473,0.2578,
19.689136,0.9474,-0.3984,-0.9641,-0.7066,0.9473,0.2578,
19.744000,0.9474,-0.3984,-0.9641,-0.4447,1.7533,0.1170,
19.753572,0.9474,-0.3984,-0.9641,-0.4447,1.7533,0.1170,
19.754711,-0.2232,-2.6149,-0.5131,-0.4447,1.7533,0.1170,
19.811069,-0.2232,-2.6149,-0.5131,-0.4630,1.3618,0.0880,
19.819622,-0.2232,-2.6149,-0.5131,-0.4630,1.3618,0.0880,
19.821864,-1.7396,-0.7775,0.4533,-0.4630,1.3618,0.0880,
19.874669,-1.7396,-0.7775,0.4533,-0.0504,0.4734,0.2277,
19.884391,-1.7396,-0.7775,0.4533,-0.0504,0.4734,0.2277,
19.885351,-0.0011,-2.2727,0.5442,-0.0504,0.4734,0.2277,
19.940516,-0.0011,-2.2727,0.5442,0.0434,0.5467,-0.1151,
19.949528,-0.0011,-2.2727,0.5442,0.0434,0.5467,-0.1151,
19.950893,0.9459,0.2712,1.0311,0.0434,0.5467,-0.1151,
20.006841,0.9459,0.2712,1.0311,-0.3239,0.4861,0.1587,
20.015496,0.9459,0.2712,1.0311,-0.3239,0.4861,0.1587,
20.016200,0.4982,1.6548,2.4704,-0.3239,0.4861,0.1587,
20.072507,0.4982,1.6548,2.4704,-0.1541,-0.1895,0.0458,
20.080863,0.4982,1.6548,2.4704,-0.1541,-0.1895,0.0458,
20.081817,-0.4474,3.3791,-1.1409,-0.1541,-0.1895,0.0458,
20.137930,-0.4474,3.3791,-1.1409,-0.1329,0.2268,-0.1860,
20.145506,-0.4474,3.3791,-1.1409,-0.1329,0.2268,-0.1860,
20.146248,-0.8109,-1.9824,-1.2183,-0.1329,0.2268,-0.1860,
20.203072,-0.8109,-1.9824,-1.2183,0.6698,0.3048,-0.1669,
20.212433,-0.8109,-1.9824,-1.2183,0.6698,0.3048,-0.1669,
20.214384,0.2313,-0.6342,-2.2057,0.6698,0.3048,-0.1669,
20.267819,0.2313,-0.6342,-2.2057,0.5553,0.0771,-0.0971,
20.276325,0.2313,-0.6342,-2.2057,0.5553,0.0771,-0.0971,
20.277401,-0.4400,-0.3031,-0.7521,0.5553,0.0771,-0.0971,
20.335793,-0.4400,-0.3031,-0.7521,0.5006,-0.4417,-0.0438,
20.341976,-0.4400,-0.3031,-0.7521,0.5006,-0.4417,-0.0438,
20.342893,0.7683,-1.3566,-0.8395,0.5006,-0.4417,-0.0438,
20.400470,0.7683,-1.3566,-0.8395,0.6452,-0.3456,-0.3351,
20.407103,0.7683,-1.3566,-0.8395,0.6452,-0.3456,-0.3351,
20.407872,1.9901,-1.1188,-0.2549,0.6452,-0.3456,-0.3351,
20.464470,1.9901,-1.1188,-0.2549,0.5525,-0.1820,-0.3876,
20.474138,1.9901,-1.1188,-0.2549,0.5525,-0.1820,-0.3876,
20.475266,1.7683,0.4128,0.6347,0.5525,-0.1820,-0.3876,
20.530582,1.7683,0.4128,0.6347,0.3680,-0.2708,-0.2443,
20.538387,1.7683,0.4128,0.6347,0.3680,-0.2708,-0.2443,
20.540123,2.2963,0.7990,0.4825,0.3680,-0.2708,-0.2443,
20.596158,2.2963,0.7990,0.4825,0.3355,0.0542,0.0583,
20.605021,2.2963,0.7990,0.4825,0.3355,0.0542,0.0583,
20.606027,1.0230,2.1162,-0.9267,0.3355,0.0542,0.0583,
20.661779,1.0230,2.1162,-0.9267,-0.2369,0.0597,0.6255,
20.670228,1.0230,2.1162,-0.9267,-0.2369,0.0597,0.6255,
20.671281,-1.0461,1.6790,-1.8432,-0.2369,0.0597,0.6255,
20.726267,-1.0461,1.6790,-1.8432,-0.8251,0.0910,0.4701,
20.735246,-1.0461,1.6790,-1.8432,-0.8251,0.0910,0.4701,
20.736681,-0.7393,1.1591,0.0422,-0.8251,0.0910,0.4701,
20.792704,-0.7393,1.1591,0.0422,-0.8179,0.6515,0.2279,
20.800817,-0.7393,1.1591,0.0422,-0.8179,0.6515,0.2279,
20.802079,0.6399,-0.2377,-0.5246,-0.8179,0.6515,0.2279,
20.856676,0.6399,-0.2377,-0.5246,-0.5409,1.5475,0.1755,
20.865037,0.6399,-0.2377,-0.5246,-0.5409,1.5475,0.1755,
20.866460,-0.2743,-2.4040,-1.0793,-0.5409,1.5475,0.1755,
20.923309,-0.2743,-2.4040,-1.0793,-0.5263,1.5168,-0.0162,
20.931639,-0.2743,-2.4040,-1.0793,-0.5263,1.5168,-0.0162,
20.932235,-1.4811,-0.9717,0.4105,-0.5263,1.5168,-0.0162,
20.989099,-1.4811,-0.9717,0.4105,-0.0264,0.8161,0.0200,
20.996648,-1.4811,-0.9717,0.4105,-0.0264,0.8161,0.0200,
20.998187,-0.3434,-1.7964,0.5939,-0.0264,0.8161,0.0200,
21.053275,-0.3434,-1.7964,0.5939,-0.0137,0.4288,0.1593,
21.062615,-0.3434,-1.7964,0.5939,-0.0137,0.4288,0.1593,
21.064304,0.7454,0.4883,1.6041,-0.0137,0.4288,0.1593,
21.119194,0.7454,0.4883,1.6041,-0.4103,0.3303,0.2016,
21.129202,0.7454,0.4883,1.6041,-0.4103,0.3303,0.2016,
21.130705,0.4635,1.5994,2.8846,-0.4103,0.3303,0.2016,
21.185500,0.4635,1.5994,2.8846,-0.0469,-0.5177,-0.0725,
21.192933,0.4635,1.5994,2.8846,-0.0469,-0.5177,-0.0725,
21.193507,-1.4466,2.6408,-2.0767,-0.0469,-0.5177,-0.0725,
21.250996,-1.4466,2.6408,-2.0767,-0.0544,-0.0060,0.0127,
21.258109,-1.4466,2.6408,-2.0767,-0.0544,-0.0060,0.0127,
21.259701,-0.2818,-2.1470,-1.6101,-0.0544,-0.0060,0.0127,
21.315503,-0.2818,-2.1470,-1.6101,0.8111,0.2231,-0.2043,
21.324180,-0.2818,-2.1470,-1.6101,0.8111,0.2231,-0.2043,
21.324640,0.1423,-0.1055,-2.0479,0.8111,0.2231,-0.2043,
21.381802,0.1423,-0.1055,-2.0479,0.6212,-0.2242,-0.1223,
21.390422,0.1423,-0.1055,-2.0479,0.6212,-0.2242,-0.1223,
21.391568,-0.7278,-0.9635,-0.8383,0.6212,-0.2242,-0.1223,
21.447034,-0.7278,-0.9635,-0.8383,0.5887,-0.5878,-0.0947,
21.455264,-0.7278,-0.9635,-0.8383,0.5887,-0.5878,-0.0947,
21.455861,1.5692,-1.3828,-0.7529,0.5887,-0.5878,-0.0947,
21.512871,1.5692,-1.3828,-0.7529,0.5498,-0.1947,-0.3691,
21.521511,1.5692,-1.3828,-0.7529,0.5498,-0.1947,-0.3691,
21.522608,2.4782,-0.5585,0.1975,0.5498,-0.1947,-0.3691,
21.578315,2.4782,-0.5585,0.1975,0.4155,-0.0116,-0.4068,
21.586461,2.4782,-0.5585,0.1975,0.4155,-0.0116,-0.4068,
21.587672,2.2518,0.0067,1.2601,0.4155,-0.0116,-0.4068,
21.642876,2.2518,0.0067,1.2601,0.4731,0.1161,-0.1226,
21.651183,2.2518,0.0067,1.2601,0.4731,0.1161,-0.1226,
21.652504,3.3207,0.1885,0.2503,0.4731,0.1161,-0.1226,
21.709877,3.3207,0.1885,0.2503,0.2555,0.6881,0.3117,
21.717996,3.3207,0.1885,0.2503,0.2555,0.6881,0.3117,
21.719024,-0.6825,3.8469,-0.9743,0.2555,0.6881,0.3117,
21.773708,-0.6825,3.8469,-0.9743,-0.7001,0.1255,0.6800,
21.782560,-0.6825,3.8469,-0.9743,-0.7001,0.1255,0.6800,
21.784229,-1.9371,1.1245,-1.4102,-0.7001,0.1255,0.6800,
21.841075,-1.9371,1.1245,-1.4102,-0.8103,0.4441,0.4033,
21.849063,-1.9371,1.1245,-1.4102,-0.8103,0.4441,0.4033,
21.850173,0.1981,1.4288,-0.5690,-0.8103,0.4441,0.4033,
21.905875,0.1981,1.4288,-0.5690,-0.7883,1.3554,0.1523,
21.913048,0.1981,1.4288,-0.5690,-0.7883,1.3554,0.1523,
21.914434,0.5201,-1.3097,-1.0000,-0.7883,1.3554,0.1523,
21.969036,0.5201,-1.3097,-1.0000,-0.5394,1.7475,0.0819,
21.978258,0.5201,-1.3097,-1.0000,-0.5394,1.7475,0.0819,
21.980461,-1.2896,-2.6397,-0.1892,-0.5394,1.7475,0.0819,
22.036374,-1.2896,-2.6397,-0.1892,-0.3236,0.9904,0.1746,
22.044378,-1.2896,-2.6397,-0.1892,-0.3236,0.9904,0.1746,
22.045606,-1.4172,-1.4400,0.5228,-0.3236,0.9904,0.1746,
22.102262,-1.4172,-1.4400,0.5228,0.1422,0.5000,0.0551,
22.110397,-1.4172,-1.4400,0.5228,0.1422,0.5000,0.0551,
22.111630,0.8338,-1.1460,0.5969,0.1422,0.5000,0.0551,
22.166555,0.8338,-1.1460,0.5969,-0.2211,0.5475,0.0872,
22.174181,0.8338,-1.1460,0.5969,-0.2211,0.5475,0.0872,
22.174519,0.7992,2.2906,1.8421,-0.2211,0.5475,0.0872,
22.233211,0.7992,2.2906,1.8421,-0.9183,0.2359,0.2411,
22.243768,0.7992,2.2906,1.8421,-0.9183,0.2359,0.2411,
22.244918,-1.4388,3.4881,-0.0994,-0.9183,0.2359,0.2411,
22.299196,-1.4388,3.4881,-0.0994,-0.1732,-0.2123,-0.3535,
22.306782,-1.4388,3.4881,-0.0994,-0.1732,-0.2123,-0.3535,
22.308248,-1.4841,-0.5646,-2.0679,-0.1732,-0.2123,-0.3535,
22.363875,-1.4841,-0.5646,-2.0679,0.5069,0.2095,-0.0608,
22.371742,-1.4841,-0.5646,-2.0679,0.5069,0.2095,-0.0608,
22.372807,0.9478,-0.0949,-1.5914,0.5069,0.2095,-0.0608,
22.431341,0.9478,-0.0949,-1.5914,0.7048,0.3665,-0.1804,
22.436894,0.9478,-0.0949,-1.5914,0.7048,0.3665,-0.1804,
22.438280,0.1409,-0.7345,-1.6906,0.7048,0.3665,-0.1804,
22.495233,0.1409,-0.7345,-1.6906,0.6049,0.0496,-0.2082,
22.503712,0.1409,-0.7345,-1.6906,0.6049,0.0496,-0.2082,
22.505458,0.1028,-1.6883,-0.7132,0.6049,0.0496,-0.2082,
22.560919,0.1028,-1.6883,-0.7132,0.6556,-0.0308,-0.2688,
22.567986,0.1028,-1.6883,-0.7132,0.6556,-0.0308,-0.2688,
22.568578,2.0194,-0.8370,-0.3170,0.6556,-0.0308,-0.2688,
22.624153,2.0194,-0.8370,-0.3170,0.5760,0.2228,-0.4139,
22.632734,2.0194,-0.8370,-0.3170,0.5760,0.2228,-0.4139,
22.633264,1.9555,-0.1818,0.2466,0.5760,0.2228,-0.4139,
22.689866,1.9555,-0.1818,0.2466,0.4320,-0.0021,-0.3487,
22.699099,1.9555,-0.1818,0.2466,0.4320,-0.0021,-0.3487,
22.699697,2.2394,0.4697,1.1164,0.4320,-0.0021,-0.3487,
22.755245,2.2394,0.4697,1.1164,0.3914,0.0568,0.0973,
22.763600,2.2394,0.4697,1.1164,0.3914,0.0568,0.0973,
22.764554,1.9266,1.0414,-1.0186,0.3914,0.0568,0.0973,
22.820678,1.9266,1.0414,-1.0186,-0.1874,0.5195,0.7150,
22.828968,1.9266,1.0414,-1.0186,-0.1874,0.5195,0.7150,
22.829856,-1.1758,1.9162,-1.3383,-0.1874,0.5195,0.7150,
22.886063,-1.1758,1.9162,-1.3383,-0.8234,0.3960,0.5498,
22.894194,-1.1758,1.9162,-1.3383,-0.8234,0.3960,0.5498,
22.894580,-1.1536,1.5941,-0.3895,-0.8234,0.3960,0.5498,
22.952414,-1.1536,1.5941,-0.3895,-0.8972,0.8082,0.3413,
22.961103,-1.1536,1.5941,-0.3895,-0.8972,0.8082,0.3413,
22.962455,0.3665,0.1464,-0.9758,-0.8972,0.8082,0.3413,
23.018157,0.3665,0.1464,-0.9758,-0.6663,1.4584,0.2417,
23.026170,0.3665,0.1464,-0.9758,-0.6663,1.4584,0.2417,
23.027600,-0.4090,-2.0802,-0.8177,-0.6663,1.4584,0.2417,
23.083777,-0.4090,-2.0802,-0.8177,-0.4504,1.3398,0.0373,
23.091676,-0.4090,-2.0802,-0.8177,-0.4504,1.3398,0.0373,
23.093346,-1.3315,-1.8619,0.1762,-0.4504,1.3398,0.0373,
23.148988,-1.3315,-1.8619,0.1762,0.0513,0.7278,0.0710,
23.157500,-1.3315,-1.8619,0.1762,0.0513,0.7278,0.0710,
23.158262,0.0819,-2.2439,0.4809,0.0513,0.7278,0.0710,
23.214743,0.0819,-2.2439,0.4809,0.1680,0.5731,0.0606,
23.222372,0.0819,-2.2439,0.4809,0.1680,0.5731,0.0606,
23.223222,0.7044,1.1384,1.3378,0.1680,0.5731,0.0606,
23.279535,0.7044,1.1384,1.3378,-0.2540,0.2036,0.3317,
23.288386,0.7044,1.1384,1.3378,-0.2540,0.2036,0.3317,
23.289244,0.5333,1.8356,2.7849,-0.2540,0.2036,0.3317,
23.346730,0.5333,1.8356,2.7849,-0.0296,-0.2101,-0.1318,
23.353955,0.5333,1.8356,2.7849,-0.0296,-0.2101,-0.1318,
23.354876,-1.4408,2.0768,-1.4684,-0.0296,-0.2101,-0.1318,
23.412226,-1.4408,2.0768,-1.4684,0.1588,0.0235,-0.0615,
23.418719,-1.4408,2.0768,-1.4684,0.1588,0.0235,-0.0615,
23.419811,-1.0265,-2.3901,-1.5499,0.1588,0.0235,-0.0615,
23.478280,-1.0265,-2.3901,-1.5499,0.7074,0.1326,-0.2488,
23.486184,-1.0265,-2.3901,-1.5499,0.7074,0.1326,-0.2488,
23.486892,-0.6112,-0.1635,-1.8279,0.7074,0.1326,-0.2488,
23.543834,-0.6112,-0.1635,-1.8279,0.6293,-0.5159,-0.0599,
23.549124,-0.6112,-0.1635,-1.8279,0.6293,-0.5159,-0.0599,
23.550103,-1.0766,-0.7081,-0.8525,0.6293,-0.5159,-0.0599,
23.607905,-1.0766,-0.7081,-0.8525,0.5487,-0.7873,-0.0585,
23.615318,-1.0766,-0.7081,-0.8525,0.5487,-0.7873,-0.0585,
23.616356,1.0231,-1.3705,-0.5908,0.5487,-0.7873,-0.0585,
23.677090,1.0231,-1.3705,-0.5908,0.6075,-0.5310,-0.3713,
23.682215,1.0231,-1.3705,-0.5908,0.6075,-0.5310,-0.3713,
23.683189,2.1402,-0.7338,0.0543,0.6075,-0.5310,-0.3713,
23.741270,2.1402,-0.7338,0.0543,0.4829,-0.2082,-0.4300,
23.747046,2.1402,-0.7338,0.0543,0.4829,-0.2082,-0.4300,
23.748258,2.1092,0.2382,1.1016,0.4829,-0.2082,-0.4300,
23.803799,2.1092,0.2382,1.1016,0.5089,-0.1833,-0.2969,
23.811567,2.1092,0.2382,1.1016,0.5089,-0.1833,-0.2969,
23.811901,2.6126,0.8547,0.1314,0.5089,-0.1833,-0.2969,
23.870043,2.6126,0.8547,0.1314,0.0510,-0.0347,0.1225,
23.880065,2.6126,0.8547,0.1314,0.0510,-0.0347,0.1225,
23.880571,-0.7241,3.5671,-0.2437,0.0510,-0.0347,0.1225,
23.936197,-0.7241,3.5671,-0.2437,-0.5673,-0.1454,0.8399,
23.942846,-0.7241,3.5671,-0.2437,-0.5673,-0.1454,0.8399,
23.944055,-1.2651,0.5134,-1.3492,-0.5673,-0.1454,0.8399,
23.999921,-1.2651,0.5134,-1.3492,-0.9018,0.2721,0.4675,
24.007798,-1.2651,0.5134,-1.3492,-0.9018,0.2721,0.4675,
24.008419,-0.2948,1.7168,-0.1146,-0.9018,0.2721,0.4675,
24.067487,-0.2948,1.7168,-0.1146,-0.8995,0.8680,0.1652,
24.073587,-0.2948,1.7168,-0.1146,-0.8995,0.8680,0.1652,
24.074048,0.0449,-0.7973,-0.7358,-0.8995,0.8680,0.1652,
24.131769,0.0449,-0.7973,-0.7358,-0.5666,1.4491,0.1909,
24.139817,0.0449,-0.7973,-0.7358,-0.5666,1.4491,0.1909,
24.140229,-1.0560,-2.6929,-0.4158,-0.5666,1.4491,0.1909,
24.195950,-1.0560,-2.6929,-0.4158,-0.4088,0.9821,0.0747,
24.204896,-1.0560,-2.6929,-0.4158,-0.4088,0.9821,0.0747,
24.205519,-1.5547,-1.4347,0.7557,-0.4088,0.9821,0.0747,
24.262261,-1.5547,-1.4347,0.7557,0.2008,0.4123,0.1002,
24.270599,-1.5547,-1.4347,0.7557,0.2008,0.4123,0.1002,
24.270889,0.2058,-1.7137,1.0019,0.2008,0.4123,0.1002,
24.328544,0.2058,-1.7137,1.0019,-0.0170,0.4091,0.0458,
24.336062,0.2058,-1.7137,1.0019,-0.0170,0.4091,0.0458,
24.336382,1.0234,2.1412,1.5131,-0.0170,0.4091,0.0458,
24.393749,1.0234,2.1412,1.5131,-0.6461,0.1726,0.3050,
24.401989,1.0234,2.1412,1.5131,-0.6461,0.1726,0.3050,
24.402300,-0.1109,3.6307,1.3400,-0.6461,0.1726,0.3050,
24.457860,-0.1109,3.6307,1.3400,0.2743,-0.2033,-0.3894,
24.467787,-0.1109,3.6307,1.3400,0.2743,-0.2033,-0.3894,
24.468359,-2.5435,-0.2069,-2.1167,0.2743,-0.2033,-0.3894,
24.524158,-2.5435,-0.2069,-2.1167,0.3413,-0.0733,-0.0907,
24.533577,-2.5435,-0.2069,-2.1167,0.3413,-0.0733,-0.0907,
24.534579,-0.4531,-1.5601,-1.7038,0.3413,-0.0733,-0.0907,
24.590528,-0.4531,-1.5601,-1.7038,0.7755,-0.0267,-0.2463,
24.598463,-0.4531,-1.5601,-1.7038,0.7755,-0.0267,-0.2463,
24.598803,-0.4505,-0.3483,-1.5678,0.7755,-0.0267,-0.2463,
24.656149,-0.4505,-0.3483,-1.5678,0.6996,-0.3694,-0.0504,
24.662696,-0.4505,-0.3483,-1.5678,0.6996,-0.3694,-0.0504,
24.663874,-0.2146,-1.1814,-0.9137,0.6996,-0.3694,-0.0504,
24.721246,-0.2146,-1.1814,-0.9137,0.6587,-0.5405,-0.2770,
24.729501,-0.2146,-1.1814,-0.9137,0.6587,-0.5405,-0.2770,
24.731547,1.2746,-1.2339,-0.3166,0.6587,-0.5405,-0.2770,
24.788025,1.2746,-1.2339,-0.3166,0.5140,-0.3995,-0.4218,
24.796508,1.2746,-1.2339,-0.3166,0.5140,-0.3995,-0.4218,
24.797035,1.6423,-0.3096,0.6282,0.5140,-0.3995,-0.4218,
24.852071,1.6423,-0.3096,0.6282,0.4029,-0.4284,-0.2805,
24.860368,1.6423,-0.3096,0.6282,0.4029,-0.4284,-0.2805,
24.861017,2.2122,0.6245,1.0859,0.4029,-0.4284,-0.2805,
24.918706,2.2122,0.6245,1.0859,0.2984,-0.1642,0.0336,
24.926030,2.2122,0.6245,1.0859,0.2984,-0.1642,0.0336,
24.926718,2.2716,2.1782,-1.3561,0.2984,-0.1642,0.0336,
24.982730,2.2716,2.1782,-1.3561,-0.2634,0.0551,0.6561,
24.991030,2.2716,2.1782,-1.3561,-0.2634,0.0551,0.6561,
24.992568,-1.1533,2.3345,-0.4811,-0.2634,0.0551,0.6561,
25.048709,-1.1533,2.3345,-0.4811,-0.8648,0.0899,0.5550,
25.055774,-1.1533,2.3345,-0.4811,-0.8648,0.0899,0.5550,
25.056125,-0.9328,0.4764,-0.7864,-0.8648,0.0899,0.5550,
25.113350,-0.9328,0.4764,-0.7864,-0.9894,0.6550,0.2427,
25.122573,-0.9328,0.4764,-0.7864,-0.9894,0.6550,0.2427,
25.122888,-0.0038,0.3402,-0.7993,-0.9894,0.6550,0.2427,
25.180299,-0.0038,0.3402,-0.7993,-0.6759,1.0664,0.1747,
25.188214,-0.0038,0.3402,-0.7993,-0.6759,1.0664,0.1747,
25.188542,-1.3273,-2.3129,-0.7835,-0.6759,1.0664,0.1747,
25.243694,-1.3273,-2.3129,-0.7835,-0.4768,1.0140,0.0586,
25.251993,-1.3273,-2.3129,-0.7835,-0.4768,1.0140,0.0586,
25.252389,-1.6195,-1.8027,0.5995,-0.4768,1.0140,0.0586,
25.309255,-1.6195,-1.8027,0.5995,0.1581,0.5278,0.0258,
25.318104,-1.6195,-1.8027,0.5995,0.1581,0.5278,0.0258,
25.318410,0.0259,-1.5911,0.9548,0.1581,0.5278,0.0258,
25.375197,0.0259,-1.5911,0.9548,0.2390,0.4979,-0.0296,
25.382917,0.0259,-1.5911,0.9548,0.2390,0.4979,-0.0296,
25.383232,0.1741,0.4422,1.1218,0.2390,0.4979,-0.0296,
25.439962,0.1741,0.4422,1.1218,-0.3383,0.1715,0.1319,
25.448750,0.1741,0.4422,1.1218,-0.3383,0.1715,0.1319,
25.449222,0.8983,1.3902,3.0931,-0.3383,0.1715,0.1319,
25.507152,0.8983,1.3902,3.0931,-0.3212,-0.5107,0.2188,
25.514822,0.8983,1.3902,3.0931,-0.3212,-0.5107,0.2188,
25.515737,-1.1109,3.3155,-1.3911,-0.3212,-0.5107,0.2188,
25.571814,-1.1109,3.3155,-1.3911,0.0487,-0.0692,-0.1420,
25.579856,-1.1109,3.3155,-1.3911,0.0487,-0.0692,-0.1420,
25.580750,-1.3482,-2.0287,-1.4980,0.0487,-0.0692,-0.1420,
25.636511,-1.3482,-2.0287,-1.4980,0.6869,0.0031,-0.2608,
25.644487,-1.3482,-2.0287,-1.4980,0.6869,0.0031,-0.2608,
25.645368,-0.7726,-0.0900,-1.8212,0.6869,0.0031,-0.2608,
25.704230,-0.7726,-0.0900,-1.8212,0.6883,-0.4933,-0.0655,
25.711546,-0.7726,-0.0900,-1.8212,0.6883,-0.4933,-0.0655,
25.713139,-0.9159,-0.3354,-1.0316,0.6883,-0.4933,-0.0655,
25.770010,-0.9159,-0.3354,-1.0316,0.5440,-0.7535,-0.1031,
25.778359,-0.9159,-0.3354,-1.0316,0.5440,-0.7535,-0.1031,
25.779573,1.0476,-1.6649,-0.5448,0.5440,-0.7535,-0.1031,
25.833174,1.0476,-1.6649,-0.5448,0.5423,-0.4044,-0.3928,
25.840845,1.0476,-1.6649,-0.5448,0.5423,-0.4044,-0.3928,
25.841159,2.2094,-0.7904,0.1219,0.5423,-0.4044,-0.3928,
25.900216,2.2094,-0.7904,0.1219,0.3919,-0.0622,-0.4061,
25.908115,2.2094,-0.7904,0.1219,0.3919,-0.0622,-0.4061,
25.909534,1.6688,-0.0429,1.0535,0.3919,-0.0622,-0.4061,
25.965667,1.6688,-0.0429,1.0535,0.4319,-0.1422,-0.3267,
25.973638,1.6688,-0.0429,1.0535,0.4319,-0.1422,-0.3267,
25.974764,2.2957,0.9200,0.4010,0.4319,-0.1422,-0.3267,
26.031013,2.2957,0.9200,0.4010,0.2808,0.1306,0.0692,
26.036975,2.2957,0.9200,0.4010,0.2808,0.1306,0.0692,
26.037914,0.1686,3.4965,0.2802,0.2808,0.1306,0.0692,
26.095186,0.1686,3.4965,0.2802,-0.4294,-0.2004,0.5461,
26.103654,0.1686,3.4965,0.2802,-0.4294,-0.2004,0.5461,
26.104025,-1.3736,0.0601,-1.3445,-0.4294,-0.2004,0.5461,
26.160213,-1.3736,0.0601,-1.3445,-0.8679,0.3903,0.5470,
26.168485,-1.3736,0.0601,-1.3445,-0.8679,0.3903,0.5470,
26.169206,-0.3623,0.5696,-0.3685,-0.8679,0.3903,0.5470,
26.224894,-0.3623,0.5696,-0.3685,-0.8798,0.9012,0.2440,
26.234110,-0.3623,0.5696,-0.3685,-0.8798,0.9012,0.2440,
26.234857,0.0271,-0.0451,-1.0134,-0.8798,0.9012,0.2440,
26.290524,0.0271,-0.0451,-1.0134,-0.6400,1.3433,0.3074,
26.299198,0.0271,-0.0451,-1.0134,-0.6400,1.3433,0.3074,
26.299940,-1.1362,-2.2602,-0.4430,-0.6400,1.3433,0.3074,
26.356109,-1.1362,-2.2602,-0.4430,-0.4597,1.0402,0.1440,
26.365137,-1.1362,-2.2602,-0.4430,-0.4597,1.0402,0.1440,
26.365957,-1.4469,-1.3633,0.6222,-0.4597,1.0402,0.1440,
26.421689,-1.4469,-1.3633,0.6222,0.0791,0.5892,0.0783,
26.429714,-1.4469,-1.3633,0.6222,0.0791,0.5892,0.0783,
26.430465,0.1699,-1.7916,0.7734,0.0791,0.5892,0.0783,
26.487629,0.1699,-1.7916,0.7734,-0.0646,0.6535,0.0392,
26.495699,0.1699,-1.7916,0.7734,-0.0646,0.6535,0.0392,
26.497304,1.0031,1.7506,1.5335,-0.0646,0.6535,0.0392,
26.553565,1.0031,1.7506,1.5335,-0.3821,0.4876,0.2563,
26.563287,1.0031,1.7506,1.5335,-0.3821,0.4876,0.2563,
26.564678,0.1583,1.5598,2.9078,-0.3821,0.4876,0.2563,
26.618356,0.1583,1.5598,2.9078,0.2894,0.0499,-0.2805,
26.627521,0.1583,1.5598,2.9078,0.2894,0.0499,-0.2805,
26.628591,-1.7944,1.1965,-1.9969,0.2894,0.0499,-0.2805,
26.683960,-1.7944,1.1965,-1.9969,0.1646,0.0434,-0.1930,
26.692139,-1.7944,1.1965,-1.9969,0.1646,0.0434,-0.1930,
26.692803,-0.7622,-1.4481,-1.8131,0.1646,0.0434,-0.1930,
26.749869,-0.7622,-1.4481,-1.8131,0.7561,0.2195,-0.1787,
26.757354,-0.7622,-1.4481,-1.8131,0.7561,0.2195,-0.1787,
26.758418,0.3927,-0.6148,-2.2044,0.7561,0.2195,-0.1787,
26.815583,0.3927,-0.6148,-2.2044,0.6771,-0.0296,-0.2106,
26.822808,0.3927,-0.6148,-2.2044,0.6771,-0.0296,-0.2106,
26.823122,-0.6526,-0.5706,-0.8186,0.6771,-0.0296,-0.2106,
26.880842,-0.6526,-0.5706,-0.8186,0.6694,-0.4455,-0.1616,
26.888936,-0.6526,-0.5706,-0.8186,0.6694,-0.4455,-0.1616,
26.889573,1.0427,-1.4787,-0.4097,0.6694,-0.4455,-0.1616,
26.946461,1.0427,-1.4787,-0.4097,0.5964,-0.3041,-0.3596,
26.954039,1.0427,-1.4787,-0.4097,0.5964,-0.3041,-0.3596,
26.954368,1.7265,-0.6044,0.3755,0.5964,-0.3041,-0.3596,
27.011791,1.7265,-0.6044,0.3755,0.3942,-0.2996,-0.3436,
27.019156,1.7265,-0.6044,0.3755,0.3942,-0.2996,-0.3436,
27.019521,2.1940,0.3362,0.9485,0.3942,-0.2996,-0.3436,
27.077144,2.1940,0.3362,0.9485,0.1933,-0.0431,-0.1333,
27.085095,2.1940,0.3362,0.9485,0.1933,-0.0431,-0.1333,
27.086056,3.1052,0.6857,0.1175,0.1933,-0.0431,-0.1333,
27.142222,3.1052,0.6857,0.1175,-0.0105,0.4786,0.4128,
27.149813,3.1052,0.6857,0.1175,-0.0105,0.4786,0.4128,
27.150546,0.5801,2.7380,-0.4791,-0.0105,0.4786,0.4128,
27.208070,0.5801,2.7380,-0.4791,-0.8624,0.3783,0.6933,
27.216265,0.5801,2.7380,-0.4791,-0.8624,0.3783,0.6933,
27.217093,-1.7397,0.5488,-1.5629,-0.8624,0.3783,0.6933,
27.275029,-1.7397,0.5488,-1.5629,-0.8766,0.4861,0.4432,
27.281593,-1.7397,0.5488,-1.5629,-0.8766,0.4861,0.4432,
27.281860,0.4415,2.0205,-0.6020,-0.8766,0.4861,0.4432,
27.340258,0.4415,2.0205,-0.6020,-0.8415,1.3467,0.3349,
27.347534,0.4415,2.0205,-0.6020,-0.8415,1.3467,0.3349,
27.347875,0.4387,-0.9481,-1.1361,-0.8415,1.3467,0.3349,
27.404982,0.4387,-0.9481,-1.1361,-0.4609,1.9526,0.2230,
27.412880,0.4387,-0.9481,-1.1361,-0.4609,1.9526,0.2230,
27.414133,-0.5340,-2.6945,-0.5791,-0.4609,1.9526,0.2230,
27.471263,-0.5340,-2.6945,-0.5791,-0.2272,1.4241,0.1575,
27.480029,-0.5340,-2.6945,-0.5791,-0.2272,1.4241,0.1575,
27.480489,-1.0460,-1.0062,-0.2563,-0.2272,1.4241,0.1575,
27.536864,-1.0460,-1.0062,-0.2563,0.1998,0.7544,0.1419,
27.543790,-1.0460,-1.0062,-0.2563,0.1998,0.7544,0.1419,
27.544285,-0.2897,-1.6917,0.5198,0.1998,0.7544,0.1419,
27.601765,-0.2897,-1.6917,0.5198,0.0365,0.5838,0.0250,
27.609578,-0.2897,-1.6917,0.5198,0.0365,0.5838,0.0250,
27.610150,0.3708,2.3852,1.5052,0.0365,0.5838,0.0250,
27.666598,0.3708,2.3852,1.5052,-0.6739,0.2613,0.3363,
27.674470,0.3708,2.3852,1.5052,-0.6739,0.2613,0.3363,
27.674843,0.0934,3.0606,0.9325,-0.6739,0.2613,0.3363,
27.732282,0.0934,3.0606,0.9325,0.2584,0.1422,-0.3662,
27.740005,0.0934,3.0606,0.9325,0.2584,0.1422,-0.3662,
27.741048,-1.6723,-0.0356,-2.1363,0.2584,0.1422,-0.3662,
27.797995,-1.6723,-0.0356,-2.1363,0.2715,0.2805,-0.1042,
27.806652,-1.6723,-0.0356,-2.1363,0.2715,0.2805,-0.1042,
27.806996,-0.1785,-1.5293,-2.0798,0.2715,0.2805,-0.1042,
27.862689,-0.1785,-1.5293,-2.0798,0.7388,0.4734,-0.1801,
27.870865,-0.1785,-1.5293,-2.0798,0.7388,0.4734,-0.1801,
27.872162,0.2691,-0.2346,-2.0117,0.7388,0.4734,-0.1801,
27.928684,0.2691,-0.2346,-2.0117,0.6939,0.2656,-0.0484,
27.937863,0.2691,-0.2346,-2.0117,0.6939,0.2656,-0.0484,
27.938217,-0.0668,-0.9043,-0.6644,0.6939,0.2656,-0.0484,
27.994327,-0.0668,-0.9043,-0.6644,0.7401,0.0339,-0.1929,
28.002405,-0.0668,-0.9043,-0.6644,0.7401,0.0339,-0.1929,
28.002730,1.5817,-1.3959,-0.4635,0.7401,0.0339,-0.1929,
28.060232,1.5817,-1.3959,-0.4635,0.6384,0.2184,-0.3961,
28.067609,1.5817,-1.3959,-0.4635,0.6384,0.2184,-0.3961,
28.068282,1.8079,-0.4721,0.1922,0.6384,0.2184,-0.3961,
28.124458,1.8079,-0.4721,0.1922,0.4456,0.1086,-0.3818,
28.133626,1.8079,-0.4721,0.1922,0.4456,0.1086,-0.3818,
28.134582,2.0473,0.0131,0.6481,0.4456,0.1086,-0.3818,
28.190192,2.0473,0.0131,0.6481,0.2581,-0.0437,-0.1643,
28.198358,2.0473,0.0131,0.6481,0.2581,-0.0437,-0.1643,
28.198678,2.5723,0.1869,-0.0692,0.2581,-0.0437,-0.1643,
28.256218,2.5723,0.1869,-0.0692,-0.0339,0.2524,0.5359,
28.264369,2.5723,0.1869,-0.0692,-0.0339,0.2524,0.5359,
28.264666,0.1851,3.6405,-1.0900,-0.0339,0.2524,0.5359,
28.322239,0.1851,3.6405,-1.0900,-0.8392,0.2416,0.6935,
28.329899,0.1851,3.6405,-1.0900,-0.8392,0.2416,0.6935,
28.330913,-1.0426,-0.1258,-1.0922,-0.8392,0.2416,0.6935,
28.387831,-1.0426,-0.1258,-1.0922,-0.9992,0.7686,0.3439,
28.396611,-1.0426,-0.1258,-1.0922,-0.9992,0.7686,0.3439,
28.397740,0.6695,1.6898,-1.0342,-0.9992,0.7686,0.3439,
28.452209,0.6695,1.6898,-1.0342,-0.9681,1.5003,0.2947,
28.461061,0.6695,1.6898,-1.0342,-0.9681,1.5003,0.2947,
28.462165,-0.1561,-0.9681,-1.3105,-0.9681,1.5003,0.2947,
28.518644,-0.1561,-0.9681,-1.3105,-0.6483,1.6350,0.4212,
28.526651,-0.1561,-0.9681,-1.3105,-0.6483,1.6350,0.4212,
28.528228,-1.4757,-1.9891,-0.5214,-0.6483,1.6350,0.4212,
28.583645,-1.4757,-1.9891,-0.5214,-0.4114,1.0557,0.3491,
28.591469,-1.4757,-1.9891,-0.5214,-0.4114,1.0557,0.3491,
28.595034,-0.9004,-1.6406,0.2526,-0.4114,1.0557,0.3491,
28.648072,-0.9004,-1.6406,0.2526,0.2366,0.7665,0.1492,
28.656746,-0.9004,-1.6406,0.2526,0.2366,0.7665,0.1492,
28.657700,0.8666,-2.1066,0.6678,0.2366,0.7665,0.1492,
28.714227,0.8666,-2.1066,0.6678,0.1996,0.9629,0.0359,
28.723047,0.8666,-2.1066,0.6678,0.1996,0.9629,0.0359,
28.723784,0.7034,2.2415,1.4810,0.1996,0.9629,0.0359,
28.779265,0.7034,2.2415,1.4810,-0.2037,0.6823,0.3598,
28.788477,0.7034,2.2415,1.4810,-0.2037,0.6823,0.3598,
28.788960,0.4880,0.4203,1.7978,-0.2037,0.6823,0.3598,
28.844691,0.4880,0.4203,1.7978,0.1781,0.3128,-0.3277,
28.853953,0.4880,0.4203,1.7978,0.1781,0.3128,-0.3277,
28.854675,-2.4190,3.2647,-2.3885,0.1781,0.3128,-0.3277,
28.911776,-2.4190,3.2647,-2.3885,0.1805,0.2185,0.0994,
28.919152,-2.4190,3.2647,-2.3885,0.1805,0.2185,0.0994,
28.920194,-0.1247,-1.8676,-2.5928,0.1805,0.2185,0.0994,
28.976030,-0.1247,-1.8676,-2.5928,0.8489,0.5728,-0.2045,
28.984016,-0.1247,-1.8676,-2.5928,0.8489,0.5728,-0.2045,
28.984960,-0.1777,-0.2435,-2.2539,0.8489,0.5728,-0.2045,
29.042300,-0.1777,-0.2435,-2.2539,0.6903,-0.0790,-0.0476,
29.051423,-0.1777,-0.2435,-2.2539,0.6903,-0.0790,-0.0476,
29.052295,-0.4545,-0.8545,-0.8146,0.6903,-0.0790,-0.0476,
29.107822,-0.4545,-0.8545,-0.8146,0.6987,-0.2428,-0.1446,
29.116230,-0.4545,-0.8545,-0.8146,0.6987,-0.2428,-0.1446,
29.116592,1.6854,-1.1158,-0.3067,0.6987,-0.2428,-0.1446,
29.173217,1.6854,-1.1158,-0.3067,0.6481,0.1846,-0.3566,
29.181046,1.6854,-1.1158,-0.3067,0.6481,0.1846,-0.3566,
29.181882,2.0974,-0.7313,0.1556,0.6481,0.1846,-0.3566,
29.237887,2.0974,-0.7313,0.1556,0.5508,0.2763,-0.5363,
29.246374,2.0974,-0.7313,0.1556,0.5508,0.2763,-0.5363,
29.247659,1.7453,-0.3567,0.8815,0.5508,0.2763,-0.5363,
29.304817,1.7453,-0.3567,0.8815,0.2854,-0.0785,-0.2653,
29.311794,1.7453,-0.3567,0.8815,0.2854,-0.0785,-0.2653,
29.312292,1.6789,0.3902,0.5994,0.2854,-0.0785,-0.2653,
29.370670,1.6789,0.3902,0.5994,0.1607,-0.0756,0.0666,
29.377939,1.6789,0.3902,0.5994,0.1607,-0.0756,0.0666,
29.378979,0.4894,3.2551,-0.2749,0.1607,-0.0756,0.0666,
29.436115,0.4894,3.2551,-0.2749,-0.7282,0.0470,0.8482,
29.443697,0.4894,3.2551,-0.2749,-0.7282,0.0470,0.8482,
29.445102,-0.7009,0.9436,-1.9045,-0.7282,0.0470,0.8482,
29.501660,-0.7009,0.9436,-1.9045,-1.0177,0.6070,0.4299,
29.509743,-0.7009,0.9436,-1.9045,-1.0177,0.6070,0.4299,
29.510842,0.1549,1.9436,-0.6480,-1.0177,0.6070,0.4299,
29.566430,0.1549,1.9436,-0.6480,-1.0553,1.2756,0.2934,
29.575505,0.1549,1.9436,-0.6480,-1.0553,1.2756,0.2934,
29.575824,0.1352,-0.0477,-1.1780,-1.0553,1.2756,0.2934,
29.630666,0.1352,-0.0477,-1.1780,-0.7938,1.6014,0.4453,
29.640122,0.1352,-0.0477,-1.1780,-0.7938,1.6014,0.4453,
29.641027,-1.1384,-2.1600,-0.6562,-0.7938,1.6014,0.4453,
29.696959,-1.1384,-2.1600,-0.6562,-0.4777,1.2695,0.3186,
29.706354,-1.1384,-2.1600,-0.6562,-0.4777,1.2695,0.3186,
29.706782,-0.7523,-1.2108,0.0889,-0.4777,1.2695,0.3186,
29.762107,-0.7523,-1.2108,0.0889,0.2787,0.7807,0.2909,
29.771334,-0.7523,-1.2108,0.0889,0.2787,0.7807,0.2909,
29.771808,0.6516,-2.5927,-0.0659,0.2787,0.7807,0.2909,
29.829054,0.6516,-2.5927,-0.0659,0.2714,0.9519,0.0677,
29.836542,0.6516,-2.5927,-0.0659,0.2714,0.9519,0.0677,
29.836917,0.1506,0.6184,1.2132,0.2714,0.9519,0.0677,
29.896163,0.1506,0.6184,1.2132,-0.1907,0.4942,0.1698,
29.901046,0.1506,0.6184,1.2132,-0.1907,0.4942,0.1698,
29.901445,0.5877,0.2453,2.1537,-0.1907,0.4942,0.1698,
29.957913,0.5877,0.2453,2.1537,-0.0057,-0.0973,-0.1512,
29.967945,0.5877,0.2453,2.1537,-0.0057,-0.0973,-0.1512,
29.968429,-1.7496,4.5639,-1.6130,-0.0057,-0.0973,-0.1512,
30.024670,-1.7496,4.5639,-1.6130,-0.0406,-0.2610,-0.2957,
30.031767,-1.7496,4.5639,-1.6130,-0.0406,-0.2610,-0.2957,
30.032038,-0.8020,-0.8155,-2.1104,-0.0406,-0.2610,-0.2957,
30.090977,-0.8020,-0.8155,-2.1104,0.8712,0.5478,-0.0657,
30.097759,-0.8020,-0.8155,-2.1104,0.8712,0.5478,-0.0657,
30.098163,0.6067,-0.7018,-2.4609,0.8712,0.5478,-0.0657,
30.154957,0.6067,-0.7018,-2.4609,0.7558,0.2798,-0.2721,
30.162883,0.6067,-0.7018,-2.4609,0.7558,0.2798,-0.2721,
30.163448,-1.4272,-0.4475,-1.0854,0.7558,0.2798,-0.2721,
30.221887,-1.4272,-0.4475,-1.0854,0.5765,-0.4035,-0.0483,
30.228416,-1.4272,-0.4475,-1.0854,0.5765,-0.4035,-0.0483,
30.228926,0.6844,-1.5379,-0.3321,0.5765,-0.4035,-0.0483,
30.287587,0.6844,-1.5379,-0.3321,0.5588,-0.1898,-0.0916,
30.293813,0.6844,-1.5379,-0.3321,0.5588,-0.1898,-0.0916,
30.294363,2.4723,-0.3153,-0.1848,0.5588,-0.1898,-0.0916,
30.352031,2.4723,-0.3153,-0.1848,0.5058,0.2695,-0.2741,
30.359230,2.4723,-0.3153,-0.1848,0.5058,0.2695,-0.2741,
30.360227,2.1544,-0.6433,0.2622,0.5058,0.2695,-0.2741,
30.417873,2.1544,-0.6433,0.2622,0.3899,0.1914,-0.3525,
30.425020,2.1544,-0.6433,0.2622,0.3899,0.1914,-0.3525,
30.425474,1.5448,0.3455,0.1438,0.3899,0.1914,-0.3525,
30.482003,1.5448,0.3455,0.1438,0.3073,0.1298,-0.0762,
30.491921,1.5448,0.3455,0.1438,0.3073,0.1298,-0.0762,
30.492202,1.6743,0.4767,-0.3725,0.3073,0.1298,-0.0762,
30.549382,1.6743,0.4767,-0.3725,-0.1996,-0.1300,0.6057,
30.557881,1.6743,0.4767,-0.3725,-0.1996,-0.1300,0.6057,
30.558201,-0.8984,2.2346,-1.6781,-0.1996,-0.1300,0.6057,
30.613279,-0.8984,2.2346,-1.6781,-1.0070,0.1232,0.9809,
30.621877,-0.8984,2.2346,-1.6781,-1.0070,0.1232,0.9809,
30.622202,-1.6057,1.1914,-0.6230,-1.0070,0.1232,0.9809,
30.679957,-1.6057,1.1914,-0.6230,-0.9543,0.3881,0.4230,
30.687201,-1.6057,1.1914,-0.6230,-0.9543,0.3881,0.4230,
30.687691,-0.3201,2.0304,-0.6392,-0.9543,0.3881,0.4230,
30.745413,-0.3201,2.0304,-0.6392,-0.9024,1.1591,0.3908,
30.753056,-0.3201,2.0304,-0.6392,-0.9024,1.1591,0.3908,
30.753385,-0.1790,-1.3940,-0.9346,-0.9024,1.1591,0.3908,
30.809814,-0.1790,-1.3940,-0.9346,-0.5621,1.5073,0.2256,
30.819124,-0.1790,-1.3940,-0.9346,-0.5621,1.5073,0.2256,
30.820523,-1.4901,-2.2369,-0.1034,-0.5621,1.5073,0.2256,
30.876419,-1.4901,-2.2369,-0.1034,-0.2017,0.8198,0.1184,
30.884009,-1.4901,-2.2369,-0.1034,-0.2017,0.8198,0.1184,
30.884907,-0.9692,-2.0131,0.2773,-0.2017,0.8198,0.1184,
30.941273,-0.9692,-2.0131,0.2773,0.3894,0.4273,-0.0046,
30.950000,-0.9692,-2.0131,0.2773,0.3894,0.4273,-0.0046,
30.950371,0.4867,-1.9451,1.0102,0.3894,0.4273,-0.0046,
31.006033,0.4867,-1.9451,1.0102,0.1034,0.6214,-0.0081,
31.014805,0.4867,-1.9451,1.0102,0.1034,0.6214,-0.0081,
31.015668,0.5861,1.7269,2.0064,0.1034,0.6214,-0.0081,
31.072258,0.5861,1.7269,2.0064,-0.3212,0.3960,0.3288,
31.079815,0.5861,1.7269,2.0064,-0.3212,0.3960,0.3288,
31.080722,-0.4453,1.5422,1.3461,-0.3212,0.3960,0.3288,
31.138910,-0.4453,1.5422,1.3461,0.1457,0.0449,-0.4459,
31.146789,-0.4453,1.5422,1.3461,0.1457,0.0449,-0.4459,
31.148130,-3.0598,2.4328,-1.8471,0.1457,0.0449,-0.4459,
31.204209,-3.0598,2.4328,-1.8471,0.3560,-0.2085,0.0692,
31.211821,-3.0598,2.4328,-1.8471,0.3560,-0.2085,0.0692,
31.212939,-0.7418,-2.0623,-2.6927,0.3560,-0.2085,0.0692,
31.267711,-0.7418,-2.0623,-2.6927,0.8231,-0.2636,-0.2947,
31.275495,-0.7418,-2.0623,-2.6927,0.8231,-0.2636,-0.2947,
31.276307,-1.7242,0.1790,-1.3913,0.8231,-0.2636,-0.2947,
31.335199,-1.7242,0.1790,-1.3913,0.6335,-1.3379,-0.0519,
31.341230,-1.7242,0.1790,-1.3913,0.6335,-1.3379,-0.0519,
31.341506,-0.7545,-0.6018,-1.2108,0.6335,-1.3379,-0.0519,
31.398813,-0.7545,-0.6018,-1.2108,0.5528,-1.2405,-0.2340,
31.406928,-0.7545,-0.6018,-1.2108,0.5528,-1.2405,-0.2340,
31.407294,2.0803,-0.7362,-0.4494,0.5528,-1.2405,-0.2340,
31.465330,2.0803,-0.7362,-0.4494,0.4780,-0.5064,-0.4607,
31.473297,2.0803,-0.7362,-0.4494,0.4780,-0.5064,-0.4607,
31.474341,2.2454,-0.7105,0.3682,0.4780,-0.5064,-0.4607,
31.530865,2.2454,-0.7105,0.3682,0.3645,-0.2138,-0.5592,
31.540084,2.2454,-0.7105,0.3682,0.3645,-0.2138,-0.5592,
31.540577,1.9267,-0.3394,1.2081,0.3645,-0.2138,-0.5592,
31.597117,1.9267,-0.3394,1.2081,0.2337,-0.1804,-0.2662,
31.605344,1.9267,-0.3394,1.2081,0.2337,-0.1804,-0.2662,
31.605706,1.9563,0.1779,0.8904,0.2337,-0.1804,-0.2662,
31.664310,1.9563,0.1779,0.8904,0.1394,0.1828,0.1093,
31.671339,1.9563,0.1779,0.8904,0.1394,0.1828,0.1093,
31.671873,0.8729,2.5684,-0.4274,0.1394,0.1828,0.1093,
31.728758,0.8729,2.5684,-0.4274,-0.8491,0.2909,0.7668,
31.734866,0.8729,2.5684,-0.4274,-0.8491,0.2909,0.7668,
31.736195,-1.8679,2.2045,-2.0159,-0.8491,0.2909,0.7668,
31.793449,-1.8679,2.2045,-2.0159,-1.0635,0.2361,0.3908,
31.802120,-1.8679,2.2045,-2.0159,-1.0635,0.2361,0.3908,
31.802581,-0.0846,2.3487,-0.5232,-1.0635,0.2361,0.3908,
31.858878,-0.0846,2.3487,-0.5232,-0.9418,1.5157,0.2546,
31.866819,-0.0846,2.3487,-0.5232,-0.9418,1.5157,0.2546,
31.867163,1.2673,-0.8582,-1.6696,-0.9418,1.5157,0.2546,
31.924735,1.2673,-0.8582,-1.6696,-0.6959,2.2683,0.1484,
31.932907,1.2673,-0.8582,-1.6696,-0.6959,2.2683,0.1484,
31.933259,-0.9000,-2.7219,-1.2375,-0.6959,2.2683,0.1484,
31.988208,-0.9000,-2.7219,-1.2375,-0.4496,1.5343,0.2538,
31.996512,-0.9000,-2.7219,-1.2375,-0.4496,1.5343,0.2538,
31.998175,-1.4732,-1.0223,0.1534,-0.4496,1.5343,0.2538,
32.054228,-1.4732,-1.0223,0.1534,0.3914,0.8128,0.3224,
32.062192,-1.4732,-1.0223,0.1534,0.3914,0.8128,0.3224,
32.063161,0.4118,-2.0971,0.2206,0.3914,0.8128,0.3224,
32.120466,0.4118,-2.0971,0.2206,0.2941,0.8199,0.1100,
32.127769,0.4118,-2.0971,0.2206,0.2941,0.8199,0.1100,
32.128749,0.4314,0.7954,0.8825,0.2941,0.8199,0.1100,
32.183946,0.4314,0.7954,0.8825,-0.3884,0.5507,0.2010,
32.193464,0.4314,0.7954,0.8825,-0.3884,0.5507,0.2010,
32.194317,0.6018,0.6412,2.2177,-0.3884,0.5507,0.2010,
32.250564,0.6018,0.6412,2.2177,-0.3202,0.1231,0.3395,
32.258966,0.6018,0.6412,2.2177,-0.3202,0.1231,0.3395,
32.259525,-0.3416,4.0957,-1.6848,-0.3202,0.1231,0.3395,
32.316099,-0.3416,4.0957,-1.6848,-0.1083,0.3152,-0.3195,
32.325700,-0.3416,4.0957,-1.6848,-0.1083,0.3152,-0.3195,
32.326737,-1.0415,-0.9034,-2.2940,-0.1083,0.3152,-0.3195,
32.382484,-1.0415,-0.9034,-2.2940,0.5618,0.4556,0.1130,
32.390472,-1.0415,-0.9034,-2.2940,0.5618,0.4556,0.1130,
32.391884,-0.2726,-0.9355,-2.1253,0.5618,0.4556,0.1130,
32.446002,-0.2726,-0.9355,-2.1253,0.7019,-0.0226,-0.0029,
32.454636,-0.2726,-0.9355,-2.1253,0.7019,-0.0226,-0.0029,
32.455638,-0.6226,0.7693,-1.5822,0.7019,-0.0226,-0.0029,
32.511327,-0.6226,0.7693,-1.5822,0.5531,-0.4111,-0.0176,
32.520606,-0.6226,0.7693,-1.5822,0.5531,-0.4111,-0.0176,
32.521408,0.8165,-1.8971,-0.8461,0.5531,-0.4111,-0.0176,
32.579092,0.8165,-1.8971,-0.8461,0.6252,-0.1529,-0.3415,
32.586247,0.8165,-1.8971,-0.8461,0.6252,-0.1529,-0.3415,
32.587062,2.2380,-0.7973,-0.4082,0.6252,-0.1529,-0.3415,
32.642956,2.2380,-0.7973,-0.4082,0.5915,0.1599,-0.5212,
32.651086,2.2380,-0.7973,-0.4082,0.5915,0.1599,-0.5212,
32.652201,1.9723,-0.5839,0.0170,0.5915,0.1599,-0.5212,
32.709155,1.9723,-0.5839,0.0170,0.4960,0.0371,-0.4493,
32.718702,1.9723,-0.5839,0.0170,0.4960,0.0371,-0.4493,
32.719639,1.6598,0.7126,0.1448,0.4960,0.0371,-0.4493,
32.773565,1.6598,0.7126,0.1448,0.2851,-0.0780,-0.0800,
32.782311,1.6598,0.7126,0.1448,0.2851,-0.0780,-0.0800,
32.782930,2.3329,1.3940,-0.1632,0.2851,-0.0780,-0.0800,
32.839017,2.3329,1.3940,-0.1632,-0.2680,0.1315,0.5140,
32.847020,2.3329,1.3940,-0.1632,-0.2680,0.1315,0.5140,
32.848887,-0.4211,2.3815,-2.2188,-0.2680,0.1315,0.5140,
32.906712,-0.4211,2.3815,-2.2188,-0.9076,0.5284,0.8667,
32.913541,-0.4211,2.3815,-2.2188,-0.9076,0.5284,0.8667,
32.914197,-1.2453,1.1728,-0.7476,-0.9076,0.5284,0.8667,
32.971734,-1.2453,1.1728,-0.7476,-1.0353,0.9248,0.4464,
32.978747,-1.2453,1.1728,-0.7476,-1.0353,0.9248,0.4464,
32.979260,0.8920,1.1717,-1.4947,-1.0353,0.9248,0.4464,
33.037551,0.8920,1.1717,-1.4947,-0.9105,2.0960,0.4505,
33.044564,0.8920,1.1717,-1.4947,-0.9105,2.0960,0.4505,
33.046511,0.1849,-1.7608,-1.7571,-0.9105,2.0960,0.4505,
33.102888,0.1849,-1.7608,-1.7571,-0.5463,2.0695,0.2375,
33.110600,0.1849,-1.7608,-1.7571,-0.5463,2.0695,0.2375,
33.112342,-1.9302,-1.2156,-0.2139,-0.5463,2.0695,0.2375,
33.167811,-1.9302,-1.2156,-0.2139,-0.0466,1.1706,0.2498,
33.175663,-1.9302,-1.2156,-0.2139,-0.0466,1.1706,0.2498,
33.176811,-0.3049,-2.3270,-0.3424,-0.0466,1.1706,0.2498,
33.232988,-0.3049,-2.3270,-0.3424,0.7071,1.0699,0.0388,
33.240263,-0.3049,-2.3270,-0.3424,0.7071,1.0699,0.0388,
33.241233,1.0332,-1.6126,0.4748,0.7071,1.0699,0.0388,
33.299930,1.0332,-1.6126,0.4748,-0.0965,1.0247,0.1726,
33.305842,1.0332,-1.6126,0.4748,-0.0965,1.0247,0.1726,
33.306701,-0.2630,2.1592,1.9049,-0.0965,1.0247,0.1726,
33.364049,-0.2630,2.1592,1.9049,-0.5536,0.1516,0.4470,
33.372932,-0.2630,2.1592,1.9049,-0.5536,0.1516,0.4470,
33.373818,0.0649,2.5115,1.2273,-0.5536,0.1516,0.4470,
33.431786,0.0649,2.5115,1.2273,0.0903,0.0073,-0.3711,
33.437644,0.0649,2.5115,1.2273,0.0903,0.0073,-0.3711,
33.438657,-2.3616,1.1299,-1.5305,0.0903,0.0073,-0.3711,
33.497189,-2.3616,1.1299,-1.5305,0.3349,-0.1048,-0.0938,
33.504035,-2.3616,1.1299,-1.5305,0.3349,-0.1048,-0.0938,
33.504960,-0.8609,-1.5903,-2.4573,0.3349,-0.1048,-0.0938,
33.562384,-0.8609,-1.5903,-2.4573,0.8166,-0.1637,-0.1698,
33.569073,-0.8609,-1.5903,-2.4573,0.8166,-0.1637,-0.1698,
33.569956,-1.1851,0.4423,-1.8154,0.8166,-0.1637,-0.1698,
33.626359,-1.1851,0.4423,-1.8154,0.6104,-0.9265,0.0310,
33.633173,-1.1851,0.4423,-1.8154,0.6104,-0.9265,0.0310,
33.633978,-0.5028,-1.1971,-0.9183,0.6104,-0.9265,0.0310,
33.691828,-0.5028,-1.1971,-0.9183,0.6683,-0.8772,-0.2776,
33.699700,-0.5028,-1.1971,-0.9183,0.6683,-0.8772,-0.2776,
33.700023,2.1901,-0.9325,-0.3569,0.6683,-0.8772,-0.2776,
33.757186,2.1901,-0.9325,-0.3569,0.5550,-0.1730,-0.3807,
33.765601,2.1901,-0.9325,-0.3569,0.5550,-0.1730,-0.3807,
33.766605,2.5402,-0.7960,0.2903,0.5550,-0.1730,-0.3807,
33.823031,2.5402,-0.7960,0.2903,0.4739,0.1274,-0.4171,
33.830454,2.5402,-0.7960,0.2903,0.4739,0.1274,-0.4171,
33.831297,1.8851,-0.4773,1.1144,0.4739,0.1274,-0.4171,
33.886517,1.8851,-0.4773,1.1144,0.4310,0.1732,-0.2350,
33.896509,1.8851,-0.4773,1.1144,0.4310,0.1732,-0.2350,
33.897622,2.4640,0.4609,0.1350,0.4310,0.1732,-0.2350,
33.952527,2.4640,0.4609,0.1350,0.1381,0.2486,0.1446,
33.961181,2.4640,0.4609,0.1350,0.1381,0.2486,0.1446,
33.962233,-0.0219,3.1551,-0.3273,0.1381,0.2486,0.1446,
34.020746,-0.0219,3.1551,-0.3273,-0.7906,0.1657,0.7947,
34.027133,-0.0219,3.1551,-0.3273,-0.7906,0.1657,0.7947,
34.028433,-1.9401,0.9424,-1.6276,-0.7906,0.1657,0.7947,
34.083490,-1.9401,0.9424,-1.6276,-0.9989,0.1235,0.4667,
34.094902,-1.9401,0.9424,-1.6276,-0.9989,0.1235,0.4667,
34.097113,-0.8616,1.6199,-0.2988,-0.9989,0.1235,0.4667,
34.151570,-0.8616,1.6199,-0.2988,-0.9829,0.8190,0.3180,
34.162228,-0.8616,1.6199,-0.2988,-0.9829,0.8190,0.3180,
34.164109,0.2022,0.1970,-1.0009,-0.9829,0.8190,0.3180,
34.214596,0.2022,0.1970,-1.0009,-0.6921,1.5718,0.3123,
34.223099,0.2022,0.1970,-1.0009,-0.6921,1.5718,0.3123,
34.224376,-0.6730,-1.7323,-0.6782,-0.6921,1.5718,0.3123,
34.281549,-0.6730,-1.7323,-0.6782,-0.4039,1.1506,0.1985,
34.288232,-0.6730,-1.7323,-0.6782,-0.4039,1.1506,0.1985,
34.288954,-1.4707,-1.8502,0.0242,-0.4039,1.1506,0.1985,
34.346463,-1.4707,-1.8502,0.0242,0.3679,0.4997,0.2104,
34.354569,-1.4707,-1.8502,0.0242,0.3679,0.4997,0.2104,
34.354898,0.2670,-3.0114,0.3161,0.3679,0.4997,0.2104,
34.413089,0.2670,-3.0114,0.3161,0.4162,0.7964,-0.0490,
34.420113,0.2670,-3.0114,0.3161,0.4162,0.7964,-0.0490,
34.420503,1.1358,1.0899,1.0612,0.4162,0.7964,-0.0490,
34.477967,1.1358,1.0899,1.0612,-0.1587,0.4459,0.2098,
34.486245,1.1358,1.0899,1.0612,-0.1587,0.4459,0.2098,
34.486600,0.3021,1.5571,2.5113,-0.1587,0.4459,0.2098,
34.542318,0.3021,1.5571,2.5113,-0.2532,-0.1727,-0.0391,
34.550637,0.3021,1.5571,2.5113,-0.2532,-0.1727,-0.0391,
34.551055,-2.7792,3.9389,-1.6546,-0.2532,-0.1727,-0.0391,
34.609453,-2.7792,3.9389,-1.6546,0.0388,-0.3674,-0.1738,
34.617751,-2.7792,3.9389,-1.6546,0.0388,-0.3674,-0.1738,
34.618694,-1.3616,-1.6552,-2.5389,0.0388,-0.3674,-0.1738,
34.675990,-1.3616,-1.6552,-2.5389,0.7230,0.0443,-0.0191,
34.680964,-1.3616,-1.6552,-2.5389,0.7230,0.0443,-0.0191,
34.681383,-1.0854,-0.5441,-1.7115,0.7230,0.0443,-0.0191,
34.737901,-1.0854,-0.5441,-1.7115,0.6860,-0.9638,0.0428,
34.747761,-1.0854,-0.5441,-1.7115,0.6860,-0.9638,0.0428,
34.748606,-1.5698,0.0211,-1.0581,0.6860,-0.9638,0.0428,
34.804028,-1.5698,0.0211,-1.0581,0.5224,-1.2940,-0.0938,
34.811800,-1.5698,0.0211,-1.0581,0.5224,-1.2940,-0.0938,
34.812645,1.0524,-1.2459,-0.8893,0.5224,-1.2940,-0.0938,
34.871154,1.0524,-1.2459,-0.8893,0.5365,-0.6634,-0.3464,
34.877357,1.0524,-1.2459,-0.8893,0.5365,-0.6634,-0.3464,
34.878286,1.6369,-0.7911,0.0578,0.5365,-0.6634,-0.3464,
34.934101,1.6369,-0.7911,0.0578,0.4867,-0.3648,-0.4786,
34.943126,1.6369,-0.7911,0.0578,0.4867,-0.3648,-0.4786,
34.944547,1.4906,-0.5270,0.5822,0.4867,-0.3648,-0.4786,
34.999865,1.4906,-0.5270,0.5822,0.4238,-0.3303,-0.4201,
35.009762,1.4906,-0.5270,0.5822,0.4238,-0.3303,-0.4201,
35.011775,1.8448,0.1596,0.4495,0.4238,-0.3303,-0.4201,
35.068583,1.8448,0.1596,0.4495,0.3618,-0.0939,-0.0935,
35.075226,1.8448,0.1596,0.4495,0.3618,-0.0939,-0.0935,
35.076408,2.2770,0.6345,0.3234,0.3618,-0.0939,-0.0935,
35.132133,2.2770,0.6345,0.3234,0.0159,-0.0799,0.4606,
35.140812,2.2770,0.6345,0.3234,0.0159,-0.0799,0.4606,
35.141463,-0.4129,2.5072,-0.8788,0.0159,-0.0799,0.4606,
35.197119,-0.4129,2.5072,-0.8788,-0.9675,0.0376,0.9436,
35.205620,-0.4129,2.5072,-0.8788,-0.9675,0.0376,0.9436,
35.206044,-2.7119,0.9800,-0.7657,-0.9675,0.0376,0.9436,
35.264653,-2.7119,0.9800,-0.7657,-0.9192,-0.1171,0.3839,
35.272605,-2.7119,0.9800,-0.7657,-0.9192,-0.1171,0.3839,
35.273211,-1.1753,2.1563,-0.2321,-0.9192,-0.1171,0.3839,
35.328514,-1.1753,2.1563,-0.2321,-0.9717,0.4433,0.3184,
35.336295,-1.1753,2.1563,-0.2321,-0.9717,0.4433,0.3184,
35.338122,-0.3314,-1.2051,-0.6299,-0.9717,0.4433,0.3184,
35.393576,-0.3314,-1.2051,-0.6299,-0.5450,0.9062,0.0993,
35.401850,-0.3314,-1.2051,-0.6299,-0.5450,0.9062,0.0993,
35.402277,-0.9718,-2.7257,-0.0606,-0.5450,0.9062,0.0993,
35.459673,-0.9718,-2.7257,-0.0606,-0.0918,0.4769,-0.1237,
35.469395,-0.9718,-2.7257,-0.0606,-0.0918,0.4769,-0.1237,
35.470454,-1.0508,-1.5006,0.8575,-0.0918,0.4769,-0.1237,
35.527117,-1.0508,-1.5006,0.8575,0.4888,0.1355,-0.1257,
35.533803,-1.0508,-1.5006,0.8575,0.4888,0.1355,-0.1257,
35.534404,-0.2834,-1.2240,1.8898,0.4888,0.1355,-0.1257,
35.590541,-0.2834,-1.2240,1.8898,-0.1732,-0.0307,0.0609,
35.598854,-0.2834,-1.2240,1.8898,-0.1732,-0.0307,0.0609,
35.600248,0.4799,1.9160,2.0851,-0.1732,-0.0307,0.0609,
35.655244,0.4799,1.9160,2.0851,-0.6796,-0.3476,0.0950,
35.663730,0.4799,1.9160,2.0851,-0.6796,-0.3476,0.0950,
35.664456,-0.1387,4.0525,0.8312,-0.6796,-0.3476,0.0950,
35.720720,-0.1387,4.0525,0.8312,-0.0392,-0.1808,-0.4847,
35.728986,-0.1387,4.0525,0.8312,-0.0392,-0.1808,-0.4847,
35.729887,-2.2590,-0.3413,-1.3138,-0.0392,-0.1808,-0.4847,
35.788163,-2.2590,-0.3413,-1.3138,0.4864,-0.3299,-0.3552,
35.794834,-2.2590,-0.3413,-1.3138,0.4864,-0.3299,-0.3552,
35.795955,-1.4993,-1.0731,-2.2130,0.4864,-0.3299,-0.3552,
35.852164,-1.4993,-1.0731,-2.2130,0.6975,-0.8656,-0.3364,
35.860571,-1.4993,-1.0731,-2.2130,0.6975,-0.8656,-0.3364,
35.862277,-1.3936,-0.8502,-1.0407,0.6975,-0.8656,-0.3364,
35.916822,-1.3936,-0.8502,-1.0407,0.5883,-1.4322,-0.0365,
35.925368,-1.3936,-0.8502,-1.0407,0.5883,-1.4322,-0.0365,
35.926794,0.3937,-0.5092,-0.9456,0.5883,-1.4322,-0.0365,
35.983145,0.3937,-0.5092,-0.9456,0.5330,-1.0895,-0.2573,
35.991856,0.3937,-0.5092,-0.9456,0.5330,-1.0895,-0.2573,
35.992938,1.9991,-1.3911,-0.1543,0.5330,-1.0895,-0.2573,
36.048557,1.9991,-1.3911,-0.1543,0.4552,-0.4829,-0.4055,
36.057304,1.9991,-1.3911,-0.1543,0.4552,-0.4829,-0.4055,
36.057753,1.8923,-0.6065,0.9095,0.4552,-0.4829,-0.4055,
36.114196,1.8923,-0.6065,0.9095,0.4052,-0.2390,-0.4007,
36.120834,1.8923,-0.6065,0.9095,0.4052,-0.2390,-0.4007,
36.121132,2.1313,-0.0933,0.8593,0.4052,-0.2390,-0.4007,
36.180111,2.1313,-0.0933,0.8593,0.4821,0.3416,-0.1962,
36.187766,2.1313,-0.0933,0.8593,0.4821,0.3416,-0.1962,
36.190754,2.1799,1.3252,-0.8774,0.4821,0.3416,-0.1962,
36.245086,2.1799,1.3252,-0.8774,0.0334,0.1440,0.4183,
36.254177,2.1799,1.3252,-0.8774,0.0334,0.1440,0.4183,
36.255251,-1.3718,3.3397,-0.1095,0.0334,0.1440,0.4183,
36.310751,-1.3718,3.3397,-0.1095,-0.9533,-0.3228,0.5780,
36.317826,-1.3718,3.3397,-0.1095,-0.9533,-0.3228,0.5780,
36.318784,-2.0395,-0.4923,-1.3802,-0.9533,-0.3228,0.5780,
36.375714,-2.0395,-0.4923,-1.3802,-1.1035,0.0087,0.2298,
36.384019,-2.0395,-0.4923,-1.3802,-1.1035,0.0087,0.2298,
36.385429,-0.5994,1.3320,-0.1002,-1.1035,0.0087,0.2298,
36.441017,-0.5994,1.3320,-0.1002,-0.9200,0.3651,0.3060,
36.448951,-0.5994,1.3320,-0.1002,-0.9200,0.3651,0.3060,
36.449716,-0.4813,-1.0863,-0.3346,-0.9200,0.3651,0.3060,
36.506311,-0.4813,-1.0863,-0.3346,-0.4716,0.8335,0.3120,
36.514550,-0.4813,-1.0863,-0.3346,-0.4716,0.8335,0.3120,
36.515045,-0.6986,-2.5480,0.1677,-0.4716,0.8335,0.3120,
36.573492,-0.6986,-2.5480,0.1677,-0.1715,0.5392,0.0556,
36.581521,-0.6986,-2.5480,0.1677,-0.1715,0.5392,0.0556,
36.582407,-0.9140,-1.2734,0.6924,-0.1715,0.5392,0.0556,
36.636773,-0.9140,-1.2734,0.6924,0.1283,0.1629,0.0841,
36.646489,-0.9140,-1.2734,0.6924,0.1283,0.1629,0.0841,
36.647580,-0.0554,-0.5645,1.5408,0.1283,0.1629,0.0841,
36.704108,-0.0554,-0.5645,1.5408,-0.3212,0.2080,0.1755,
36.711584,-0.0554,-0.5645,1.5408,-0.3212,0.2080,0.1755,
36.712953,1.0772,1.3817,2.4548,-0.3212,0.2080,0.1755,
36.769483,1.0772,1.3817,2.4548,-0.4232,0.0730,0.1352,
36.777292,1.0772,1.3817,2.4548,-0.4232,0.0730,0.1352,
36.778699,0.0140,4.2879,-0.4229,-0.4232,0.0730,0.1352,
36.834523,0.0140,4.2879,-0.4229,-0.0973,0.2295,-0.4013,
36.843547,0.0140,4.2879,-0.4229,-0.0973,0.2295,-0.4013,
36.845692,-1.6010,-0.8061,-1.5624,-0.0973,0.2295,-0.4013,
36.900264,-1.6010,-0.8061,-1.5624,0.5098,0.2552,-0.1973,
36.909122,-1.6010,-0.8061,-1.5624,0.5098,0.2552,-0.1973,
36.910749,-0.6031,-0.6940,-2.1090,0.5098,0.2552,-0.1973,
36.966641,-0.6031,-0.6940,-2.1090,0.6926,-0.2126,-0.1597,
36.974321,-0.6031,-0.6940,-2.1090,0.6926,-0.2126,-0.1597,
36.975640,-1.2399,-0.2143,-1.1863,0.6926,-0.2126,-0.1597,
37.029963,-1.2399,-0.2143,-1.1863,0.5124,-0.7880,-0.1087,
37.038386,-1.2399,-0.2143,-1.1863,0.5124,-0.7880,-0.1087,
37.039807,0.0960,-1.5301,-1.0888,0.5124,-0.7880,-0.1087,
37.096781,0.0960,-1.5301,-1.0888,0.5301,-0.5592,-0.3629,
37.105028,0.0960,-1.5301,-1.0888,0.5301,-0.5592,-0.3629,
37.106033,2.0554,-1.1591,-0.3689,0.5301,-0.5592,-0.3629,
37.162730,2.0554,-1.1591,-0.3689,0.4757,-0.0266,-0.2892,
37.169789,2.0554,-1.1591,-0.3689,0.4757,-0.0266,-0.2892,
37.170498,1.6148,-0.2354,0.5959,0.4757,-0.0266,-0.2892,
37.226946,1.6148,-0.2354,0.5959,0.3578,0.0617,-0.2903,
37.236082,1.6148,-0.2354,0.5959,0.3578,0.0617,-0.2903,
37.237041,1.4215,0.3122,0.7177,0.3578,0.0617,-0.2903,
37.292784,1.4215,0.3122,0.7177,0.2805,-0.0499,-0.2589,
37.301034,1.4215,0.3122,0.7177,0.2805,-0.0499,-0.2589,
37.301723,1.4825,0.7595,-0.1944,0.2805,-0.0499,-0.2589,
37.359175,1.4825,0.7595,-0.1944,-0.2421,0.1278,0.2717,
37.366603,1.4825,0.7595,-0.1944,-0.2421,0.1278,0.2717,
37.367341,-0.0683,3.7028,-2.1787,-0.2421,0.1278,0.2717,
37.424390,-0.0683,3.7028,-2.1787,-0.9988,0.2233,0.4397,
37.431140,-0.0683,3.7028,-2.1787,-0.9988,0.2233,0.4397,
37.432025,-0.3945,-0.1094,-0.8995,-0.9988,0.2233,0.4397,
37.490130,-0.3945,-0.1094,-0.8995,-0.8372,0.9268,0.1471,
37.496857,-0.3945,-0.1094,-0.8995,-0.8372,0.9268,0.1471,
37.497614,1.6338,0.2452,-1.2408,-0.8372,0.9268,0.1471,
37.554778,1.6338,0.2452,-1.2408,-0.7761,1.9568,0.3306,
37.563606,1.6338,0.2452,-1.2408,-0.7761,1.9568,0.3306,
37.564618,0.3599,-1.8883,-1.3839,-0.7761,1.9568,0.3306,
37.619893,0.3599,-1.8883,-1.3839,-0.4611,2.1336,0.4421,
37.629086,0.3599,-1.8883,-1.3839,-0.4611,2.1336,0.4421,
37.630286,-0.4820,-1.1339,-0.2723,-0.4611,2.1336,0.4421,
37.687716,-0.4820,-1.1339,-0.2723,-0.0348,1.6958,0.3761,
37.694930,-0.4820,-1.1339,-0.2723,-0.0348,1.6958,0.3761,
37.695742,0.5195,-0.8525,-0.6724,-0.0348,1.6958,0.3761,
37.750340,0.5195,-0.8525,-0.6724,0.0157,1.6232,0.2479,
37.757756,0.5195,-0.8525,-0.6724,0.0157,1.6232,0.2479,
37.758603,0.0925,-0.2164,-0.0661,0.0157,1.6232,0.2479,
37.817221,0.0925,-0.2164,-0.0661,-0.3038,1.2900,0.2430,
37.826492,0.0925,-0.2164,-0.0661,-0.3038,1.2900,0.2430,
37.828556,-0.3996,0.7853,2.1083,-0.3038,1.2900,0.2430,
37.883238,-0.3996,0.7853,2.1083,-0.7362,0.4229,0.2256,
37.890705,-0.3996,0.7853,2.1083,-0.7362,0.4229,0.2256,
37.891844,-0.6402,4.9464,-0.6721,-0.7362,0.4229,0.2256,
37.948755,-0.6402,4.9464,-0.6721,0.0408,0.3658,-0.0493,
37.955852,-0.6402,4.9464,-0.6721,0.0408,0.3658,-0.0493,
37.956741,0.1689,-0.2864,-1.4050,0.0408,0.3658,-0.0493,
38.013900,0.1689,-0.2864,-1.4050,0.5134,0.7563,-0.2611,
38.022722,0.1689,-0.2864,-1.4050,0.5134,0.7563,-0.2611,
38.023966,0.7999,-0.4725,-3.1063,0.5134,0.7563,-0.2611,
38.078303,0.7999,-0.4725,-3.1063,0.6330,0.7779,-0.0098,
38.085973,0.7999,-0.4725,-3.1063,0.6330,0.7779,-0.0098,
38.086759,-0.3485,-0.6412,-1.5040,0.6330,0.7779,-0.0098,
38.145412,-0.3485,-0.6412,-1.5040,0.4959,0.3312,0.0629,
38.152059,-0.3485,-0.6412,-1.5040,0.4959,0.3312,0.0629,
38.152834,0.3554,-0.6147,-0.7174,0.4959,0.3312,0.0629,
38.209599,0.3554,-0.6147,-0.7174,0.6078,0.2457,-0.1379,
38.217674,0.3554,-0.6147,-0.7174,0.6078,0.2457,-0.1379,
38.218379,2.7056,-0.9407,-0.7948,0.6078,0.2457,-0.1379,
38.276034,2.7056,-0.9407,-0.7948,0.6555,0.7364,-0.3425,
38.283435,2.7056,-0.9407,-0.7948,0.6555,0.7364,-0.3425,
38.284249,2.2787,-0.1086,-0.2589,0.6555,0.7364,-0.3425,
38.340612,2.2787,-0.1086,-0.2589,0.5808,0.4600,-0.3867,
38.347718,2.2787,-0.1086,-0.2589,0.5808,0.4600,-0.3867,
38.348704,1.2914,0.5809,0.0214,0.5808,0.4600,-0.3867,
38.406908,1.2914,0.5809,0.0214,0.3173,-0.0637,-0.2317,
38.413293,1.2914,0.5809,0.0214,0.3173,-0.0637,-0.2317,
38.414288,1.7918,0.2032,0.0585,0.3173,-0.0637,-0.2317,
38.471027,1.7918,0.2032,0.0585,-0.1345,0.0745,0.3757,
38.478897,1.7918,0.2032,0.0585,-0.1345,0.0745,0.3757,
38.480348,0.9995,2.9131,-1.7343,-0.1345,0.0745,0.3757,
38.538077,0.9995,2.9131,-1.7343,-0.8138,0.3685,0.8256,
38.546832,0.9995,2.9131,-1.7343,-0.8138,0.3685,0.8256,
38.548039,-0.6914,-0.6102,-1.1155,-0.8138,0.3685,0.8256,
38.601492,-0.6914,-0.6102,-1.1155,-0.8079,1.1434,0.3641,
38.610017,-0.6914,-0.6102,-1.1155,-0.8079,1.1434,0.3641,
38.610697,1.7052,2.1020,-1.4862,-0.8079,1.1434,0.3641,
38.668174,1.7052,2.1020,-1.4862,-0.8905,2.2454,0.3427,
38.677767,1.7052,2.1020,-1.4862,-0.8905,2.2454,0.3427,
38.679236,0.3137,-0.6436,-1.4997,-0.8905,2.2454,0.3427,
38.733450,0.3137,-0.6436,-1.4997,-0.6260,2.4005,0.4615,
38.741332,0.3137,-0.6436,-1.4997,-0.6260,2.4005,0.4615,
38.741701,-1.0283,-0.7552,-0.8827,-0.6260,2.4005,0.4615,
38.797824,-1.0283,-0.7552,-0.8827,-0.2899,1.6936,0.4902,
38.806302,-1.0283,-0.7552,-0.8827,-0.2899,1.6936,0.4902,
38.806918,-0.6869,-1.2397,-0.3793,-0.2899,1.6936,0.4902,
38.863094,-0.6869,-1.2397,-0.3793,0.2477,1.1693,0.3280,
38.870630,-0.6869,-1.2397,-0.3793,0.2477,1.1693,0.3280,
38.870959,0.3458,-1.9963,-0.0747,0.2477,1.1693,0.3280,
38.929759,0.3458,-1.9963,-0.0747,0.1692,1.0985,0.0270,
38.938770,0.3458,-1.9963,-0.0747,0.1692,1.0985,0.0270,
38.940220,-0.3805,1.6066,1.1333,0.1692,1.0985,0.0270,
38.995909,-0.3805,1.6066,1.1333,-0.4068,0.3144,0.3247,
39.003720,-0.3805,1.6066,1.1333,-0.4068,0.3144,0.3247,
39.004774,0.5923,0.4643,2.1462,-0.4068,0.3144,0.3247,
39.060829,0.5923,0.4643,2.1462,0.1365,-0.1090,0.1136,
39.068324,0.5923,0.4643,2.1462,0.1365,-0.1090,0.1136,
39.069035,-0.7802,2.4766,-1.4173,0.1365,-0.1090,0.1136,
39.126305,-0.7802,2.4766,-1.4173,0.0580,0.1559,-0.1518,
39.134945,-0.7802,2.4766,-1.4173,0.0580,0.1559,-0.1518,
39.136326,-1.1083,-1.5772,-2.2148,0.0580,0.1559,-0.1518,
39.190823,-1.1083,-1.5772,-2.2148,0.6481,0.2288,-0.1697,
39.199152,-1.1083,-1.5772,-2.2148,0.6481,0.2288,-0.1697,
39.199675,-0.5411,-0.8882,-1.7878,0.6481,0.2288,-0.1697,
39.257852,-0.5411,-0.8882,-1.7878,0.6999,-0.4423,-0.0017,
39.265824,-0.5411,-0.8882,-1.7878,0.6999,-0.4423,-0.0017,
39.266670,-0.2677,0.2051,-0.9283,0.6999,-0.4423,-0.0017,
39.323141,-0.2677,0.2051,-0.9283,0.5718,-0.6144,-0.0414,
39.329792,-0.2677,0.2051,-0.9283,0.5718,-0.6144,-0.0414,
39.330593,1.6946,-1.7088,-0.6587,0.5718,-0.6144,-0.0414,
39.388264,1.6946,-1.7088,-0.6587,0.6700,-0.1260,-0.3230,
39.396191,1.6946,-1.7088,-0.6587,0.6700,-0.1260,-0.3230,
39.396959,2.1821,-0.8853,-0.0259,0.6700,-0.1260,-0.3230,
39.452701,2.1821,-0.8853,-0.0259,0.5287,0.0664,-0.4207,
39.462337,2.1821,-0.8853,-0.0259,0.5287,0.0664,-0.4207,
39.465217,1.5983,0.3203,0.2673,0.5287,0.0664,-0.4207,
39.519917,1.5983,0.3203,0.2673,0.4155,-0.2001,-0.3816,
39.527326,1.5983,0.3203,0.2673,0.4155,-0.2001,-0.3816,
39.529322,1.9610,1.3045,0.3295,0.4155,-0.2001,-0.3816,
39.583080,1.9610,1.3045,0.3295,0.0796,-0.0605,0.1132,
39.593433,1.9610,1.3045,0.3295,0.0796,-0.0605,0.1132,
39.595075,0.9903,2.9712,-0.3673,0.0796,-0.0605,0.1132,
39.650863,0.9903,2.9712,-0.3673,-0.6080,-0.0486,0.8384,
39.659116,0.9903,2.9712,-0.3673,-0.6080,-0.0486,0.8384,
39.660443,-1.3166,0.4035,-1.1717,-0.6080,-0.0486,0.8384,
39.716069,-1.3166,0.4035,-1.1717,-0.9187,0.2595,0.5750,
39.723625,-1.3166,0.4035,-1.1717,-0.9187,0.2595,0.5750,
39.724111,-0.2191,0.7706,-0.3832,-0.9187,0.2595,0.5750,
39.780596,-0.2191,0.7706,-0.3832,-0.8375,1.1277,0.2463,
39.787689,-0.2191,0.7706,-0.3832,-0.8375,1.1277,0.2463,
39.787994,0.4777,0.1133,-1.0163,-0.8375,1.1277,0.2463,
39.845761,0.4777,0.1133,-1.0163,-0.6506,1.6773,0.3483,
39.855190,0.4777,0.1133,-1.0163,-0.6506,1.6773,0.3483,
39.856579,-0.8011,-1.9871,-0.7878,-0.6506,1.6773,0.3483,
39.912408,-0.8011,-1.9871,-0.7878,-0.3887,1.3578,0.0999,
39.920177,-0.8011,-1.9871,-0.7878,-0.3887,1.3578,0.0999,
39.921021,-1.2658,-1.3005,0.0385,-0.3887,1.3578,0.0999,
39.977800,-1.2658,-1.3005,0.0385,0.2743,0.8097,0.0457,
39.984943,-1.2658,-1.3005,0.0385,0.2743,0.8097,0.0457,
39.985584,-0.1883,-1.9063,0.3283,0.2743,0.8097,0.0457,
40.042305,-0.1883,-1.9063,0.3283,0.1495,0.6329,0.0483,
40.051212,-0.1883,-1.9063,0.3283,0.1495,0.6329,0.0483,
40.052453,0.3223,1.2149,1.2040,0.1495,0.6329,0.0483,
40.109463,0.3223,1.2149,1.2040,-0.4001,0.3412,0.2543,
40.116747,0.3223,1.2149,1.2040,-0.4001,0.3412,0.2543,
40.117468,0.4893,0.6756,2.7873,-0.4001,0.3412,0.2543,
40.175249,0.4893,0.6756,2.7873,-0.0412,-0.2208,0.0339,
40.182723,0.4893,0.6756,2.7873,-0.0412,-0.2208,0.0339,
40.183479,-1.2006,2.0475,-1.4297,-0.0412,-0.2208,0.0339,
40.240063,-1.2006,2.0475,-1.4297,0.0948,0.0605,-0.0982,
40.248340,-1.2006,2.0475,-1.4297,0.0948,0.0605,-0.0982,
40.249030,-0.8906,-1.6644,-2.0394,0.0948,0.0605,-0.0982,
40.304511,-0.8906,-1.6644,-2.0394,0.6730,0.0965,-0.1316,
40.312388,-0.8906,-1.6644,-2.0394,0.6730,0.0965,-0.1316,
40.313360,-0.2815,-0.3378,-2.1028,0.6730,0.0965,-0.1316,
40.370027,-0.2815,-0.3378,-2.1028,0.6545,-0.3436,-0.0509,
40.378378,-0.2815,-0.3378,-2.1028,0.6545,-0.3436,-0.0509,
40.379343,-0.7306,-0.2073,-0.8430,0.6545,-0.3436,-0.0509,
40.436442,-0.7306,-0.2073,-0.8430,0.5331,-0.7399,-0.0974,
40.443694,-0.7306,-0.2073,-0.8430,0.5331,-0.7399,-0.0974,
40.444785,1.0159,-1.5579,-0.7588,0.5331,-0.7399,-0.0974,
40.500031,1.0159,-1.5579,-0.7588,0.5829,-0.3456,-0.4111,
40.509974,1.0159,-1.5579,-0.7588,0.5829,-0.3456,-0.4111,
40.511993,2.1923,-0.9693,-0.2076,0.5829,-0.3456,-0.4111,
40.567855,2.1923,-0.9693,-0.2076,0.4785,0.0151,-0.4285,
40.575448,2.1923,-0.9693,-0.2076,0.4785,0.0151,-0.4285,
40.576780,1.6369,0.1647,0.4443,0.4785,0.0151,-0.4285,
40.633058,1.6369,0.1647,0.4443,0.4458,-0.1883,-0.3803,
40.640996,1.6369,0.1647,0.4443,0.4458,-0.1883,-0.3803,
40.642000,2.3972,0.7743,0.3052,0.4458,-0.1883,-0.3803,
40.698181,2.3972,0.7743,0.3052,0.1926,0.0505,0.0134,
40.705513,2.3972,0.7743,0.3052,0.1926,0.0505,0.0134,
40.706780,1.0355,3.2694,-0.1125,0.1926,0.0505,0.0134,
40.762393,1.0355,3.2694,-0.1125,-0.4501,0.1013,0.5860,
40.770204,1.0355,3.2694,-0.1125,-0.4501,0.1013,0.5860,
40.771067,-1.0977,0.9650,-1.4170,-0.4501,0.1013,0.5860,
40.828172,-1.0977,0.9650,-1.4170,-0.8708,0.2712,0.6558,
40.836225,-1.0977,0.9650,-1.4170,-0.8708,0.2712,0.6558,
40.836988,-1.1260,0.6266,-0.3123,-0.8708,0.2712,0.6558,
40.894455,-1.1260,0.6266,-0.3123,-0.9455,0.5898,0.3586,
40.902267,-1.1260,0.6266,-0.3123,-0.9455,0.5898,0.3586,
40.902890,0.1982,0.1246,-0.9790,-0.9455,0.5898,0.3586,
40.960572,0.1982,0.1246,-0.9790,-0.6944,1.3366,0.4133,
40.968756,0.1982,0.1246,-0.9790,-0.6944,1.3366,0.4133,
40.969362,-0.2969,-2.3473,-0.9917,-0.6944,1.3366,0.4133,
41.024579,-0.2969,-2.3473,-0.9917,-0.5049,1.2885,0.2046,
41.033035,-0.2969,-2.3473,-0.9917,-0.5049,1.2885,0.2046,
41.034421,-1.4696,-0.6842,0.4647,-0.5049,1.2885,0.2046,
41.091105,-1.4696,-0.6842,0.4647,0.0287,0.6384,0.1240,
41.100167,-1.4696,-0.6842,0.4647,0.0287,0.6384,0.1240,
41.100814,-0.4182,-1.7567,0.3486,0.0287,0.6384,0.1240,
41.156074,-0.4182,-1.7567,0.3486,0.2720,0.5424,-0.0805,
41.163853,-0.4182,-1.7567,0.3486,0.2720,0.5424,-0.0805,
41.164348,0.9811,0.2840,1.6041,0.2720,0.5424,-0.0805,
41.221390,0.9811,0.2840,1.6041,-0.3028,0.6107,0.1646,
41.228631,0.9811,0.2840,1.6041,-0.3028,0.6107,0.1646,
41.229007,1.1528,1.1886,2.4631,-0.3028,0.6107,0.1646,
41.288669,1.1528,1.1886,2.4631,-0.1972,0.1158,0.1055,
41.295103,1.1528,1.1886,2.4631,-0.1972,0.1158,0.1055,
41.295876,-1.2723,4.0598,-1.2819,-0.1972,0.1158,0.1055,
41.351938,-1.2723,4.0598,-1.2819,-0.0032,0.2245,-0.1967,
41.360006,-1.2723,4.0598,-1.2819,-0.0032,0.2245,-0.1967,
41.360918,-1.2578,-2.0680,-1.9510,-0.0032,0.2245,-0.1967,
41.416751,-1.2578,-2.0680,-1.9510,0.8224,0.3257,-0.2472,
41.424462,-1.2578,-2.0680,-1.9510,0.8224,0.3257,-0.2472,
41.425325,-0.5979,-0.2794,-2.1564,0.8224,0.3257,-0.2472,
41.482688,-0.5979,-0.2794,-2.1564,0.7107,-0.3822,-0.1985,
41.491024,-0.5979,-0.2794,-2.1564,0.7107,-0.3822,-0.1985,
41.492270,-1.1583,-0.5607,-0.8691,0.7107,-0.3822,-0.1985,
41.548496,-1.1583,-0.5607,-0.8691,0.5990,-0.9864,-0.1465,
41.556820,-1.1583,-0.5607,-0.8691,0.5990,-0.9864,-0.1465,
41.558264,1.4317,-1.5277,-0.7254,0.5990,-0.9864,-0.1465,
41.613893,1.4317,-1.5277,-0.7254,0.5793,-0.4235,-0.4044,
41.622201,1.4317,-1.5277,-0.7254,0.5793,-0.4235,-0.4044,
41.623716,2.7241,-1.1248,-0.1673,0.5793,-0.4235,-0.4044,
41.680058,2.7241,-1.1248,-0.1673,0.4679,-0.0531,-0.4187,
41.688377,2.7241,-1.1248,-0.1673,0.4679,-0.0531,-0.4187,
41.688685,1.7985,0.2316,0.9584,0.4679,-0.0531,-0.4187,
41.745975,1.7985,0.2316,0.9584,0.3115,-0.0728,-0.2921,
41.754214,1.7985,0.2316,0.9584,0.3115,-0.0728,-0.2921,
41.755237,2.3352,0.9712,0.3808,0.3115,-0.0728,-0.2921,
41.811061,2.3352,0.9712,0.3808,0.0967,0.2425,0.3057,
41.819081,2.3352,0.9712,0.3808,0.0967,0.2425,0.3057,
41.819473,0.4811,3.6290,-0.5320,0.0967,0.2425,0.3057,
41.875796,0.4811,3.6290,-0.5320,-0.7990,0.1180,0.7138,
41.885132,0.4811,3.6290,-0.5320,-0.7990,0.1180,0.7138,
41.885970,-1.4095,0.4127,-1.3341,-0.7990,0.1180,0.7138,
41.941817,-1.4095,0.4127,-1.3341,-0.9650,0.2161,0.3280,
41.949437,-1.4095,0.4127,-1.3341,-0.9650,0.2161,0.3280,
41.950260,0.2151,1.7823,-0.2859,-0.9650,0.2161,0.3280,
42.008070,0.2151,1.7823,-0.2859,-0.9325,1.1652,0.3441,
42.015022,0.2151,1.7823,-0.2859,-0.9325,1.1652,0.3441,
42.015452,0.9388,-0.7651,-1.2794,-0.9325,1.1652,0.3441,
42.073912,0.9388,-0.7651,-1.2794,-0.4345,1.8415,0.4438,
42.080816,0.9388,-0.7651,-1.2794,-0.4345,1.8415,0.4438,
42.081680,-0.3102,-3.2888,-0.7748,-0.4345,1.8415,0.4438,
42.138450,-0.3102,-3.2888,-0.7748,-0.0803,1.6539,0.1869,
42.145549,-0.3102,-3.2888,-0.7748,-0.0803,1.6539,0.1869,
42.146637,-0.7661,-1.0764,-0.0392,-0.0803,1.6539,0.1869,
42.203502,-0.7661,-1.0764,-0.0392,0.3809,1.1066,0.1897,
42.211177,-0.7661,-1.0764,-0.0392,0.3809,1.1066,0.1897,
42.212302,-0.2164,-1.1729,0.9189,0.3809,1.1066,0.1897,
42.268549,-0.2164,-1.1729,0.9189,-0.0806,0.7184,0.1138,
42.277621,-0.2164,-1.1729,0.9189,-0.0806,0.7184,0.1138,
42.278669,0.0230,2.2138,2.1993,-0.0806,0.7184,0.1138,
42.333974,0.0230,2.2138,2.1993,-0.5208,0.3470,0.3867,
42.342562,0.0230,2.2138,2.1993,-0.5208,0.3470,0.3867,
42.344588,-0.0017,1.4977,0.9624,-0.5208,0.3470,0.3867,
42.400281,-0.0017,1.4977,0.9624,0.1042,0.3015,-0.5486,
42.410689,-0.0017,1.4977,0.9624,0.1042,0.3015,-0.5486,
42.412985,-2.0146,0.7226,-2.5985,0.1042,0.3015,-0.5486,
42.467321,-2.0146,0.7226,-2.5985,0.3549,0.1520,0.2117,
42.474444,-2.0146,0.7226,-2.5985,0.3549,0.1520,0.2117,
42.475295,-1.0157,-2.2580,-2.2648,0.3549,0.1520,0.2117,
42.529631,-1.0157,-2.2580,-2.2648,0.8169,-0.1158,-0.1465,
42.538873,-1.0157,-2.2580,-2.2648,0.8169,-0.1158,-0.1465,
42.539999,-0.9681,-0.1084,-1.9504,0.8169,-0.1158,-0.1465,
42.595986,-0.9681,-0.1084,-1.9504,0.6509,-0.8621,-0.1167,
42.604629,-0.9681,-0.1084,-1.9504,0.6509,-0.8621,-0.1167,
42.604942,-0.3767,-1.4505,-0.5666,0.6509,-0.8621,-0.1167,
42.662544,-0.3767,-1.4505,-0.5666,0.6429,-0.9294,-0.2240,
42.670444,-0.3767,-1.4505,-0.5666,0.6429,-0.9294,-0.2240,
42.670787,2.8156,-0.5625,-0.8324,0.6429,-0.9294,-0.2240,
42.727603,2.8156,-0.5625,-0.8324,0.5644,-0.1049,-0.4681,
42.736590,2.8156,-0.5625,-0.8324,0.5644,-0.1049,-0.4681,
42.737314,1.9677,-0.5346,0.3844,0.5644,-0.1049,-0.4681,
42.793485,1.9677,-0.5346,0.3844,0.3971,-0.2436,-0.4542,
42.802017,1.9677,-0.5346,0.3844,0.3971,-0.2436,-0.4542,
42.803269,1.9029,0.9185,0.6147,0.3971,-0.2436,-0.4542,
42.858479,1.9029,0.9185,0.6147,0.2384,-0.1298,-0.1243,
42.865967,1.9029,0.9185,0.6147,0.2384,-0.1298,-0.1243,
42.867055,2.5564,0.4699,0.3706,0.2384,-0.1298,-0.1243,
42.924651,2.5564,0.4699,0.3706,-0.2268,0.0623,0.4962,
42.932726,2.5564,0.4699,0.3706,-0.2268,0.0623,0.4962,
42.933959,-0.2237,2.6324,-1.0238,-0.2268,0.0623,0.4962,
42.990631,-0.2237,2.6324,-1.0238,-0.8308,0.1541,0.5803,
42.999028,-0.2237,2.6324,-1.0238,-0.8308,0.1541,0.5803,
43.000448,-0.4236,0.3777,-0.7077,-0.8308,0.1541,0.5803,
43.055255,-0.4236,0.3777,-0.7077,-0.9346,0.9702,0.3668,
43.064124,-0.4236,0.3777,-0.7077,-0.9346,0.9702,0.3668,
43.064691,0.5522,1.0432,-1.1441,-0.9346,0.9702,0.3668,
43.121558,0.5522,1.0432,-1.1441,-0.8624,1.7788,0.3135,
43.129098,0.5522,1.0432,-1.1441,-0.8624,1.7788,0.3135,
43.129412,-0.1327,-1.3991,-1.2353,-0.8624,1.7788,0.3135,
43.188091,-0.1327,-1.3991,-1.2353,-0.5670,1.9129,0.3093,
43.195669,-0.1327,-1.3991,-1.2353,-0.5670,1.9129,0.3093,
43.196601,-1.1118,-1.4587,-0.0918,-0.5670,1.9129,0.3093,
43.250688,-1.1118,-1.4587,-0.0918,0.0415,1.1657,0.3118,
43.260893,-1.1118,-1.4587,-0.0918,0.0415,1.1657,0.3118,
43.261388,0.0851,-2.0026,-0.2656,0.0415,1.1657,0.3118,
43.316060,0.0851,-2.0026,-0.2656,0.4581,1.1956,-0.0327,
43.325703,0.0851,-2.0026,-0.2656,0.4581,1.1956,-0.0327,
43.327496,1.0428,-0.5772,0.5495,0.4581,1.1956,-0.0327,
43.383806,1.0428,-0.5772,0.5495,-0.2899,0.7242,0.2257,
43.390650,1.0428,-0.5772,0.5495,-0.2899,0.7242,0.2257,
43.391654,0.3325,2.0952,2.7746,-0.2899,0.7242,0.2257,
43.447000,0.3325,2.0952,2.7746,-0.6238,-0.3146,0.3891,
43.455115,0.3325,2.0952,2.7746,-0.6238,-0.3146,0.3891,
43.456233,-1.0844,4.5736,-1.4045,-0.6238,-0.3146,0.3891,
43.516054,-1.0844,4.5736,-1.4045,-0.0530,0.0938,-0.1703,
43.521274,-1.0844,4.5736,-1.4045,-0.0530,0.0938,-0.1703,
43.521744,-1.3285,-1.6755,-1.9764,-0.0530,0.0938,-0.1703,
43.580357,-1.3285,-1.6755,-1.9764,0.8228,0.2665,-0.2205,
43.587605,-1.3285,-1.6755,-1.9764,0.8228,0.2665,-0.2205,
43.587995,-0.1433,0.2896,-1.7211,0.8228,0.2665,-0.2205,
43.644476,-0.1433,0.2896,-1.7211,0.8273,-0.3916,-0.0987,
43.651854,-0.1433,0.2896,-1.7211,0.8273,-0.3916,-0.0987,
43.653333,-1.2029,-0.9827,-1.1263,0.8273,-0.3916,-0.0987,
43.708993,-1.2029,-0.9827,-1.1263,0.6292,-0.8716,-0.1090,
43.717144,-1.2029,-0.9827,-1.1263,0.6292,-0.8716,-0.1090,
43.717615,0.9661,-1.7812,-1.0680,0.6292,-0.8716,-0.1090,
43.774573,0.9661,-1.7812,-1.0680,0.6243,-0.4510,-0.3899,
43.783431,0.9661,-1.7812,-1.0680,0.6243,-0.4510,-0.3899,
43.784544,2.6049,-0.7554,-0.5645,0.6243,-0.4510,-0.3899,
43.839917,2.6049,-0.7554,-0.5645,0.5032,-0.0509,-0.4488,
43.848486,2.6049,-0.7554,-0.5645,0.5032,-0.0509,-0.4488,
43.848827,1.8961,0.2630,0.8099,0.5032,-0.0509,-0.4488,
43.905239,1.8961,0.2630,0.8099,0.4052,-0.2388,-0.3083,
43.913848,1.8961,0.2630,0.8099,0.4052,-0.2388,-0.3083,
43.914144,2.8075,0.9414,0.6365,0.4052,-0.2388,-0.3083,
43.972260,2.8075,0.9414,0.6365,0.1811,0.3198,0.3125,
43.979763,2.8075,0.9414,0.6365,0.1811,0.3198,0.3125,
43.980125,0.2322,3.3698,-0.8564,0.1811,0.3198,0.3125,
44.037604,0.2322,3.3698,-0.8564,-0.5011,0.2246,0.8112,
44.043993,0.2322,3.3698,-0.8564,-0.5011,0.2246,0.8112,
44.044366,-2.0073,0.7708,-0.8433,-0.5011,0.2246,0.8112,
44.103680,-2.0073,0.7708,-0.8433,-0.9972,0.2553,0.5596,
44.111784,-2.0073,0.7708,-0.8433,-0.9972,0.2553,0.5596,
44.112628,-1.0054,1.4845,-0.4690,-0.9972,0.2553,0.5596,
44.166921,-1.0054,1.4845,-0.4690,-0.9899,0.7340,0.3195,
44.175430,-1.0054,1.4845,-0.4690,-0.9899,0.7340,0.3195,
44.175777,0.1606,-0.9222,-1.0184,-0.9899,0.7340,0.3195,
44.233883,0.1606,-0.9222,-1.0184,-0.5982,1.5736,0.3968,
44.242283,0.1606,-0.9222,-1.0184,-0.5982,1.5736,0.3968,
44.242661,-0.4191,-2.6859,-0.3467,-0.5982,1.5736,0.3968,
44.300206,-0.4191,-2.6859,-0.3467,-0.2625,1.1639,0.1718,
44.308166,-0.4191,-2.6859,-0.3467,-0.2625,1.1639,0.1718,
44.308542,-1.5167,-1.0554,0.5395,-0.2625,1.1639,0.1718,
44.363744,-1.5167,-1.0554,0.5395,0.3893,0.5655,0.0434,
44.372805,-1.5167,-1.0554,0.5395,0.3893,0.5655,0.0434,
44.373574,-0.1956,-1.8448,0.6978,0.3893,0.5655,0.0434,
44.429263,-0.1956,-1.8448,0.6978,0.0545,0.4898,0.0527,
44.437758,-0.1956,-1.8448,0.6978,0.0545,0.4898,0.0527,
44.438583,0.5448,2.2438,1.6844,0.0545,0.4898,0.0527,
44.494231,0.5448,2.2438,1.6844,-0.5255,0.0709,0.3108,
44.502383,0.5448,2.2438,1.6844,-0.5255,0.0709,0.3108,
44.503320,-0.1510,2.8610,0.9831,-0.5255,0.0709,0.3108,
44.559883,-0.1510,2.8610,0.9831,0.2399,0.1501,-0.4901,
44.568007,-0.1510,2.8610,0.9831,0.2399,0.1501,-0.4901,
44.568501,-2.3475,-0.3844,-1.9460,0.2399,0.1501,-0.4901,
44.627674,-2.3475,-0.3844,-1.9460,0.4288,0.0875,0.0124,
44.635555,-2.3475,-0.3844,-1.9460,0.4288,0.0875,0.0124,
44.636485,-1.2243,-1.3059,-1.9046,0.4288,0.0875,0.0124,
44.691601,-1.2243,-1.3059,-1.9046,0.7668,-0.1057,-0.2082,
44.700726,-1.2243,-1.3059,-1.9046,0.7668,-0.1057,-0.2082,
44.702351,-0.9774,-0.7665,-1.8118,0.7668,-0.1057,-0.2082,
44.757007,-0.9774,-0.7665,-1.8118,0.6778,-0.7943,-0.1461,
44.765323,-0.9774,-0.7665,-1.8118,0.6778,-0.7943,-0.1461,
44.765928,-1.0106,-1.1628,-0.8108,0.6778,-0.7943,-0.1461,
44.822493,-1.0106,-1.1628,-0.8108,0.5936,-1.1393,-0.2477,
44.831866,-1.0106,-1.1628,-0.8108,0.5936,-1.1393,-0.2477,
44.832692,1.7280,-0.7630,-0.4849,0.5936,-1.1393,-0.2477,
44.888693,1.7280,-0.7630,-0.4849,0.5154,-0.6266,-0.4850,
44.896843,1.7280,-0.7630,-0.4849,0.5154,-0.6266,-0.4850,
44.898026,2.1670,-0.4412,0.4472,0.5154,-0.6266,-0.4850,
44.952890,2.1670,-0.4412,0.4472,0.4276,-0.2926,-0.4517,
44.961561,2.1670,-0.4412,0.4472,0.4276,-0.2926,-0.4517,
44.962909,2.5708,0.8977,1.0862,0.4276,-0.2926,-0.4517,
45.019969,2.5708,0.8977,1.0862,0.3893,-0.0507,-0.2410,
45.027601,2.5708,0.8977,1.0862,0.3893,-0.0507,-0.2410,
45.028569,2.6885,0.6097,0.6494,0.3893,-0.0507,-0.2410,
45.084577,2.6885,0.6097,0.6494,0.0539,0.1133,0.3627,
45.092954,2.6885,0.6097,0.6494,0.0539,0.1133,0.3627,
45.093778,-0.5299,2.7130,-0.3786,0.0539,0.1133,0.3627,
45.150668,-0.5299,2.7130,-0.3786,-0.7760,-0.1324,0.6727,
45.159334,-0.5299,2.7130,-0.3786,-0.7760,-0.1324,0.6727,
45.159745,-1.6827,0.3611,-1.3488,-0.7760,-0.1324,0.6727,
45.216388,-1.6827,0.3611,-1.3488,-1.0519,0.1035,0.3578,
45.223479,-1.6827,0.3611,-1.3488,-1.0519,0.1035,0.3578,
45.223806,-0.5412,1.5555,-0.3130,-1.0519,0.1035,0.3578,
45.279445,-0.5412,1.5555,-0.3130,-0.9458,0.7375,0.3360,
45.290065,-0.5412,1.5555,-0.3130,-0.9458,0.7375,0.3360,
45.290967,-0.0030,-1.3428,-0.9644,-0.9458,0.7375,0.3360,
45.345652,-0.0030,-1.3428,-0.9644,-0.6393,1.4209,0.3520,
45.353989,-0.0030,-1.3428,-0.9644,-0.6393,1.4209,0.3520,
45.355137,-0.7345,-2.5014,-0.1080,-0.6393,1.4209,0.3520,
45.413111,-0.7345,-2.5014,-0.1080,-0.2905,0.8888,0.2159,
45.421643,-0.7345,-2.5014,-0.1080,-0.2905,0.8888,0.2159,
45.422551,-0.9447,-1.2998,0.4747,-0.2905,0.8888,0.2159,
45.477386,-0.9447,-1.2998,0.4747,0.1600,0.5857,0.0605,
45.485446,-0.9447,-1.2998,0.4747,0.1600,0.5857,0.0605,
45.486005,0.6609,-1.0471,1.0224,0.1600,0.5857,0.0605,
45.544717,0.6609,-1.0471,1.0224,-0.0649,0.5496,0.0829,
45.551337,0.6609,-1.0471,1.0224,-0.0649,0.5496,0.0829,
45.552378,0.7850,1.8925,2.3076,-0.0649,0.5496,0.0829,
45.608913,0.7850,1.8925,2.3076,-0.5200,0.0845,0.3833,
45.618000,0.7850,1.8925,2.3076,-0.5200,0.0845,0.3833,
45.618531,-0.2542,4.1683,0.1225,-0.5200,0.0845,0.3833,
45.673085,-0.2542,4.1683,0.1225,0.1547,0.1290,-0.5043,
45.680989,-0.2542,4.1683,0.1225,0.1547,0.1290,-0.5043,
45.681850,-2.2073,-0.2485,-1.9821,0.1547,0.1290,-0.5043,
45.739337,-2.2073,-0.2485,-1.9821,0.4847,0.1904,-0.0906,
45.747979,-2.2073,-0.2485,-1.9821,0.4847,0.1904,-0.0906,
45.748312,-0.9148,-1.9462,-1.8531,0.4847,0.1904,-0.0906,
45.804338,-0.9148,-1.9462,-1.8531,0.8305,-0.2505,-0.2040,
45.813629,-0.9148,-1.9462,-1.8531,0.8305,-0.2505,-0.2040,
45.814466,-1.2966,-0.2125,-1.6558,0.8305,-0.2505,-0.2040,
45.869675,-1.2966,-0.2125,-1.6558,0.5568,-0.8809,-0.0657,
45.878369,-1.2966,-0.2125,-1.6558,0.5568,-0.8809,-0.0657,
45.879232,0.0067,-1.1966,-0.7635,0.5568,-0.8809,-0.0657,
45.935879,0.0067,-1.1966,-0.7635,0.6310,-0.7831,-0.3677,
45.944521,0.0067,-1.1966,-0.7635,0.6310,-0.7831,-0.3677,
45.945335,2.1365,-1.1612,-0.4235,0.6310,-0.7831,-0.3677,
46.001175,2.1365,-1.1612,-0.4235,0.5195,-0.2828,-0.5081,
46.008961,2.1365,-1.1612,-0.4235,0.5195,-0.2828,-0.5081,
46.010781,1.7380,-0.1550,0.8538,0.5195,-0.2828,-0.5081,
46.067138,1.7380,-0.1550,0.8538,0.3545,-0.3906,-0.4378,
46.077287,1.7380,-0.1550,0.8538,0.3545,-0.3906,-0.4378,
46.078098,2.3100,1.3342,0.5772,0.3545,-0.3906,-0.4378,
46.132787,2.3100,1.3342,0.5772,0.3467,-0.0173,-0.0915,
46.141126,2.3100,1.3342,0.5772,0.3467,-0.0173,-0.0915,
46.141952,1.8282,1.6321,-0.6109,0.3467,-0.0173,-0.0915,
46.196012,1.8282,1.6321,-0.6109,-0.0919,-0.2224,0.5603,
46.206941,1.8282,1.6321,-0.6109,-0.0919,-0.2224,0.5603,
46.207857,-1.3613,1.8000,-0.9143,-0.0919,-0.2224,0.5603,
46.264110,-1.3613,1.8000,-0.9143,-0.8241,-0.3161,0.6776,
46.270723,-1.3613,1.8000,-0.9143,-0.8241,-0.3161,0.6776,
46.271076,-1.3446,-0.6767,-0.5290,-0.8241,-0.3161,0.6776,
46.330008,-1.3446,-0.6767,-0.5290,-1.0078,0.3140,0.3094,
46.337668,-1.3446,-0.6767,-0.5290,-1.0078,0.3140,0.3094,
46.337997,0.6673,1.2779,-0.3636,-1.0078,0.3140,0.3094,
46.393183,0.6673,1.2779,-0.3636,-0.7750,1.0736,0.4163,
46.401602,0.6673,1.2779,-0.3636,-0.7750,1.0736,0.4163,
46.402832,0.1430,-1.5278,-0.6825,-0.7750,1.0736,0.4163,
46.459867,0.1430,-1.5278,-0.6825,-0.5562,1.6857,0.3383,
46.468402,0.1430,-1.5278,-0.6825,-0.5562,1.6857,0.3383,
46.469632,-0.7074,-1.6505,0.0320,-0.5562,1.6857,0.3383,
46.525456,-0.7074,-1.6505,0.0320,-0.0050,1.1675,0.1104,
46.533210,-0.7074,-1.6505,0.0320,-0.0050,1.1675,0.1104,
46.534568,-1.0325,-1.6859,0.7093,-0.0050,1.1675,0.1104,
46.591848,-1.0325,-1.6859,0.7093,0.1862,0.6781,0.0967,
46.600896,-1.0325,-1.6859,0.7093,0.1862,0.6781,0.0967,
46.602829,0.4210,-0.1407,1.2245,0.1862,0.6781,0.0967,
46.656594,0.4210,-0.1407,1.2245,-0.2330,0.4530,0.2167,
46.664615,0.4210,-0.1407,1.2245,-0.2330,0.4530,0.2167,
46.665628,0.4514,1.8775,2.9715,-0.2330,0.4530,0.2167,
46.722242,0.4514,1.8775,2.9715,-0.4902,0.0562,0.0452,
46.730423,0.4514,1.8775,2.9715,-0.4902,0.0562,0.0452,
46.731897,-0.7656,4.5036,-1.5145,-0.4902,0.0562,0.0452,
46.787329,-0.7656,4.5036,-1.5145,-0.0281,0.1961,-0.3036,
46.795711,-0.7656,4.5036,-1.5145,-0.0281,0.1961,-0.3036,
46.796575,-1.6131,-2.5052,-1.5870,-0.0281,0.1961,-0.3036,
46.852883,-1.6131,-2.5052,-1.5870,0.7624,0.1994,-0.2065,
46.861271,-1.6131,-2.5052,-1.5870,0.7624,0.1994,-0.2065,
46.861604,0.3138,0.5933,-2.2100,0.7624,0.1994,-0.2065,
46.916434,0.3138,0.5933,-2.2100,0.7178,-0.0722,-0.2700,
46.925901,0.3138,0.5933,-2.2100,0.7178,-0.0722,-0.2700,
46.926257,-0.7631,-1.2072,-0.9863,0.7178,-0.0722,-0.2700,
46.982919,-0.7631,-1.2072,-0.9863,0.6529,-0.6254,-0.2433,
46.991247,-0.7631,-1.2072,-0.9863,0.6529,-0.6254,-0.2433,
46.991786,0.8964,-1.2707,-0.8070,0.6529,-0.6254,-0.2433,
47.048974,0.8964,-1.2707,-0.8070,0.6778,-0.2457,-0.4531,
47.056696,0.8964,-1.2707,-0.8070,0.6778,-0.2457,-0.4531,
47.057405,2.3691,-0.9838,-0.1423,0.6778,-0.2457,-0.4531,
47.114596,2.3691,-0.9838,-0.1423,0.4725,0.0870,-0.4785,
47.124093,2.3691,-0.9838,-0.1423,0.4725,0.0870,-0.4785,
