
time,ax,ay,az,wx,wy,wz,
0.024565,0.0000,0.0000,0.0000,-0.0974,-0.0615,-0.0131,
0.024951,0.0000,0.0000,0.0000,-0.0974,-0.0615,-0.0131,
0.034942,0.0000,0.0000,0.0000,-0.0864,-0.0298,-0.0107,
0.084410,0.0000,0.0000,0.0000,-0.0864,-0.0298,-0.0107,
0.100069,0.0000,0.0000,0.0000,-0.0754,0.0544,-0.0499,
0.149505,0.0000,0.0000,0.0000,-0.0754,0.0544,-0.0499,
0.165871,0.0000,0.0000,0.0000,0.0060,0.0843,-0.0684,
0.215733,0.0000,0.0000,0.0000,0.0060,0.0843,-0.0684,
0.231562,0.0000,0.0000,0.0000,0.0344,0.0391,-0.0087,
0.281597,0.0000,0.0000,0.0000,0.0344,0.0391,-0.0087,
0.297467,0.0000,0.0000,0.0000,0.1130,0.1619,-0.0845,
0.347639,0.0000,0.0000,0.0000,0.1130,0.1619,-0.0845,
0.362969,0.0000,0.0000,0.0000,0.2498,0.3752,-0.5945,
0.411757,0.0000,0.0000,0.0000,0.2498,0.3752,-0.5945,
0.428413,0.0000,0.0000,0.0000,0.3199,0.0927,-0.9740,
0.477830,0.0000,0.0000,0.0000,0.3199,0.0927,-0.9740,
0.493945,0.0000,0.0000,0.0000,0.1969,0.3062,-0.7479,
0.495498,-1.2376,0.0752,-1.0391,0.1969,0.3062,-0.7479,
0.543116,-1.2376,0.0752,-1.0391,0.1969,0.3062,-0.7479,
0.558733,-1.2376,0.0752,-1.0391,-0.2268,0.3175,-0.4861,
0.560515,-1.7542,-1.6626,-1.0743,-0.2268,0.3175,-0.4861,
0.608585,-1.7542,-1.6626,-1.0743,-0.2268,0.3175,-0.4861,
0.624883,-1.7542,-1.6626,-1.0743,-0.1257,0.3351,-0.6716,
0.626729,-0.8360,1.4314,-0.3749,-0.1257,0.3351,-0.6716,
0.674691,-0.8360,1.4314,-0.3749,-0.1257,0.3351,-0.6716,
0.690855,-0.8360,1.4314,-0.3749,0.2709,0.2891,-1.0006,
0.692737,-1.2536,3.0352,1.3884,0.2709,0.2891,-1.0006,
0.739430,-1.2536,3.0352,1.3884,0.2709,0.2891,-1.0006,
0.756069,-1.2536,3.0352,1.3884,0.0165,-0.0024,-0.4117,
0.757560,-2.5884,0.3949,-1.0594,0.0165,-0.0024,-0.4117,
0.806407,-2.5884,0.3949,-1.0594,0.0165,-0.0024,-0.4117,
0.821125,-2.5884,0.3949,-1.0594,-0.2445,-0.3630,0.1856,
0.821832,-2.3700,2.8956,0.1419,-0.2445,-0.3630,0.1856,
0.870675,-2.3700,2.8956,0.1419,-0.2445,-0.3630,0.1856,
0.886811,-2.3700,2.8956,0.1419,-0.2077,-0.2697,0.1436,
0.888339,-1.5239,0.5337,-0.6215,-0.2077,-0.2697,0.1436,
0.935817,-1.5239,0.5337,-0.6215,-0.2077,-0.2697,0.1436,
0.951839,-1.5239,0.5337,-0.6215,-0.4499,0.8024,-0.0663,
0.953772,-0.2034,-1.8161,2.0037,-0.4499,0.8024,-0.0663,
1.000944,-0.2034,-1.8161,2.0037,-0.4499,0.8024,-0.0663,
1.017315,-0.2034,-1.8161,2.0037,-0.2915,0.5133,0.2737,
1.019022,0.2754,-0.3490,0.3658,-0.2915,0.5133,0.2737,
1.066594,0.2754,-0.3490,0.3658,-0.2915,0.5133,0.2737,
1.082557,0.2754,-0.3490,0.3658,-0.0860,0.4236,0.1034,
1.084492,-0.8031,-0.4879,0.6101,-0.0860,0.4236,0.1034,
1.132444,-0.8031,-0.4879,0.6101,-0.0860,0.4236,0.1034,
1.148709,-0.8031,-0.4879,0.6101,0.1397,0.5592,-0.1098,
1.150092,-0.0718,-1.0815,0.8015,0.1397,0.5592,-0.1098,
1.198053,-0.0718,-1.0815,0.8015,0.1397,0.5592,-0.1098,
1.213694,-0.0718,-1.0815,0.8015,0.4441,0.7190,-0.2804,
1.215551,-0.0351,-0.9093,0.8310,0.4441,0.7190,-0.2804,
1.263089,-0.0351,-0.9093,0.8310,0.4441,0.7190,-0.2804,
1.279855,-0.0351,-0.9093,0.8310,0.2947,0.4664,-0.1164,
1.282069,-2.3974,2.7443,0.3751,0.2947,0.4664,-0.1164,
1.328374,-2.3974,2.7443,0.3751,0.2947,0.4664,-0.1164,
1.344971,-2.3974,2.7443,0.3751,0.3300,0.1545,0.1191,
1.346732,-2.3947,0.5536,0.7783,0.3300,0.1545,0.1191,
1.394460,-2.3947,0.5536,0.7783,0.3300,0.1545,0.1191,
1.409939,-2.3947,0.5536,0.7783,0.7947,-0.1604,0.0174,
1.411569,-2.5916,0.5068,-1.6968,0.7947,-0.1604,0.0174,
1.460153,-2.5916,0.5068,-1.6968,0.7947,-0.1604,0.0174,
1.476397,-2.5916,0.5068,-1.6968,0.5215,-0.0843,0.2303,
1.478435,-1.2287,-1.3161,-2.8762,0.5215,-0.0843,0.2303,
1.525150,-1.2287,-1.3161,-2.8762,0.5215,-0.0843,0.2303,
1.541412,-1.2287,-1.3161,-2.8762,0.4743,-0.3120,0.1790,
1.542672,-1.2841,0.1727,-1.1269,0.4743,-0.3120,0.1790,
1.591065,-1.2841,0.1727,-1.1269,0.4743,-0.3120,0.1790,
1.607030,-1.2841,0.1727,-1.1269,0.3047,-0.3548,0.2039,
1.611578,-0.6084,-0.4558,-1.1336,0.3047,-0.3548,0.2039,
1.656842,-0.6084,-0.4558,-1.1336,0.3047,-0.3548,0.2039,
1.672505,-0.6084,-0.4558,-1.1336,0.1933,-0.3793,0.0266,
1.674021,-1.1531,-0.7717,-0.8591,0.1933,-0.3793,0.0266,
1.723078,-1.1531,-0.7717,-0.8591,0.1933,-0.3793,0.0266,
1.737690,-1.1531,-0.7717,-0.8591,0.0889,-0.3283,-0.1112,
1.739475,-0.4982,-0.9858,-0.2740,0.0889,-0.3283,-0.1112,
1.787041,-0.4982,-0.9858,-0.2740,0.0889,-0.3283,-0.1112,
1.802752,-0.4982,-0.9858,-0.2740,0.1863,-0.1413,-0.0698,
1.804389,0.1505,-0.6987,0.0217,0.1863,-0.1413,-0.0698,
1.852650,0.1505,-0.6987,0.0217,0.1863,-0.1413,-0.0698,
1.868095,0.1505,-0.6987,0.0217,0.1585,0.3551,-0.1532,
1.869688,0.2003,0.5151,0.8476,0.1585,0.3551,-0.1532,
1.917515,0.2003,0.5151,0.8476,0.1585,0.3551,-0.1532,
1.933715,0.2003,0.5151,0.8476,-0.0260,0.4331,0.5942,
1.935438,-2.4427,3.9065,-2.2267,-0.0260,0.4331,0.5942,
1.984014,-2.4427,3.9065,-2.2267,-0.0260,0.4331,0.5942,
2.000139,-2.4427,3.9065,-2.2267,-1.0427,-0.7370,0.4650,
2.002129,-3.4693,1.0040,-1.6246,-1.0427,-0.7370,0.4650,
2.049327,-3.4693,1.0040,-1.6246,-1.0427,-0.7370,0.4650,
2.064945,-3.4693,1.0040,-1.6246,-0.9174,0.6790,-0.3551,
2.067201,0.2584,1.5340,-1.1448,-0.9174,0.6790,-0.3551,
2.114872,0.2584,1.5340,-1.1448,-0.9174,0.6790,-0.3551,
2.130493,0.2584,1.5340,-1.1448,-0.8607,0.2651,-0.1130,
2.132148,-2.4063,0.3386,-0.7896,-0.8607,0.2651,-0.1130,
2.180993,-2.4063,0.3386,-0.7896,-0.8607,0.2651,-0.1130,
2.196423,-2.4063,0.3386,-0.7896,-0.5990,0.5910,-0.3639,
2.197545,-1.3290,-1.5533,-0.7608,-0.5990,0.5910,-0.3639,
2.245801,-1.3290,-1.5533,-0.7608,-0.5990,0.5910,-0.3639,
2.261805,-1.3290,-1.5533,-0.7608,-0.3708,0.5159,-0.2103,
2.264143,-1.6510,-0.7084,-0.2592,-0.3708,0.5159,-0.2103,
2.310956,-1.6510,-0.7084,-0.2592,-0.3708,0.5159,-0.2103,
2.327242,-1.6510,-0.7084,-0.2592,-0.2228,0.2011,0.0344,
2.328688,-1.6209,-0.9286,0.0830,-0.2228,0.2011,0.0344,
2.376467,-1.6209,-0.9286,0.0830,-0.2228,0.2011,0.0344,
2.392455,-1.6209,-0.9286,0.0830,-0.1614,0.0812,0.1326,
2.393447,-0.9372,-0.3504,0.0405,-0.1614,0.0812,0.1326,
2.442217,-0.9372,-0.3504,0.0405,-0.1614,0.0812,0.1326,
2.457621,-0.9372,-0.3504,0.0405,-0.0878,0.0872,0.1542,
2.458372,-1.1702,-0.0649,0.6128,-0.0878,0.0872,0.1542,
2.507597,-1.1702,-0.0649,0.6128,-0.0878,0.0872,0.1542,
2.523917,-1.1702,-0.0649,0.6128,0.0983,0.1170,-0.0403,
2.525974,-1.8103,2.2641,1.3799,0.0983,0.1170,-0.0403,
2.573365,-1.8103,2.2641,1.3799,0.0983,0.1170,-0.0403,
2.589185,-1.8103,2.2641,1.3799,0.6231,-0.2431,-0.0686,
2.591040,-1.5560,0.9119,0.3797,0.6231,-0.2431,-0.0686,
2.639754,-1.5560,0.9119,0.3797,0.6231,-0.2431,-0.0686,
2.655788,-1.5560,0.9119,0.3797,1.1203,-0.5592,0.0754,
2.657527,-2.1894,-1.1447,-2.6904,1.1203,-0.5592,0.0754,
2.703431,-2.1894,-1.1447,-2.6904,1.1203,-0.5592,0.0754,
2.719362,-2.1894,-1.1447,-2.6904,0.7863,-0.1145,0.0823,
2.721252,-0.8000,0.3319,-1.8714,0.7863,-0.1145,0.0823,
2.770120,-0.8000,0.3319,-1.8714,0.7863,-0.1145,0.0823,
2.785631,-0.8000,0.3319,-1.8714,0.5996,-0.2912,0.0556,
2.787426,-1.6033,-0.0975,-0.7224,0.5996,-0.2912,0.0556,
2.834515,-1.6033,-0.0975,-0.7224,0.5996,-0.2912,0.0556,
2.850514,-1.6033,-0.0975,-0.7224,0.5406,-0.3315,0.1506,
2.851930,-0.3313,-1.1869,-0.8984,0.5406,-0.3315,0.1506,
2.899712,-0.3313,-1.1869,-0.8984,0.5406,-0.3315,0.1506,
2.915768,-0.3313,-1.1869,-0.8984,0.3714,-0.3787,-0.0964,
2.917535,-0.3710,-1.1017,-0.2544,0.3714,-0.3787,-0.0964,
2.966796,-0.3710,-1.1017,-0.2544,0.3714,-0.3787,-0.0964,
2.981504,-0.3710,-1.1017,-0.2544,0.3086,-0.3276,-0.4643,
2.983709,0.1665,-2.0213,0.1811,0.3086,-0.3276,-0.4643,
3.032438,0.1665,-2.0213,0.1811,0.3086,-0.3276,-0.4643,
3.047726,0.1665,-2.0213,0.1811,0.4504,0.0159,-0.5484,
3.050252,1.0423,-1.1590,0.1143,0.4504,0.0159,-0.5484,
3.098088,1.0423,-1.1590,0.1143,0.4504,0.0159,-0.5484,
3.112904,1.0423,-1.1590,0.1143,0.3447,-0.0150,-0.1277,
3.114182,-0.8945,-1.8581,0.8395,0.3447,-0.0150,-0.1277,
3.161777,-0.8945,-1.8581,0.8395,0.3447,-0.0150,-0.1277,
3.178174,-0.8945,-1.8581,0.8395,0.2240,0.8102,1.3728,
3.180722,-1.0496,10.4657,-4.4070,0.2240,0.8102,1.3728,
3.227241,-1.0496,10.4657,-4.4070,0.2240,0.8102,1.3728,
3.243198,-1.0496,10.4657,-4.4070,-1.4774,-0.7052,0.2666,
3.244931,-4.6568,1.6720,1.2210,-1.4774,-0.7052,0.2666,
3.293083,-4.6568,1.6720,1.2210,-1.4774,-0.7052,0.2666,
3.308897,-4.6568,1.6720,1.2210,-1.2104,0.0536,-0.2326,
3.310028,-0.2898,-0.4980,-0.6124,-1.2104,0.0536,-0.2326,
3.358734,-0.2898,-0.4980,-0.6124,-1.2104,0.0536,-0.2326,
3.374089,-0.2898,-0.4980,-0.6124,-0.9279,-0.1500,-0.2540,
3.375759,-2.3749,-2.2417,-1.0416,-0.9279,-0.1500,-0.2540,
3.424402,-2.3749,-2.2417,-1.0416,-0.9279,-0.1500,-0.2540,
3.439083,-2.3749,-2.2417,-1.0416,-0.6090,0.3045,-0.3192,
3.440163,-1.3364,-0.5729,-0.2875,-0.6090,0.3045,-0.3192,
3.490080,-1.3364,-0.5729,-0.2875,-0.6090,0.3045,-0.3192,
3.505422,-1.3364,-0.5729,-0.2875,-0.4414,0.4050,0.1521,
3.506644,-0.3888,-0.6938,-0.0179,-0.4414,0.4050,0.1521,
3.555861,-0.3888,-0.6938,-0.0179,-0.4414,0.4050,0.1521,
3.570913,-0.3888,-0.6938,-0.0179,-0.4479,0.9056,0.2532,
3.573914,-1.0455,-0.8362,-0.7218,-0.4479,0.9056,0.2532,
3.620757,-1.0455,-0.8362,-0.7218,-0.4479,0.9056,0.2532,
3.636563,-1.0455,-0.8362,-0.7218,-0.0402,0.5469,0.5032,
3.637479,-2.1400,0.2978,1.5456,-0.0402,0.5469,0.5032,
3.686384,-2.1400,0.2978,1.5456,-0.0402,0.5469,0.5032,
3.702444,-2.1400,0.2978,1.5456,0.3700,0.5722,0.0049,
3.705410,-2.1458,1.2842,0.9064,0.3700,0.5722,0.0049,
3.750986,-2.1458,1.2842,0.9064,0.3700,0.5722,0.0049,
3.766890,-2.1458,1.2842,0.9064,0.9230,-0.6461,0.1816,
3.768469,-3.5471,1.1743,-0.8059,0.9230,-0.6461,0.1816,
3.817390,-3.5471,1.1743,-0.8059,0.9230,-0.6461,0.1816,
3.832804,-3.5471,1.1743,-0.8059,0.8595,-0.0646,0.3894,
3.834003,0.8826,-1.5190,-3.5912,0.8595,-0.0646,0.3894,
3.882310,0.8826,-1.5190,-3.5912,0.8595,-0.0646,0.3894,
3.897889,0.8826,-1.5190,-3.5912,0.8442,0.2760,0.2764,
3.899286,-1.6274,1.5431,-0.8639,0.8442,0.2760,0.2764,
3.947377,-1.6274,1.5431,-0.8639,0.8442,0.2760,0.2764,
3.963713,-1.6274,1.5431,-0.8639,0.7202,-0.2456,0.2782,
3.965160,-1.2108,-2.2271,-1.9157,0.7202,-0.2456,0.2782,
4.013433,-1.2108,-2.2271,-1.9157,0.7202,-0.2456,0.2782,
4.029266,-1.2108,-2.2271,-1.9157,0.3673,-0.4407,0.0020,
4.030275,-1.5979,-0.4003,-0.3860,0.3673,-0.4407,0.0020,
4.079041,-1.5979,-0.4003,-0.3860,0.3673,-0.4407,0.0020,
4.094114,-1.5979,-0.4003,-0.3860,0.1625,-0.4496,-0.2946,
4.095498,0.3132,-0.8532,-0.1324,0.1625,-0.4496,-0.2946,
4.144026,0.3132,-0.8532,-0.1324,0.1625,-0.4496,-0.2946,
4.160129,0.3132,-0.8532,-0.1324,0.2054,-0.3106,-0.5237,
4.162173,0.2263,-1.3504,0.5723,0.2054,-0.3106,-0.5237,
4.210669,0.2263,-1.3504,0.5723,0.2054,-0.3106,-0.5237,
4.225180,0.2263,-1.3504,0.5723,0.3525,-0.3439,-0.5484,
4.227080,0.5317,-1.5290,0.6893,0.3525,-0.3439,-0.5484,
4.275200,0.5317,-1.5290,0.6893,0.3525,-0.3439,-0.5484,
4.291312,0.5317,-1.5290,0.6893,0.3685,-0.0899,0.1448,
4.293285,-2.8287,0.7362,-3.1882,0.3685,-0.0899,0.1448,
4.340687,-2.8287,0.7362,-3.1882,0.3685,-0.0899,0.1448,
4.356151,-2.8287,0.7362,-3.1882,-0.9221,-0.3520,0.7520,
4.357072,-5.4411,6.0088,-4.8317,-0.9221,-0.3520,0.7520,
4.405986,-5.4411,6.0088,-4.8317,-0.9221,-0.3520,0.7520,
4.422884,-5.4411,6.0088,-4.8317,-1.2405,-1.0279,0.1823,
4.424515,-2.8920,2.6847,-0.6650,-1.2405,-1.0279,0.1823,
4.471812,-2.8920,2.6847,-0.6650,-1.2405,-1.0279,0.1823,
4.487110,-2.8920,2.6847,-0.6650,-1.0220,-0.1231,-0.3700,
4.487992,-0.8444,-1.0789,-1.3208,-1.0220,-0.1231,-0.3700,
4.537047,-0.8444,-1.0789,-1.3208,-1.0220,-0.1231,-0.3700,
4.552393,-0.8444,-1.0789,-1.3208,-0.6695,-0.3338,-0.4833,
4.553386,-2.6622,-0.6023,-0.3191,-0.6695,-0.3338,-0.4833,
4.604799,-2.6622,-0.6023,-0.3191,-0.6695,-0.3338,-0.4833,
4.618722,-2.6622,-0.6023,-0.3191,-0.3595,-0.4146,-0.2786,
4.620653,-1.2137,-1.9063,-0.1318,-0.3595,-0.4146,-0.2786,
4.667746,-1.2137,-1.9063,-0.1318,-0.3595,-0.4146,-0.2786,
4.683835,-1.2137,-1.9063,-0.1318,-0.1657,-0.0429,-0.1350,
4.685430,0.2595,-0.0443,1.5915,-0.1657,-0.0429,-0.1350,
4.733385,0.2595,-0.0443,1.5915,-0.1657,-0.0429,-0.1350,
4.749222,0.2595,-0.0443,1.5915,0.0757,0.2208,0.0455,
4.750432,-1.0819,-0.2777,1.0806,0.0757,0.2208,0.0455,
4.799318,-1.0819,-0.2777,1.0806,0.0757,0.2208,0.0455,
4.815251,-1.0819,-0.2777,1.0806,0.6078,-0.0312,-0.1017,
4.816566,-4.2058,1.1115,0.4463,0.6078,-0.0312,-0.1017,
4.864892,-4.2058,1.1115,0.4463,0.6078,-0.0312,-0.1017,
4.879867,-4.2058,1.1115,0.4463,0.9980,-0.4707,0.3282,
4.881847,-1.9059,0.3488,-1.1217,0.9980,-0.4707,0.3282,
4.929629,-1.9059,0.3488,-1.1217,0.9980,-0.4707,0.3282,
4.945674,-1.9059,0.3488,-1.1217,0.3694,-0.1952,0.2830,
4.947509,-1.2359,0.2944,-0.7010,0.3694,-0.1952,0.2830,
4.996665,-1.2359,0.2944,-0.7010,0.3694,-0.1952,0.2830,
5.011511,-1.2359,0.2944,-0.7010,0.2816,-0.0886,0.4032,
5.013245,-0.5454,-0.6394,-0.9550,0.2816,-0.0886,0.4032,
5.062180,-0.5454,-0.6394,-0.9550,0.2816,-0.0886,0.4032,
5.076176,-0.5454,-0.6394,-0.9550,0.4672,-0.1820,0.2069,
5.078280,-0.5394,-0.7022,0.2557,0.4672,-0.1820,0.2069,
5.127270,-0.5394,-0.7022,0.2557,0.4672,-0.1820,0.2069,
5.143888,-0.5394,-0.7022,0.2557,0.4983,-0.4759,-0.5154,
5.146188,-0.5767,-1.9506,0.2036,0.4983,-0.4759,-0.5154,
5.191670,-0.5767,-1.9506,0.2036,0.4983,-0.4759,-0.5154,
5.207918,-0.5767,-1.9506,0.2036,0.5035,-0.5356,-0.7979,
5.210227,-0.4997,-1.7666,-0.0231,0.5035,-0.5356,-0.7979,
5.256757,-0.4997,-1.7666,-0.0231,0.5035,-0.5356,-0.7979,
5.272919,-0.4997,-1.7666,-0.0231,0.2805,-0.4366,-0.5577,
5.274658,1.3336,-1.2363,0.5369,0.2805,-0.4366,-0.5577,
5.323655,1.3336,-1.2363,0.5369,0.2805,-0.4366,-0.5577,
5.340434,1.3336,-1.2363,0.5369,0.3821,0.0851,0.6312,
5.342023,-4.1945,7.6294,-2.3830,0.3821,0.0851,0.6312,
5.388542,-4.1945,7.6294,-2.3830,0.3821,0.0851,0.6312,
5.404581,-4.1945,7.6294,-2.3830,-1.1390,-1.8466,0.3855,
5.405872,-6.3223,2.4669,0.1729,-1.1390,-1.8466,0.3855,
5.453673,-6.3223,2.4669,0.1729,-1.1390,-1.8466,0.3855,
5.470497,-6.3223,2.4669,0.1729,-1.0716,-0.6968,-0.4084,
5.471892,-0.2218,-0.8967,-0.5581,-1.0716,-0.6968,-0.4084,
5.518902,-0.2218,-0.8967,-0.5581,-1.0716,-0.6968,-0.4084,
5.536808,-0.2218,-0.8967,-0.5581,-0.7735,-1.3076,-0.1949,
5.537641,-3.4244,-1.8829,-0.6848,-0.7735,-1.3076,-0.1949,
5.585368,-3.4244,-1.8829,-0.6848,-0.7735,-1.3076,-0.1949,
5.600764,-3.4244,-1.8829,-0.6848,-0.4650,-0.8456,-0.3015,
5.602286,-1.1827,-0.2715,-0.0718,-0.4650,-0.8456,-0.3015,
5.650630,-1.1827,-0.2715,-0.0718,-0.4650,-0.8456,-0.3015,
5.666856,-1.1827,-0.2715,-0.0718,-0.5049,-0.5658,-0.0728,
5.668638,-1.4645,-0.1977,0.7599,-0.5049,-0.5658,-0.0728,
5.716576,-1.4645,-0.1977,0.7599,-0.5049,-0.5658,-0.0728,
5.732892,-1.4645,-0.1977,0.7599,-0.2992,-0.3768,0.0238,
5.734512,-1.5704,-1.1542,1.0176,-0.2992,-0.3768,0.0238,
5.783279,-1.5704,-1.1542,1.0176,-0.2992,-0.3768,0.0238,
5.797459,-1.5704,-1.1542,1.0176,-0.0347,-0.3169,0.1199,
5.798441,-1.2037,-1.0675,1.2254,-0.0347,-0.3169,0.1199,
5.848785,-1.2037,-1.0675,1.2254,-0.0347,-0.3169,0.1199,
5.862527,-1.2037,-1.0675,1.2254,0.1904,0.1309,0.0426,
5.863696,-1.4397,-0.9265,1.4803,0.1904,0.1309,0.0426,
5.913752,-1.4397,-0.9265,1.4803,0.1904,0.1309,0.0426,
5.928982,-1.4397,-0.9265,1.4803,0.2334,-0.1355,-0.2068,
5.930948,-3.5787,1.6547,2.4096,0.2334,-0.1355,-0.2068,
5.979282,-3.5787,1.6547,2.4096,0.2334,-0.1355,-0.2068,
5.993009,-3.5787,1.6547,2.4096,0.6778,-0.8291,-0.0988,
5.994207,-1.6746,0.3219,1.3961,0.6778,-0.8291,-0.0988,
6.044605,-1.6746,0.3219,1.3961,0.6778,-0.8291,-0.0988,
6.058705,-1.6746,0.3219,1.3961,0.8519,-0.4108,-0.0060,
6.060904,-0.6751,-0.7047,-0.4050,0.8519,-0.4108,-0.0060,
6.109071,-0.6751,-0.7047,-0.4050,0.8519,-0.4108,-0.0060,
6.125271,-0.6751,-0.7047,-0.4050,0.6440,-0.6828,-0.0363,
6.127172,-1.6072,-0.8320,-0.0905,0.6440,-0.6828,-0.0363,
6.176420,-1.6072,-0.8320,-0.0905,0.6440,-0.6828,-0.0363,
6.191872,-1.6072,-0.8320,-0.0905,0.6388,-0.7169,0.2039,
6.194738,0.6013,0.4598,0.6517,0.6388,-0.7169,0.2039,
6.238631,0.6013,0.4598,0.6517,0.6388,-0.7169,0.2039,
6.255370,0.6013,0.4598,0.6517,0.3438,-0.5683,-0.3648,
6.257249,-1.1834,-1.3848,2.0437,0.3438,-0.5683,-0.3648,
6.305424,-1.1834,-1.3848,2.0437,0.3438,-0.5683,-0.3648,
6.321420,-1.1834,-1.3848,2.0437,-0.0142,-0.6052,-0.4218,
6.322859,0.2126,-1.4818,0.9913,-0.0142,-0.6052,-0.4218,
6.370415,0.2126,-1.4818,0.9913,-0.0142,-0.6052,-0.4218,
6.386556,0.2126,-1.4818,0.9913,-0.3734,-0.6095,-0.3140,
6.388499,-0.4245,-3.1064,-0.6692,-0.3734,-0.6095,-0.3140,
6.436516,-0.4245,-3.1064,-0.6692,-0.3734,-0.6095,-0.3140,
6.452431,-0.4245,-3.1064,-0.6692,-0.3337,0.3485,-0.1400,
6.454456,-2.6499,9.7879,-0.8359,-0.3337,0.3485,-0.1400,
6.502636,-2.6499,9.7879,-0.8359,-0.3337,0.3485,-0.1400,
6.518662,-2.6499,9.7879,-0.8359,-0.5411,-1.7375,0.3775,
6.520903,-2.9136,0.4652,1.5407,-0.5411,-1.7375,0.3775,
6.566785,-2.9136,0.4652,1.5407,-0.5411,-1.7375,0.3775,
6.583066,-2.9136,0.4652,1.5407,-0.4687,-0.5973,-0.3499,
6.584877,-0.7901,0.5964,1.0773,-0.4687,-0.5973,-0.3499,
6.633010,-0.7901,0.5964,1.0773,-0.4687,-0.5973,-0.3499,
6.649214,-0.7901,0.5964,1.0773,-0.3517,-0.7398,-0.1662,
6.651418,-1.9687,-3.7777,-0.3443,-0.3517,-0.7398,-0.1662,
6.698419,-1.9687,-3.7777,-0.3443,-0.3517,-0.7398,-0.1662,
6.714051,-1.9687,-3.7777,-0.3443,-0.0255,-0.5111,-0.3036,
6.717009,-1.4390,-0.3928,1.3717,-0.0255,-0.5111,-0.3036,
6.763929,-1.4390,-0.3928,1.3717,-0.0255,-0.5111,-0.3036,
6.779634,-1.4390,-0.3928,1.3717,-0.1038,-0.6568,0.0128,
6.781859,-0.9367,-0.4718,1.6779,-0.1038,-0.6568,0.0128,
6.829502,-0.9367,-0.4718,1.6779,-0.1038,-0.6568,0.0128,
6.845014,-0.9367,-0.4718,1.6779,-0.0892,-0.1388,0.0557,
6.846418,-0.2672,-1.4389,1.5633,-0.0892,-0.1388,0.0557,
6.894317,-0.2672,-1.4389,1.5633,-0.0892,-0.1388,0.0557,
6.909995,-0.2672,-1.4389,1.5633,0.1095,0.1208,0.1738,
6.911191,-0.2118,-0.9655,2.2918,0.1095,0.1208,0.1738,
6.960425,-0.2118,-0.9655,2.2918,0.1095,0.1208,0.1738,
6.975525,-0.2118,-0.9655,2.2918,0.0574,0.2615,0.0606,
6.977395,-1.9411,0.5282,1.7990,0.0574,0.2615,0.0606,
7.025216,-1.9411,0.5282,1.7990,0.0574,0.2615,0.0606,
7.041259,-1.9411,0.5282,1.7990,0.3111,-0.6339,0.0812,
7.042324,-2.0340,0.5501,1.6204,0.3111,-0.6339,0.0812,
7.090717,-2.0340,0.5501,1.6204,0.3111,-0.6339,0.0812,
7.106125,-2.0340,0.5501,1.6204,0.9812,-0.5260,0.3248,
7.107453,-0.7476,1.1912,0.9840,0.9812,-0.5260,0.3248,
7.155065,-0.7476,1.1912,0.9840,0.9812,-0.5260,0.3248,
7.171299,-0.7476,1.1912,0.9840,0.8160,-0.2364,0.2341,
7.172738,-1.1074,-1.3850,0.5057,0.8160,-0.2364,0.2341,
7.221034,-1.1074,-1.3850,0.5057,0.8160,-0.2364,0.2341,
7.236908,-1.1074,-1.3850,0.5057,0.6272,-0.2724,0.5075,
7.238203,0.1919,0.3439,1.3385,0.6272,-0.2724,0.5075,
7.287368,0.1919,0.3439,1.3385,0.6272,-0.2724,0.5075,
7.302724,0.1919,0.3439,1.3385,0.3372,-0.5444,0.4664,
7.304543,-0.0977,-0.5673,1.4297,0.3372,-0.5444,0.4664,
7.352693,-0.0977,-0.5673,1.4297,0.3372,-0.5444,0.4664,
7.368753,-0.0977,-0.5673,1.4297,0.5386,-0.2190,0.0142,
7.370187,-0.2065,-1.4013,1.7031,0.5386,-0.2190,0.0142,
7.418176,-0.2065,-1.4013,1.7031,0.5386,-0.2190,0.0142,
7.433944,-0.2065,-1.4013,1.7031,0.3586,-0.4931,-0.6147,
7.435705,-0.1627,-1.3643,2.0266,0.3586,-0.4931,-0.6147,
7.483691,-0.1627,-1.3643,2.0266,0.3586,-0.4931,-0.6147,
7.500069,-0.1627,-1.3643,2.0266,0.2309,-0.0493,-0.8564,
7.501900,2.2300,-1.4945,2.5047,0.2309,-0.0493,-0.8564,
7.549307,2.2300,-1.4945,2.5047,0.2309,-0.0493,-0.8564,
7.565066,2.2300,-1.4945,2.5047,0.4290,0.4383,-0.5634,
7.566972,0.2473,0.8417,0.9936,0.4290,0.4383,-0.5634,
7.613854,0.2473,0.8417,0.9936,0.4290,0.4383,-0.5634,
7.631227,0.2473,0.8417,0.9936,0.5701,-0.3152,0.6081,
7.633192,-5.6906,6.2862,-2.4041,0.5701,-0.3152,0.6081,
7.679901,-5.6906,6.2862,-2.4041,0.5701,-0.3152,0.6081,
7.697780,-5.6906,6.2862,-2.4041,-1.8902,-0.5890,0.0535,
7.700446,-1.4165,-0.1572,0.0311,-1.8902,-0.5890,0.0535,
7.746023,-1.4165,-0.1572,0.0311,-1.8902,-0.5890,0.0535,
7.760992,-1.4165,-0.1572,0.0311,-1.3370,-0.4102,-0.1744,
7.761589,-0.9940,-1.0706,0.7205,-1.3370,-0.4102,-0.1744,
7.810926,-0.9940,-1.0706,0.7205,-1.3370,-0.4102,-0.1744,
7.826840,-0.9940,-1.0706,0.7205,-0.9378,-0.2634,-0.1816,
7.828500,-1.3250,-0.6869,1.2599,-0.9378,-0.2634,-0.1816,
7.876624,-1.3250,-0.6869,1.2599,-0.9378,-0.2634,-0.1816,
7.893180,-1.3250,-0.6869,1.2599,-0.7995,0.0301,0.0334,
7.895246,-0.0080,-0.8033,1.0470,-0.7995,0.0301,0.0334,
7.941727,-0.0080,-0.8033,1.0470,-0.7995,0.0301,0.0334,
7.957909,-0.0080,-0.8033,1.0470,-0.6553,0.1984,0.3105,
7.959198,0.3478,-1.3884,1.8265,-0.6553,0.1984,0.3105,
8.007061,0.3478,-1.3884,1.8265,-0.6553,0.1984,0.3105,
8.023690,0.3478,-1.3884,1.8265,-0.2023,0.7469,0.0588,
8.025733,-0.2578,-1.2815,2.4441,-0.2023,0.7469,0.0588,
8.072833,-0.2578,-1.2815,2.4441,-0.2023,0.7469,0.0588,
8.089774,-0.2578,-1.2815,2.4441,0.2752,0.6368,0.0272,
8.091666,-1.6956,0.1261,1.5164,0.2752,0.6368,0.0272,
8.138982,-1.6956,0.1261,1.5164,0.2752,0.6368,0.0272,
8.155035,-1.6956,0.1261,1.5164,0.6296,-0.1333,0.0090,
8.157826,-2.6224,1.6859,1.6852,0.6296,-0.1333,0.0090,
8.205923,-2.6224,1.6859,1.6852,0.6296,-0.1333,0.0090,
8.220037,-2.6224,1.6859,1.6852,1.0875,-0.3929,0.8288,
8.222223,-0.4199,-1.5007,0.4230,1.0875,-0.3929,0.8288,
8.269762,-0.4199,-1.5007,0.4230,1.0875,-0.3929,0.8288,
8.285373,-0.4199,-1.5007,0.4230,0.8483,0.1332,0.7425,
8.287524,-0.0006,-0.2790,0.8156,0.8483,0.1332,0.7425,
8.335272,-0.0006,-0.2790,0.8156,0.8483,0.1332,0.7425,
8.351036,-0.0006,-0.2790,0.8156,0.6474,-0.0205,0.4357,
8.352701,-0.3653,-2.0728,0.5168,0.6474,-0.0205,0.4357,
8.401345,-0.3653,-2.0728,0.5168,0.6474,-0.0205,0.4357,
8.417517,-0.3653,-2.0728,0.5168,0.3766,-0.0786,0.0162,
8.418854,0.1262,0.1950,1.8364,0.3766,-0.0786,0.0162,
8.466211,0.1262,0.1950,1.8364,0.3766,-0.0786,0.0162,
8.481695,0.1262,0.1950,1.8364,0.5124,-0.1261,-0.4948,
8.482879,0.5004,-1.8458,1.9147,0.5124,-0.1261,-0.4948,
8.531053,0.5004,-1.8458,1.9147,0.5124,-0.1261,-0.4948,
8.547652,0.5004,-1.8458,1.9147,0.3355,-0.1078,-0.8850,
8.549698,0.3338,-0.2497,2.0953,0.3355,-0.1078,-0.8850,
8.596746,0.3338,-0.2497,2.0953,0.3355,-0.1078,-0.8850,
8.614655,0.3338,-0.2497,2.0953,0.1100,0.1106,-0.6944,
8.616795,1.6887,-0.4086,0.6308,0.1100,0.1106,-0.6944,
8.664035,1.6887,-0.4086,0.6308,0.1100,0.1106,-0.6944,
8.678674,1.6887,-0.4086,0.6308,-0.0553,-0.2599,0.1616,
8.680339,-2.9251,0.5827,-1.1545,-0.0553,-0.2599,0.1616,
8.729720,-2.9251,0.5827,-1.1545,-0.0553,-0.2599,0.1616,
8.744979,-2.9251,0.5827,-1.1545,-1.1054,0.2737,0.1686,
8.746451,-3.0377,5.2486,-1.8766,-1.1054,0.2737,0.1686,
8.793802,-3.0377,5.2486,-1.8766,-1.1054,0.2737,0.1686,
8.809641,-3.0377,5.2486,-1.8766,-1.2068,-0.8207,-0.1037,
8.811214,-1.3195,0.2411,0.0248,-1.2068,-0.8207,-0.1037,
8.859151,-1.3195,0.2411,0.0248,-1.2068,-0.8207,-0.1037,
8.874336,-1.3195,0.2411,0.0248,-0.9177,-0.6015,-0.0615,
8.875113,-0.7685,-1.2364,0.5450,-0.9177,-0.6015,-0.0615,
8.926004,-0.7685,-1.2364,0.5450,-0.9177,-0.6015,-0.0615,
8.940316,-0.7685,-1.2364,0.5450,-0.8648,0.0912,-0.2749,
8.941892,-0.1172,-0.6751,1.3614,-0.8648,0.0912,-0.2749,
8.990890,-0.1172,-0.6751,1.3614,-0.8648,0.0912,-0.2749,
9.005938,-0.1172,-0.6751,1.3614,-1.0003,0.5264,0.2578,
9.007445,0.2537,-0.5350,1.0869,-1.0003,0.5264,0.2578,
9.054950,0.2537,-0.5350,1.0869,-1.0003,0.5264,0.2578,
9.071543,0.2537,-0.5350,1.0869,-0.3890,0.5006,0.6816,
9.073413,0.5670,-3.5342,1.4139,-0.3890,0.5006,0.6816,
9.120505,0.5670,-3.5342,1.4139,-0.3890,0.5006,0.6816,
9.136664,0.5670,-3.5342,1.4139,0.0991,0.9485,0.1713,
9.138240,-0.8921,-1.4713,2.3663,0.0991,0.9485,0.1713,
9.186355,-0.8921,-1.4713,2.3663,0.0991,0.9485,0.1713,
9.202779,-0.8921,-1.4713,2.3663,0.4861,0.0886,0.4556,
9.204582,-2.3644,2.1939,1.8485,0.4861,0.0886,0.4556,
9.251567,-2.3644,2.1939,1.8485,0.4861,0.0886,0.4556,
9.267057,-2.3644,2.1939,1.8485,0.9507,-0.4059,0.4511,
9.268550,-0.9934,1.9784,1.0569,0.9507,-0.4059,0.4511,
9.317713,-0.9934,1.9784,1.0569,0.9507,-0.4059,0.4511,
9.333375,-0.9934,1.9784,1.0569,1.2037,0.3905,0.2550,
9.334632,-0.0232,-0.1137,-0.4760,1.2037,0.3905,0.2550,
9.383493,-0.0232,-0.1137,-0.4760,1.2037,0.3905,0.2550,
9.398201,-0.0232,-0.1137,-0.4760,0.7844,0.5197,0.2280,
9.399505,-1.2536,-0.5409,1.0319,0.7844,0.5197,0.2280,
9.448092,-1.2536,-0.5409,1.0319,0.7844,0.5197,0.2280,
9.464161,-1.2536,-0.5409,1.0319,0.5760,0.0130,0.2547,
9.465636,-0.2026,-1.5447,0.9497,0.5760,0.0130,0.2547,
9.514147,-0.2026,-1.5447,0.9497,0.5760,0.0130,0.2547,
9.529558,-0.2026,-1.5447,0.9497,0.4143,-0.0637,-0.0318,
9.532932,0.6207,-0.7240,1.5022,0.4143,-0.0637,-0.0318,
9.580695,0.6207,-0.7240,1.5022,0.4143,-0.0637,-0.0318,
9.593818,0.6207,-0.7240,1.5022,0.2311,-0.1252,-0.5128,
9.595267,0.6016,-1.9561,2.5261,0.2311,-0.1252,-0.5128,
9.645855,0.6016,-1.9561,2.5261,0.2311,-0.1252,-0.5128,
9.662106,0.6016,-1.9561,2.5261,0.5762,0.0137,-0.6154,
9.663797,0.0793,-2.3534,1.6084,0.5762,0.0137,-0.6154,
9.711355,0.0793,-2.3534,1.6084,0.5762,0.0137,-0.6154,
9.725825,0.0793,-2.3534,1.6084,0.1958,0.2669,-0.3714,
9.726836,-1.2024,1.0797,-1.2312,0.1958,0.2669,-0.3714,
9.775633,-1.2024,1.0797,-1.2312,0.1958,0.2669,-0.3714,
9.790640,-1.2024,1.0797,-1.2312,-0.0263,-0.4892,0.0881,
9.791392,-3.8092,7.4225,-2.8822,-0.0263,-0.4892,0.0881,
9.841081,-3.8092,7.4225,-2.8822,-0.0263,-0.4892,0.0881,
9.857476,-3.8092,7.4225,-2.8822,-1.1215,-0.6562,-0.2560,
9.859274,-1.7311,0.6827,2.5615,-1.1215,-0.6562,-0.2560,
9.906862,-1.7311,0.6827,2.5615,-1.1215,-0.6562,-0.2560,
9.923775,-1.7311,0.6827,2.5615,-1.0420,-0.1028,-0.4383,
9.926218,-0.2327,-0.3725,0.3501,-1.0420,-0.1028,-0.4383,
9.970981,-0.2327,-0.3725,0.3501,-1.0420,-0.1028,-0.4383,
9.989451,-0.2327,-0.3725,0.3501,-0.7915,-0.4513,0.0096,
9.991537,-1.8309,-1.4102,1.0020,-0.7915,-0.4513,0.0096,
10.039468,-1.8309,-1.4102,1.0020,-0.7915,-0.4513,0.0096,
10.053625,-1.8309,-1.4102,1.0020,-0.7089,0.0295,-0.0706,
10.055788,0.2074,-1.2917,1.0210,-0.7089,0.0295,-0.0706,
10.104547,0.2074,-1.2917,1.0210,-0.7089,0.0295,-0.0706,
10.119164,0.2074,-1.2917,1.0210,-0.4177,0.3896,0.2970,
10.121730,0.3492,-0.8547,2.0116,-0.4177,0.3896,0.2970,
10.169730,0.3492,-0.8547,2.0116,-0.4177,0.3896,0.2970,
10.185220,0.3492,-0.8547,2.0116,-0.0591,0.7616,0.3393,
10.187610,0.0423,-0.5584,2.8116,-0.0591,0.7616,0.3393,
10.235180,0.0423,-0.5584,2.8116,-0.0591,0.7616,0.3393,
10.250515,0.0423,-0.5584,2.8116,0.4394,0.6892,0.3383,
10.252966,-1.5746,1.3642,0.5437,0.4394,0.6892,0.3383,
10.299410,-1.5746,1.3642,0.5437,0.4394,0.6892,0.3383,
10.314950,-1.5746,1.3642,0.5437,0.8870,0.1022,0.8842,
10.316790,-1.0760,0.4784,0.2850,0.8870,0.1022,0.8842,
10.366024,-1.0760,0.4784,0.2850,0.8870,0.1022,0.8842,
10.381184,-1.0760,0.4784,0.2850,0.7816,0.5797,0.9076,
10.383916,-0.0441,-2.0468,-0.5129,0.7816,0.5797,0.9076,
10.430325,-0.0441,-2.0468,-0.5129,0.7816,0.5797,0.9076,
10.446963,-0.0441,-2.0468,-0.5129,0.5793,0.7892,0.4171,
10.449080,-0.7798,-0.3465,1.1259,0.5793,0.7892,0.4171,
10.496151,-0.7798,-0.3465,1.1259,0.5793,0.7892,0.4171,
10.511347,-0.7798,-0.3465,1.1259,0.4079,0.6031,0.1820,
10.513092,-0.0241,-0.9426,0.9509,0.4079,0.6031,0.1820,
10.563643,-0.0241,-0.9426,0.9509,0.4079,0.6031,0.1820,
10.579204,-0.0241,-0.9426,0.9509,0.1420,0.1891,-0.2254,
10.580781,-0.3205,-0.9124,1.5294,0.1420,0.1891,-0.2254,
10.629092,-0.3205,-0.9124,1.5294,0.1420,0.1891,-0.2254,
10.643476,-0.3205,-0.9124,1.5294,0.2604,0.0577,-0.4991,
10.646042,0.3015,-2.0720,1.7181,0.2604,0.0577,-0.4991,
10.692697,0.3015,-2.0720,1.7181,0.2604,0.0577,-0.4991,
10.707980,0.3015,-2.0720,1.7181,0.4600,-0.1717,-0.7918,
10.710119,-0.2329,-1.8433,0.8637,0.4600,-0.1717,-0.7918,
10.760338,-0.2329,-1.8433,0.8637,0.4600,-0.1717,-0.7918,
10.775000,-0.2329,-1.8433,0.8637,0.7726,0.9910,-0.2695,
10.777172,1.2510,4.9600,-2.9441,0.7726,0.9910,-0.2695,
10.823970,1.2510,4.9600,-2.9441,0.7726,0.9910,-0.2695,
10.841471,1.2510,4.9600,-2.9441,-1.1829,-1.1787,0.0050,
10.843685,-9.0802,4.7332,-3.0206,-1.1829,-1.1787,0.0050,
10.889144,-9.0802,4.7332,-3.0206,-1.1829,-1.1787,0.0050,
10.905306,-9.0802,4.7332,-3.0206,-0.9766,-0.6964,0.2526,
10.907338,1.2988,0.4853,-0.5977,-0.9766,-0.6964,0.2526,
10.954903,1.2988,0.4853,-0.5977,-0.9766,-0.6964,0.2526,
10.970236,1.2988,0.4853,-0.5977,-1.1121,-0.5231,-0.2020,
10.971164,-1.9083,-0.7085,0.6271,-1.1121,-0.5231,-0.2020,
11.020567,-1.9083,-0.7085,0.6271,-1.1121,-0.5231,-0.2020,
11.035567,-1.9083,-0.7085,0.6271,-1.0055,0.0067,-0.1491,
11.036635,-0.9941,-1.2954,1.1831,-1.0055,0.0067,-0.1491,
11.084645,-0.9941,-1.2954,1.1831,-1.0055,0.0067,-0.1491,
11.100639,-0.9941,-1.2954,1.1831,-0.6817,0.1414,0.1327,
11.101439,-0.7428,-0.7500,1.4328,-0.6817,0.1414,0.1327,
11.151746,-0.7428,-0.7500,1.4328,-0.6817,0.1414,0.1327,
11.167269,-0.7428,-0.7500,1.4328,-0.4717,0.6978,0.1688,
11.168166,0.7265,-1.9792,1.6022,-0.4717,0.6978,0.1688,
11.215556,0.7265,-1.9792,1.6022,-0.4717,0.6978,0.1688,
11.232042,0.7265,-1.9792,1.6022,0.1866,1.0157,0.3076,
11.233510,0.1043,-2.3022,1.2879,0.1866,1.0157,0.3076,
11.282000,0.1043,-2.3022,1.2879,0.1866,1.0157,0.3076,
11.296605,0.1043,-2.3022,1.2879,0.0887,1.0971,0.2414,
11.297776,-1.7206,1.3454,1.6989,0.0887,1.0971,0.2414,
11.348619,-1.7206,1.3454,1.6989,0.0887,1.0971,0.2414,
11.363818,-1.7206,1.3454,1.6989,0.1885,0.0881,-0.0786,
11.365170,-3.1657,0.3943,0.1037,0.1885,0.0881,-0.0786,
11.413297,-3.1657,0.3943,0.1037,0.1885,0.0881,-0.0786,
11.430077,-3.1657,0.3943,0.1037,0.6565,-0.2080,0.3210,
11.431408,-1.3583,1.7260,-0.2592,0.6565,-0.2080,0.3210,
11.479656,-1.3583,1.7260,-0.2592,0.6565,-0.2080,0.3210,
11.493953,-1.3583,1.7260,-0.2592,0.7463,-0.2764,0.1545,
11.495067,-2.0567,-0.1655,-0.0672,0.7463,-0.2764,0.1545,
11.544859,-2.0567,-0.1655,-0.0672,0.7463,-0.2764,0.1545,
11.558769,-2.0567,-0.1655,-0.0672,0.6778,-0.0764,0.2537,
11.559372,0.6710,-0.7977,0.3680,0.6778,-0.0764,0.2537,
11.610002,0.6710,-0.7977,0.3680,0.6778,-0.0764,0.2537,
11.624820,0.6710,-0.7977,0.3680,0.4129,-0.0951,0.2979,
11.626449,-0.3084,-0.4776,1.7220,0.4129,-0.0951,0.2979,
11.676447,-0.3084,-0.4776,1.7220,0.4129,-0.0951,0.2979,
11.691198,-0.3084,-0.4776,1.7220,0.4694,0.1344,0.1067,
11.692901,1.2622,-1.8297,1.0522,0.4694,0.1344,0.1067,
11.739649,1.2622,-1.8297,1.0522,0.4694,0.1344,0.1067,
11.757052,1.2622,-1.8297,1.0522,0.2805,0.1715,-0.4351,
11.758396,-0.4359,-0.9734,0.7655,0.2805,0.1715,-0.4351,
11.806402,-0.4359,-0.9734,0.7655,0.2805,0.1715,-0.4351,
11.821547,-0.4359,-0.9734,0.7655,0.2903,-0.1231,-0.9924,
11.823046,0.4787,-3.0027,1.0792,0.2903,-0.1231,-0.9924,
11.873178,0.4787,-3.0027,1.0792,0.2903,-0.1231,-0.9924,
11.887359,0.4787,-3.0027,1.0792,0.2911,-0.4322,-0.8809,
11.889411,0.0598,-0.6458,-0.8857,0.2911,-0.4322,-0.8809,
11.936479,0.0598,-0.6458,-0.8857,0.2911,-0.4322,-0.8809,
11.952141,0.0598,-0.6458,-0.8857,-0.2920,-0.1910,0.0573,
11.954487,-4.9338,7.2414,-0.5133,-0.2920,-0.1910,0.0573,
12.002752,-4.9338,7.2414,-0.5133,-0.2920,-0.1910,0.0573,
12.017953,-4.9338,7.2414,-0.5133,-0.6587,-0.1390,0.1226,
12.019817,0.0718,1.6807,-0.4476,-0.6587,-0.1390,0.1226,
12.066856,0.0718,1.6807,-0.4476,-0.6587,-0.1390,0.1226,
12.083283,0.0718,1.6807,-0.4476,-0.9372,-0.4021,0.0180,
12.084549,-1.1623,-2.3047,-0.7147,-0.9372,-0.4021,0.0180,
12.131829,-1.1623,-2.3047,-0.7147,-0.9372,-0.4021,0.0180,
12.148139,-1.1623,-2.3047,-0.7147,-0.8083,0.5573,-0.3173,
12.150243,-1.1410,-1.3742,0.9690,-0.8083,0.5573,-0.3173,
12.198715,-1.1410,-1.3742,0.9690,-0.8083,0.5573,-0.3173,
12.215249,-1.1410,-1.3742,0.9690,-0.9351,0.0163,0.1772,
12.217506,-1.0518,-0.0373,0.4338,-0.9351,0.0163,0.1772,
12.264807,-1.0518,-0.0373,0.4338,-0.9351,0.0163,0.1772,
12.281834,-1.0518,-0.0373,0.4338,-0.7950,0.3826,0.4223,
12.283762,-0.5223,-0.6320,0.2395,-0.7950,0.3826,0.4223,
12.329505,-0.5223,-0.6320,0.2395,-0.7950,0.3826,0.4223,
12.345619,-0.5223,-0.6320,0.2395,-0.5834,0.4866,0.5991,
12.346585,-0.9421,-1.2080,0.8210,-0.5834,0.4866,0.5991,
12.394893,-0.9421,-1.2080,0.8210,-0.5834,0.4866,0.5991,
12.410964,-0.9421,-1.2080,0.8210,-0.4801,0.4908,0.4122,
12.411817,-0.2399,-0.9495,1.1309,-0.4801,0.4908,0.4122,
12.460293,-0.2399,-0.9495,1.1309,-0.4801,0.4908,0.4122,
12.474944,-0.2399,-0.9495,1.1309,0.2071,0.6322,-0.0067,
12.476068,0.2350,-1.1669,1.0909,0.2071,0.6322,-0.0067,
12.525932,0.2350,-1.1669,1.0909,0.2071,0.6322,-0.0067,
12.541065,0.2350,-1.1669,1.0909,0.3319,0.8448,-0.0912,
12.542572,-1.3564,0.8732,1.1460,0.3319,0.8448,-0.0912,
12.591096,-1.3564,0.8732,1.1460,0.3319,0.8448,-0.0912,
12.606286,-1.3564,0.8732,1.1460,0.5151,-0.0283,-0.2445,
12.607325,-2.7351,1.9594,0.9501,0.5151,-0.0283,-0.2445,
12.656587,-2.7351,1.9594,0.9501,0.5151,-0.0283,-0.2445,
12.672857,-2.7351,1.9594,0.9501,0.9051,-0.7943,0.2537,
12.674764,-1.5299,-1.1974,-0.6965,0.9051,-0.7943,0.2537,
12.721936,-1.5299,-1.1974,-0.6965,0.9051,-0.7943,0.2537,
12.737757,-1.5299,-1.1974,-0.6965,0.9757,-0.2900,0.0889,
12.739890,-1.2211,-2.1457,-1.0220,0.9757,-0.2900,0.0889,
12.787962,-1.2211,-2.1457,-1.0220,0.9757,-0.2900,0.0889,
12.803760,-1.2211,-2.1457,-1.0220,0.7054,-0.2228,-0.0052,
12.805766,-0.1682,0.2738,0.8414,0.7054,-0.2228,-0.0052,
12.853891,-0.1682,0.2738,0.8414,0.7054,-0.2228,-0.0052,
12.868727,-0.1682,0.2738,0.8414,0.5556,0.1429,0.1060,
12.870552,0.8348,0.9670,0.5255,0.5556,0.1429,0.1060,
12.918598,0.8348,0.9670,0.5255,0.5556,0.1429,0.1060,
12.934153,0.8348,0.9670,0.5255,0.3439,0.1651,-0.0935,
12.935935,-0.1355,-0.2370,1.3898,0.3439,0.1651,-0.0935,
12.984964,-0.1355,-0.2370,1.3898,0.3439,0.1651,-0.0935,
13.000946,-0.1355,-0.2370,1.3898,-0.0177,-0.0166,-0.5554,
13.003198,0.1496,-1.3628,1.3455,-0.0177,-0.0166,-0.5554,
13.049861,0.1496,-1.3628,1.3455,-0.0177,-0.0166,-0.5554,
13.066344,0.1496,-1.3628,1.3455,-0.4960,-0.3998,-0.7929,
13.068481,0.3755,-3.5706,-0.4818,-0.4960,-0.3998,-0.7929,
13.116306,0.3755,-3.5706,-0.4818,-0.4960,-0.3998,-0.7929,
13.130735,0.3755,-3.5706,-0.4818,0.1257,1.3349,0.1755,
13.131489,-0.2087,3.2452,-3.2415,0.1257,1.3349,0.1755,
13.180586,-0.2087,3.2452,-3.2415,0.1257,1.3349,0.1755,
13.196459,-0.2087,3.2452,-3.2415,-0.5206,-1.6425,0.4342,
13.197495,-5.7433,5.3330,1.4124,-0.5206,-1.6425,0.4342,
13.246496,-5.7433,5.3330,1.4124,-0.5206,-1.6425,0.4342,
13.262220,-5.7433,5.3330,1.4124,-0.6142,-0.0916,-0.1791,
13.263143,-0.8654,0.1677,0.5234,-0.6142,-0.0916,-0.1791,
13.312817,-0.8654,0.1677,0.5234,-0.6142,-0.0916,-0.1791,
13.327169,-0.8654,0.1677,0.5234,-0.7395,-0.3155,-0.1988,
13.328149,-1.7497,-2.1606,-0.6548,-0.7395,-0.3155,-0.1988,
13.377771,-1.7497,-2.1606,-0.6548,-0.7395,-0.3155,-0.1988,
13.392746,-1.7497,-2.1606,-0.6548,-0.7859,0.1257,-0.2462,
13.393907,-1.0273,-0.4052,0.6274,-0.7859,0.1257,-0.2462,
13.442442,-1.0273,-0.4052,0.6274,-0.7859,0.1257,-0.2462,
13.457632,-1.0273,-0.4052,0.6274,-0.6568,0.0819,0.2480,
13.458251,-0.6492,-0.9513,0.9301,-0.6568,0.0819,0.2480,
13.507620,-0.6492,-0.9513,0.9301,-0.6568,0.0819,0.2480,
13.523552,-0.6492,-0.9513,0.9301,-0.3688,0.5049,0.4673,
13.525030,-0.2702,-2.0302,1.0144,-0.3688,0.5049,0.4673,
13.573199,-0.2702,-2.0302,1.0144,-0.3688,0.5049,0.4673,
13.589442,-0.2702,-2.0302,1.0144,-0.0673,0.8158,0.2914,
13.590849,-0.3950,-1.0762,0.8976,-0.0673,0.8158,0.2914,
13.638409,-0.3950,-1.0762,0.8976,-0.0673,0.8158,0.2914,
13.655592,-0.3950,-1.0762,0.8976,-0.1399,0.5644,0.2405,
13.657406,-1.4557,0.4790,1.1110,-0.1399,0.5644,0.2405,
13.703619,-1.4557,0.4790,1.1110,-0.1399,0.5644,0.2405,
13.720039,-1.4557,0.4790,1.1110,0.3706,-0.0777,-0.0728,
13.722090,-0.3172,-1.1233,1.2596,0.3706,-0.0777,-0.0728,
13.769391,-0.3172,-1.1233,1.2596,0.3706,-0.0777,-0.0728,
13.786545,-0.3172,-1.1233,1.2596,0.7524,-0.0990,-0.1631,
13.788787,-1.5235,2.8579,0.6532,0.7524,-0.0990,-0.1631,
13.834645,-1.5235,2.8579,0.6532,0.7524,-0.0990,-0.1631,
13.850719,-1.5235,2.8579,0.6532,1.3827,0.0929,0.6768,
13.852594,-1.0476,-1.2993,-0.6314,1.3827,0.0929,0.6768,
13.900766,-1.0476,-1.2993,-0.6314,1.3827,0.0929,0.6768,
13.915644,-1.0476,-1.2993,-0.6314,0.8876,0.6765,0.4226,
13.917572,-1.4693,0.2913,0.6556,0.8876,0.6765,0.4226,
13.965900,-1.4693,0.2913,0.6556,0.8876,0.6765,0.4226,
13.982537,-1.4693,0.2913,0.6556,0.4377,0.3847,0.2175,
13.983777,0.1723,-1.1431,0.6954,0.4377,0.3847,0.2175,
14.033134,0.1723,-1.1431,0.6954,0.4377,0.3847,0.2175,
14.047754,0.1723,-1.1431,0.6954,0.2216,0.4730,0.1494,
14.049968,-0.6326,-0.5811,-0.4191,0.2216,0.4730,0.1494,
14.097035,-0.6326,-0.5811,-0.4191,0.2216,0.4730,0.1494,
14.114836,-0.6326,-0.5811,-0.4191,-0.3496,-0.0102,-0.5476,
14.117085,-2.3803,-1.7420,0.6352,-0.3496,-0.0102,-0.5476,
14.163159,-2.3803,-1.7420,0.6352,-0.3496,-0.0102,-0.5476,
14.179025,-2.3803,-1.7420,0.6352,-0.6542,-0.5635,-0.9288,
14.181368,1.4070,-2.9184,0.1757,-0.6542,-0.5635,-0.9288,
14.227827,1.4070,-2.9184,0.1757,-0.6542,-0.5635,-0.9288,
14.244430,1.4070,-2.9184,0.1757,-0.3257,1.9784,0.2784,
14.246533,1.7477,10.3756,-0.8805,-0.3257,1.9784,0.2784,
14.293229,1.7477,10.3756,-0.8805,-0.3257,1.9784,0.2784,
14.309373,1.7477,10.3756,-0.8805,-0.6779,-0.5693,0.3978,
14.310960,-2.6342,0.7833,0.4186,-0.6779,-0.5693,0.3978,
14.358984,-2.6342,0.7833,0.4186,-0.6779,-0.5693,0.3978,
14.373901,-2.6342,0.7833,0.4186,-0.6220,0.3259,0.0043,
14.375055,-0.6456,0.1637,1.0136,-0.6220,0.3259,0.0043,
14.424900,-0.6456,0.1637,1.0136,-0.6220,0.3259,0.0043,
14.440676,-0.6456,0.1637,1.0136,-0.4569,0.1280,0.2569,
14.443015,-0.9025,-1.5345,-0.3050,-0.4569,0.1280,0.2569,
14.490545,-0.9025,-1.5345,-0.3050,-0.4569,0.1280,0.2569,
14.506729,-0.9025,-1.5345,-0.3050,-0.5385,0.3971,-0.1110,
14.510383,-1.3179,-1.5596,0.0418,-0.5385,0.3971,-0.1110,
14.555326,-1.3179,-1.5596,0.0418,-0.5385,0.3971,-0.1110,
14.572745,-1.3179,-1.5596,0.0418,-0.2854,0.2694,0.1944,
14.575516,-0.9905,-0.2968,0.7333,-0.2854,0.2694,0.1944,
14.622330,-0.9905,-0.2968,0.7333,-0.2854,0.2694,0.1944,
14.636045,-0.9905,-0.2968,0.7333,-0.1843,0.4192,0.2098,
14.637210,0.4366,-1.0892,1.4720,-0.1843,0.4192,0.2098,
14.686417,0.4366,-1.0892,1.4720,-0.1843,0.4192,0.2098,
14.702539,0.4366,-1.0892,1.4720,0.2262,0.9006,0.0677,
14.704519,-0.6748,-0.5156,0.1557,0.2262,0.9006,0.0677,
14.752433,-0.6748,-0.5156,0.1557,0.2262,0.9006,0.0677,
14.768289,-0.6748,-0.5156,0.1557,0.9230,0.4467,0.0460,
14.770192,-2.4084,2.1181,0.2691,0.9230,0.4467,0.0460,
14.816558,-2.4084,2.1181,0.2691,0.9230,0.4467,0.0460,
14.833348,-2.4084,2.1181,0.2691,1.0253,0.4856,0.3977,
14.835550,-1.1738,0.2425,-1.2851,1.0253,0.4856,0.3977,
14.881315,-1.1738,0.2425,-1.2851,1.0253,0.4856,0.3977,
14.899577,-1.1738,0.2425,-1.2851,0.6353,0.3858,0.2347,
14.901914,-1.9471,-0.5580,0.3388,0.6353,0.3858,0.2347,
14.948890,-1.9471,-0.5580,0.3388,0.6353,0.3858,0.2347,
14.963832,-1.9471,-0.5580,0.3388,0.4420,0.1828,0.4417,
14.965240,1.2436,-0.9897,-0.4706,0.4420,0.1828,0.4417,
15.013248,1.2436,-0.9897,-0.4706,0.4420,0.1828,0.4417,
15.029831,1.2436,-0.9897,-0.4706,0.4183,0.2769,0.2618,
15.031632,-0.8330,-0.3823,0.6054,0.4183,0.2769,0.2618,
15.080279,-0.8330,-0.3823,0.6054,0.4183,0.2769,0.2618,
15.095601,-0.8330,-0.3823,0.6054,0.0973,-0.0860,-0.2001,
15.097158,0.0760,-0.9499,0.7370,0.0973,-0.0860,-0.2001,
15.145249,0.0760,-0.9499,0.7370,0.0973,-0.0860,-0.2001,
15.161592,0.0760,-0.9499,0.7370,0.3319,0.2815,-0.6495,
15.163053,0.8156,-2.0931,0.0071,0.3319,0.2815,-0.6495,
15.211492,0.8156,-2.0931,0.0071,0.3319,0.2815,-0.6495,
15.226221,0.8156,-2.0931,0.0071,-0.0669,0.3215,-0.8212,
15.227651,-0.0271,-1.1600,0.2006,-0.0669,0.3215,-0.8212,
15.275780,-0.0271,-1.1600,0.2006,-0.0669,0.3215,-0.8212,
15.291892,-0.0271,-1.1600,0.2006,0.1067,0.3062,-0.0835,
15.293506,-1.7859,1.2858,-4.8146,0.1067,0.3062,-0.0835,
15.340862,-1.7859,1.2858,-4.8146,0.1067,0.3062,-0.0835,
15.357092,-1.7859,1.2858,-4.8146,-1.1361,-1.3786,0.4633,
15.359238,-6.7461,7.3306,-3.7536,-1.1361,-1.3786,0.4633,
15.405682,-6.7461,7.3306,-3.7536,-1.1361,-1.3786,0.4633,
15.421887,-6.7461,7.3306,-3.7536,-0.8888,-0.1599,0.0530,
15.423721,2.2983,-1.0567,0.0121,-0.8888,-0.1599,0.0530,
15.471900,2.2983,-1.0567,0.0121,-0.8888,-0.1599,0.0530,
15.487246,2.2983,-1.0567,0.0121,-0.7810,0.0841,0.1597,
15.489021,-0.7679,-1.1464,-0.5734,-0.7810,0.0841,0.1597,
15.538269,-0.7679,-1.1464,-0.5734,-0.7810,0.0841,0.1597,
15.554448,-0.7679,-1.1464,-0.5734,-0.8613,0.5715,0.0116,
15.556814,-1.5401,-1.0086,0.2159,-0.8613,0.5715,0.0116,
15.603604,-1.5401,-1.0086,0.2159,-0.8613,0.5715,0.0116,
15.619629,-1.5401,-1.0086,0.2159,-0.7120,0.4931,0.3581,
15.623257,-0.9139,0.4096,-0.0658,-0.7120,0.4931,0.3581,
15.668407,-0.9139,0.4096,-0.0658,-0.7120,0.4931,0.3581,
15.684080,-0.9139,0.4096,-0.0658,-0.5713,0.6129,0.6216,
15.687414,0.0418,-1.4829,0.3260,-0.5713,0.6129,0.6216,
15.732838,0.0418,-1.4829,0.3260,-0.5713,0.6129,0.6216,
15.748645,0.0418,-1.4829,0.3260,-0.2659,1.3349,0.3461,
15.749952,0.5832,-1.3246,0.3092,-0.2659,1.3349,0.3461,
15.799121,0.5832,-1.3246,0.3092,-0.2659,1.3349,0.3461,
15.815535,0.5832,-1.3246,0.3092,-0.1260,1.3677,0.3483,
15.816923,-0.6734,0.4377,0.4193,-0.1260,1.3677,0.3483,
15.865582,-0.6734,0.4377,0.4193,-0.1260,1.3677,0.3483,
15.880091,-0.6734,0.4377,0.4193,0.2523,0.9865,0.0275,
15.882597,-2.2039,0.5400,0.1324,0.2523,0.9865,0.0275,
15.930586,-2.2039,0.5400,0.1324,0.2523,0.9865,0.0275,
15.946267,-2.2039,0.5400,0.1324,0.5093,0.0921,0.1180,
15.948463,-1.6077,1.7560,-0.3749,0.5093,0.0921,0.1180,
15.995894,-1.6077,1.7560,-0.3749,0.5093,0.0921,0.1180,
16.013601,-1.6077,1.7560,-0.3749,0.8874,0.3290,0.1581,
16.016045,-0.3044,-0.0091,-1.9989,0.8874,0.3290,0.1581,
16.061106,-0.3044,-0.0091,-1.9989,0.8874,0.3290,0.1581,
16.077990,-0.3044,-0.0091,-1.9989,0.7361,0.5284,-0.0061,
16.078988,-1.2553,-0.8190,-1.1688,0.7361,0.5284,-0.0061,
16.128168,-1.2553,-0.8190,-1.1688,0.7361,0.5284,-0.0061,
16.143786,-1.2553,-0.8190,-1.1688,0.5403,0.2421,0.2517,
16.145725,0.8819,-0.1944,-0.4164,0.5403,0.2421,0.2517,
16.192562,0.8819,-0.1944,-0.4164,0.5403,0.2421,0.2517,
16.207980,0.8819,-0.1944,-0.4164,0.6183,0.3154,0.0521,
16.209309,0.0278,-0.7302,-0.5091,0.6183,0.3154,0.0521,
16.258159,0.0278,-0.7302,-0.5091,0.6183,0.3154,0.0521,
16.274525,0.0278,-0.7302,-0.5091,0.5637,0.2075,-0.3545,
16.277005,0.4111,-1.6256,0.2919,0.5637,0.2075,-0.3545,
16.323829,0.4111,-1.6256,0.2919,0.5637,0.2075,-0.3545,
16.339221,0.4111,-1.6256,0.2919,0.5939,0.4326,-0.6637,
16.341527,1.0862,-1.3472,0.1528,0.5939,0.4326,-0.6637,
16.388782,1.0862,-1.3472,0.1528,0.5939,0.4326,-0.6637,
16.405422,1.0862,-1.3472,0.1528,0.2456,0.3809,-0.7753,
16.409791,0.5252,-1.4043,-1.0069,0.2456,0.3809,-0.7753,
16.456094,0.5252,-1.4043,-1.0069,0.2456,0.3809,-0.7753,
16.469577,0.5252,-1.4043,-1.0069,-0.1675,-1.1431,-0.0753,
16.471861,-5.1775,1.1449,-2.9543,-0.1675,-1.1431,-0.0753,
16.519592,-5.1775,1.1449,-2.9543,-0.1675,-1.1431,-0.0753,
16.535441,-5.1775,1.1449,-2.9543,-0.8082,-1.3555,1.0852,
16.538068,-0.4461,5.3595,-3.8852,-0.8082,-1.3555,1.0852,
16.585806,-0.4461,5.3595,-3.8852,-0.8082,-1.3555,1.0852,
16.600847,-0.4461,5.3595,-3.8852,-1.2787,0.2495,0.4946,
16.602039,0.4060,0.1286,0.6394,-1.2787,0.2495,0.4946,
16.652444,0.4060,0.1286,0.6394,-1.2787,0.2495,0.4946,
16.666644,0.4060,0.1286,0.6394,-1.2091,0.8363,0.6643,
16.669142,-0.1658,-0.6083,-0.1755,-1.2091,0.8363,0.6643,
16.715688,-0.1658,-0.6083,-0.1755,-1.2091,0.8363,0.6643,
16.731851,-0.1658,-0.6083,-0.1755,-0.8216,1.1620,0.3768,
16.733267,-1.7190,-0.4613,-0.5917,-0.8216,1.1620,0.3768,
16.783785,-1.7190,-0.4613,-0.5917,-0.8216,1.1620,0.3768,
16.797985,-1.7190,-0.4613,-0.5917,-0.7430,1.3567,0.2250,
16.799317,-0.5088,-0.1181,-1.1712,-0.7430,1.3567,0.2250,
16.847987,-0.5088,-0.1181,-1.1712,-0.7430,1.3567,0.2250,
16.862501,-0.5088,-0.1181,-1.1712,-0.4331,1.2173,0.6600,
16.863428,-1.2333,-0.2623,-0.5827,-0.4331,1.2173,0.6600,
16.912313,-1.2333,-0.2623,-0.5827,-0.4331,1.2173,0.6600,
16.928421,-1.2333,-0.2623,-0.5827,-0.2282,0.8479,0.4398,
16.929444,-1.0055,-1.2436,-0.1910,-0.2282,0.8479,0.4398,
16.977434,-1.0055,-1.2436,-0.1910,-0.2282,0.8479,0.4398,
16.995185,-1.0055,-1.2436,-0.1910,-0.0220,0.6231,0.2592,
16.995823,-0.1169,-0.5528,0.2427,-0.0220,0.6231,0.2592,
17.043339,-0.1169,-0.5528,0.2427,-0.0220,0.6231,0.2592,
17.059707,-0.1169,-0.5528,0.2427,0.3806,0.5991,-0.0170,
17.060983,0.8110,-0.2711,0.5906,0.3806,0.5991,-0.0170,
17.110317,0.8110,-0.2711,0.5906,0.3806,0.5991,-0.0170,
17.123781,0.8110,-0.2711,0.5906,0.2834,0.5709,-0.2738,
17.124959,-1.0342,4.0617,1.0765,0.2834,0.5709,-0.2738,
17.175674,-1.0342,4.0617,1.0765,0.2834,0.5709,-0.2738,
17.190222,-1.0342,4.0617,1.0765,0.6796,-0.0394,0.0128,
17.191434,-1.3340,-0.7884,-0.6682,0.6796,-0.0394,0.0128,
17.240094,-1.3340,-0.7884,-0.6682,0.6796,-0.0394,0.0128,
17.255957,-1.3340,-0.7884,-0.6682,1.0658,0.4601,-0.2231,
17.258167,-0.1002,-1.1808,-2.1421,1.0658,0.4601,-0.2231,
17.305006,-0.1002,-1.1808,-2.1421,1.0658,0.4601,-0.2231,
17.321316,-0.1002,-1.1808,-2.1421,1.0873,0.7621,-0.0596,
17.322630,0.3564,0.2098,-2.3225,1.0873,0.7621,-0.0596,
17.371828,0.3564,0.2098,-2.3225,1.0873,0.7621,-0.0596,
17.387173,0.3564,0.2098,-2.3225,0.5510,0.2534,0.1600,
17.388881,-0.6523,1.1458,-0.9339,0.5510,0.2534,0.1600,
17.436682,-0.6523,1.1458,-0.9339,0.5510,0.2534,0.1600,
17.451745,-0.6523,1.1458,-0.9339,0.5615,0.1501,0.1365,
17.453555,0.5301,-0.9968,-0.4821,0.5615,0.1501,0.1365,
17.501223,0.5301,-0.9968,-0.4821,0.5615,0.1501,0.1365,
17.517165,0.5301,-0.9968,-0.4821,0.5542,-0.0151,-0.2198,
17.518704,0.4581,-1.9927,-0.0999,0.5542,-0.0151,-0.2198,
17.567265,0.4581,-1.9927,-0.0999,0.5542,-0.0151,-0.2198,
17.583464,0.4581,-1.9927,-0.0999,0.4052,-0.0831,-0.6923,
17.585353,0.7498,-1.1307,0.0521,0.4052,-0.0831,-0.6923,
17.632153,0.7498,-1.1307,0.0521,0.4052,-0.0831,-0.6923,
17.648177,0.7498,-1.1307,0.0521,-0.1408,-0.4262,-0.6083,
17.649687,0.7982,-1.4494,-0.8832,-0.1408,-0.4262,-0.6083,
17.699546,0.7982,-1.4494,-0.8832,-0.1408,-0.4262,-0.6083,
17.714251,0.7982,-1.4494,-0.8832,-0.9325,-0.8262,0.2755,
17.715976,-3.2827,0.0775,-4.5440,-0.9325,-0.8262,0.2755,
17.764799,-3.2827,0.0775,-4.5440,-0.9325,-0.8262,0.2755,
17.779599,-3.2827,0.0775,-4.5440,-0.6351,-0.4058,0.8581,
17.781243,-3.2101,8.2081,-1.0987,-0.6351,-0.4058,0.8581,
17.827979,-3.2101,8.2081,-1.0987,-0.6351,-0.4058,0.8581,
17.847347,-3.2101,8.2081,-1.0987,-1.1191,-0.3118,0.5414,
17.849909,0.3241,-2.5162,-2.0649,-1.1191,-0.3118,0.5414,
17.895512,0.3241,-2.5162,-2.0649,-1.1191,-0.3118,0.5414,
17.910689,0.3241,-2.5162,-2.0649,-0.9297,1.2729,0.1307,
17.912066,-1.0159,0.5424,0.2114,-0.9297,1.2729,0.1307,
17.959742,-1.0159,0.5424,0.2114,-0.9297,1.2729,0.1307,
17.977347,-1.0159,0.5424,0.2114,-0.8726,0.4126,0.2526,
17.979026,-1.7533,-0.9998,-1.1345,-0.8726,0.4126,0.2526,
18.026358,-1.7533,-0.9998,-1.1345,-0.8726,0.4126,0.2526,
18.043010,-1.7533,-0.9998,-1.1345,-0.5544,0.6355,-0.0915,
18.045137,-0.2369,0.4673,-0.8946,-0.5544,0.6355,-0.0915,
18.092070,-0.2369,0.4673,-0.8946,-0.5544,0.6355,-0.0915,
18.107083,-0.2369,0.4673,-0.8946,-0.2987,0.6649,0.0932,
18.109032,-0.5997,-0.7327,-0.7473,-0.2987,0.6649,0.0932,
18.157811,-0.5997,-0.7327,-0.7473,-0.2987,0.6649,0.0932,
18.173707,-0.5997,-0.7327,-0.7473,-0.2198,0.4003,0.1216,
18.175768,-1.0878,-0.8142,-0.3366,-0.2198,0.4003,0.1216,
18.223369,-1.0878,-0.8142,-0.3366,-0.2198,0.4003,0.1216,
18.238774,-1.0878,-0.8142,-0.3366,-0.1469,0.0597,0.1571,
18.241083,-0.5932,-0.8390,-0.0866,-0.1469,0.0597,0.1571,
18.287874,-0.5932,-0.8390,-0.0866,-0.1469,0.0597,0.1571,
18.304581,-0.5932,-0.8390,-0.0866,0.1271,-0.2779,0.0811,
18.306582,-0.1391,-0.8047,0.4374,0.1271,-0.2779,0.0811,
18.353832,-0.1391,-0.8047,0.4374,0.1271,-0.2779,0.0811,
18.370106,-0.1391,-0.8047,0.4374,0.5965,-0.3529,-0.1718,
18.372015,0.0244,-0.4759,0.5692,0.5965,-0.3529,-0.1718,
18.420065,0.0244,-0.4759,0.5692,0.5965,-0.3529,-0.1718,
18.434401,0.0244,-0.4759,0.5692,0.1552,-0.5641,-0.4429,
18.435598,-2.5731,4.3070,1.9087,0.1552,-0.5641,-0.4429,
18.484282,-2.5731,4.3070,1.9087,0.1552,-0.5641,-0.4429,
18.499797,-2.5731,4.3070,1.9087,0.5872,-0.4183,0.1210,
18.501392,0.6753,-0.5937,-0.5489,0.5872,-0.4183,0.1210,
18.548523,0.6753,-0.5937,-0.5489,0.5872,-0.4183,0.1210,
18.564952,0.6753,-0.5937,-0.5489,0.9882,0.3922,-0.1880,
18.566279,0.1299,-0.6734,-2.6906,0.9882,0.3922,-0.1880,
18.615511,0.1299,-0.6734,-2.6906,0.9882,0.3922,-0.1880,
18.630828,0.1299,-0.6734,-2.6906,0.9916,0.4053,0.3155,
18.633046,0.8553,0.0211,-1.9084,0.9916,0.4053,0.3155,
18.680042,0.8553,0.0211,-1.9084,0.9916,0.4053,0.3155,
18.696823,0.8553,0.0211,-1.9084,0.7990,0.2182,0.1788,
18.698985,-0.4827,0.0428,-1.2769,0.7990,0.2182,0.1788,
18.746846,-0.4827,0.0428,-1.2769,0.7990,0.2182,0.1788,
18.762892,-0.4827,0.0428,-1.2769,0.6619,-0.0136,0.0738,
18.765121,-0.0470,-1.3792,-0.1810,0.6619,-0.0136,0.0738,
18.811593,-0.0470,-1.3792,-0.1810,0.6619,-0.0136,0.0738,
18.827614,-0.0470,-1.3792,-0.1810,0.7769,-0.0785,-0.2946,
18.829400,0.8490,-1.4551,0.1855,0.7769,-0.0785,-0.2946,
18.877898,0.8490,-1.4551,0.1855,0.7769,-0.0785,-0.2946,
18.893770,0.8490,-1.4551,0.1855,0.4635,-0.1451,-0.7318,
18.895917,0.6110,-0.9329,0.6011,0.4635,-0.1451,-0.7318,
18.942413,0.6110,-0.9329,0.6011,0.4635,-0.1451,-0.7318,
18.958550,0.6110,-0.9329,0.6011,0.1732,-0.1300,-0.5860,
18.960022,0.9013,-1.3804,0.0962,0.1732,-0.1300,-0.5860,
19.008796,0.9013,-1.3804,0.0962,0.1732,-0.1300,-0.5860,
19.024580,0.9013,-1.3804,0.0962,-0.4181,-0.7118,0.2450,
19.026169,-3.5677,0.8276,-2.6961,-0.4181,-0.7118,0.2450,
19.071915,-3.5677,0.8276,-2.6961,-0.4181,-0.7118,0.2450,
19.088544,-3.5677,0.8276,-2.6961,-1.4152,-1.0970,1.3027,
19.090241,-1.7747,7.4470,-3.1039,-1.4152,-1.0970,1.3027,
19.139632,-1.7747,7.4470,-3.1039,-1.4152,-1.0970,1.3027,
19.155540,-1.7747,7.4470,-3.1039,-1.4224,-0.2799,-0.0722,
19.158097,1.4969,0.1104,-2.0327,-1.4224,-0.2799,-0.0722,
19.206737,1.4969,0.1104,-2.0327,-1.4224,-0.2799,-0.0722,
19.220662,1.4969,0.1104,-2.0327,-1.2359,0.8745,0.2080,
19.222837,-1.4936,-2.1267,-0.0762,-1.2359,0.8745,0.2080,
19.270774,-1.4936,-2.1267,-0.0762,-1.2359,0.8745,0.2080,
19.288307,-1.4936,-2.1267,-0.0762,-0.9316,0.5646,0.2928,
19.291080,-1.2030,-0.5391,-0.6503,-0.9316,0.5646,0.2928,
19.334968,-1.2030,-0.5391,-0.6503,-0.9316,0.5646,0.2928,
19.351167,-1.2030,-0.5391,-0.6503,-0.6886,0.7460,0.0319,
19.353708,-0.9255,-0.1330,-0.7237,-0.6886,0.7460,0.0319,
19.400283,-0.9255,-0.1330,-0.7237,-0.6886,0.7460,0.0319,
19.416024,-0.9255,-0.1330,-0.7237,-0.5964,0.5961,0.3293,
19.417997,-0.1135,-0.2816,-0.9914,-0.5964,0.5961,0.3293,
19.466360,-0.1135,-0.2816,-0.9914,-0.5964,0.5961,0.3293,
19.481762,-0.1135,-0.2816,-0.9914,0.0130,0.3352,0.1323,
19.483290,-0.8089,-1.4078,0.4253,0.0130,0.3352,0.1323,
19.532343,-0.8089,-1.4078,0.4253,0.0130,0.3352,0.1323,
19.547379,-0.8089,-1.4078,0.4253,0.3180,0.2237,-0.2282,
19.549899,0.3950,-0.1800,1.2548,0.3180,0.2237,-0.2282,
19.596609,0.3950,-0.1800,1.2548,0.3180,0.2237,-0.2282,
19.613430,0.3950,-0.1800,1.2548,0.6897,0.2611,-0.2744,
19.615193,-0.3711,0.9793,0.9321,0.6897,0.2611,-0.2744,
19.663081,-0.3711,0.9793,0.9321,0.6897,0.2611,-0.2744,
19.679834,-0.3711,0.9793,0.9321,0.9894,-0.4511,-0.0699,
19.681556,-2.2572,1.6955,-0.4524,0.9894,-0.4511,-0.0699,
19.727950,-2.2572,1.6955,-0.4524,0.9894,-0.4511,-0.0699,
19.744563,-2.2572,1.6955,-0.4524,0.9384,-0.5122,0.3291,
19.746196,-0.7672,-1.7540,-2.1880,0.9384,-0.5122,0.3291,
19.793151,-0.7672,-1.7540,-2.1880,0.9384,-0.5122,0.3291,
19.810051,-0.7672,-1.7540,-2.1880,1.0201,0.2761,0.3842,
19.811528,1.1453,-0.4162,-2.6391,1.0201,0.2761,0.3842,
19.859448,1.1453,-0.4162,-2.6391,1.0201,0.2761,0.3842,
19.875917,1.1453,-0.4162,-2.6391,0.7375,0.7307,0.4539,
19.877613,-0.0283,0.5830,-1.8781,0.7375,0.7307,0.4539,
19.924530,-0.0283,0.5830,-1.8781,0.7375,0.7307,0.4539,
19.940890,-0.0283,0.5830,-1.8781,0.3575,-0.1277,0.3080,
19.942533,-1.7388,-0.3836,-1.1094,0.3575,-0.1277,0.3080,
19.989555,-1.7388,-0.3836,-1.1094,0.3575,-0.1277,0.3080,
20.007816,-1.7388,-0.3836,-1.1094,0.1639,-0.3793,0.0434,
20.009993,0.8083,-1.1315,-0.1639,0.1639,-0.3793,0.0434,
20.056478,0.8083,-1.1315,-0.1639,0.1639,-0.3793,0.0434,
20.070629,0.8083,-1.1315,-0.1639,-0.0710,0.0454,-0.4499,
20.071163,1.0664,-1.8618,0.5833,-0.0710,0.0454,-0.4499,
20.121088,1.0664,-1.8618,0.5833,-0.0710,0.0454,-0.4499,
20.137073,1.0664,-1.8618,0.5833,-0.1959,0.1057,-0.7381,
20.139004,1.3034,-0.8251,1.0060,-0.1959,0.1057,-0.7381,
20.187595,1.3034,-0.8251,1.0060,-0.1959,0.1057,-0.7381,
20.202583,1.3034,-0.8251,1.0060,-0.0728,0.4687,-0.5935,
20.204893,0.6062,0.3574,-1.1185,-0.0728,0.4687,-0.5935,
20.251352,0.6062,0.3574,-1.1185,-0.0728,0.4687,-0.5935,
20.267225,0.6062,0.3574,-1.1185,-0.6927,-0.0507,0.4493,
20.269292,-2.9196,7.9260,-3.1246,-0.6927,-0.0507,0.4493,
20.318024,-2.9196,7.9260,-3.1246,-0.6927,-0.0507,0.4493,
20.333062,-2.9196,7.9260,-3.1246,-0.8234,-0.7789,0.0603,
20.334998,-1.3688,-0.2751,-2.1538,-0.8234,-0.7789,0.0603,
20.383964,-1.3688,-0.2751,-2.1538,-0.8234,-0.7789,0.0603,
20.398171,-1.3688,-0.2751,-2.1538,-0.5747,0.3025,-0.6329,
20.399033,-0.1423,-2.6009,-1.2539,-0.5747,0.3025,-0.6329,
20.449780,-0.1423,-2.6009,-1.2539,-0.5747,0.3025,-0.6329,
20.463551,-0.1423,-2.6009,-1.2539,-0.4446,0.3593,-0.2115,
20.465791,-0.8185,1.3558,-0.6228,-0.4446,0.3593,-0.2115,
20.515281,-0.8185,1.3558,-0.6228,-0.4446,0.3593,-0.2115,
20.530325,-0.8185,1.3558,-0.6228,-0.6188,0.1698,-0.1000,
20.532580,-1.8721,0.5518,-0.5614,-0.6188,0.1698,-0.1000,
20.578821,-1.8721,0.5518,-0.5614,-0.6188,0.1698,-0.1000,
20.596701,-1.8721,0.5518,-0.5614,-0.5072,-0.0702,-0.0446,
20.598459,-0.6355,-1.1795,-0.3000,-0.5072,-0.0702,-0.0446,
20.645560,-0.6355,-1.1795,-0.3000,-0.5072,-0.0702,-0.0446,
20.662265,-0.6355,-1.1795,-0.3000,-0.4331,-0.1061,0.2679,
20.664148,-0.2126,-2.4186,-0.3024,-0.4331,-0.1061,0.2679,
20.710349,-0.2126,-2.4186,-0.3024,-0.4331,-0.1061,0.2679,
20.726120,-0.2126,-2.4186,-0.3024,-0.0719,-0.1713,0.5811,
20.728744,-0.0911,-2.2340,1.1990,-0.0719,-0.1713,0.5811,
20.775486,-0.0911,-2.2340,1.1990,-0.0719,-0.1713,0.5811,
20.790715,-0.0911,-2.2340,1.1990,0.4904,-0.0819,0.1455,
20.791924,-0.6611,0.0615,1.1492,0.4904,-0.0819,0.1455,
20.841388,-0.6611,0.0615,1.1492,0.4904,-0.0819,0.1455,
20.857054,-0.6611,0.0615,1.1492,0.2662,-0.4047,-0.1180,
20.858747,-0.3939,2.9741,1.4492,0.2662,-0.4047,-0.1180,
20.906244,-0.3939,2.9741,1.4492,0.2662,-0.4047,-0.1180,
20.923257,-0.3939,2.9741,1.4492,0.9409,0.2317,0.3028,
20.925684,1.6985,1.2198,-1.5315,0.9409,0.2317,0.3028,
20.973057,1.6985,1.2198,-1.5315,0.9409,0.2317,0.3028,
20.987820,1.6985,1.2198,-1.5315,1.1067,0.5541,-0.0556,
20.989827,-0.9193,0.6526,-1.9832,1.1067,0.5541,-0.0556,
21.038211,-0.9193,0.6526,-1.9832,1.1067,0.5541,-0.0556,
21.054317,-0.9193,0.6526,-1.9832,0.8496,0.1733,0.2639,
21.056577,-0.3651,-0.4637,-1.3572,0.8496,0.1733,0.2639,
21.105005,-0.3651,-0.4637,-1.3572,0.8496,0.1733,0.2639,
21.118903,-0.3651,-0.4637,-1.3572,0.7043,0.0411,0.2485,
21.121448,0.6477,-1.6360,-1.4267,0.7043,0.0411,0.2485,
21.168958,0.6477,-1.6360,-1.4267,0.7043,0.0411,0.2485,
21.185611,0.6477,-1.6360,-1.4267,0.6107,0.0017,-0.0437,
21.187748,0.0009,-2.0587,-0.7625,0.6107,0.0017,-0.0437,
21.235466,0.0009,-2.0587,-0.7625,0.6107,0.0017,-0.0437,
21.250490,0.0009,-2.0587,-0.7625,0.6083,-0.1417,-0.2825,
21.252652,0.1534,-1.9137,-0.3466,0.6083,-0.1417,-0.2825,
21.299997,0.1534,-1.9137,-0.3466,0.6083,-0.1417,-0.2825,
21.315802,0.1534,-1.9137,-0.3466,0.1378,-0.4994,-0.4519,
21.317087,0.4222,-1.5920,0.5867,0.1378,-0.4994,-0.4519,
21.366204,0.4222,-1.5920,0.5867,0.1378,-0.4994,-0.4519,
21.381927,0.4222,-1.5920,0.5867,-0.0759,-0.4406,-0.4862,
21.384025,0.1673,-0.3699,0.6638,-0.0759,-0.4406,-0.4862,
21.431024,0.1673,-0.3699,0.6638,-0.0759,-0.4406,-0.4862,
21.447229,0.1673,-0.3699,0.6638,0.2880,-0.0881,-0.0125,
21.449738,-0.7206,6.9465,-4.9335,0.2880,-0.0881,-0.0125,
21.495366,-0.7206,6.9465,-4.9335,0.2880,-0.0881,-0.0125,
21.512883,-0.7206,6.9465,-4.9335,-1.1904,-1.3859,0.2900,
21.514839,-2.8520,2.9712,-0.4074,-1.1904,-1.3859,0.2900,
21.562197,-2.8520,2.9712,-0.4074,-1.1904,-1.3859,0.2900,
21.577387,-2.8520,2.9712,-0.4074,-1.0342,-0.1969,-0.3158,
21.579181,0.6218,-0.5866,-0.7560,-1.0342,-0.1969,-0.3158,
21.627940,0.6218,-0.5866,-0.7560,-1.0342,-0.1969,-0.3158,
21.642429,0.6218,-0.5866,-0.7560,-1.1199,-0.2266,0.0733,
21.643964,-0.5679,-1.6277,-1.0688,-1.1199,-0.2266,0.0733,
21.691779,-0.5679,-1.6277,-1.0688,-1.1199,-0.2266,0.0733,
21.708817,-0.5679,-1.6277,-1.0688,-0.9946,0.2445,0.1338,
21.710691,0.1614,-0.0586,-0.9675,-0.9946,0.2445,0.1338,
21.756974,0.1614,-0.0586,-0.9675,-0.9946,0.2445,0.1338,
21.773095,0.1614,-0.0586,-0.9675,-0.6471,0.4746,0.3395,
21.774857,-0.4227,-0.4743,-0.3137,-0.6471,0.4746,0.3395,
21.824340,-0.4227,-0.4743,-0.3137,-0.6471,0.4746,0.3395,
21.839183,-0.4227,-0.4743,-0.3137,-0.3137,0.7543,0.2494,
21.840776,0.0860,-1.7302,-0.3507,-0.3137,0.7543,0.2494,
21.889483,0.0860,-1.7302,-0.3507,-0.3137,0.7543,0.2494,
21.904764,0.0860,-1.7302,-0.3507,0.1069,0.8057,0.1623,
21.906453,1.0436,-1.6389,0.6897,0.1069,0.8057,0.1623,
21.954205,1.0436,-1.6389,0.6897,0.1069,0.8057,0.1623,
21.970607,1.0436,-1.6389,0.6897,0.4424,0.9943,0.2196,
21.972651,1.4106,-1.2242,0.3868,0.4424,0.9943,0.2196,
22.020900,1.4106,-1.2242,0.3868,0.4424,0.9943,0.2196,
22.035469,1.4106,-1.2242,0.3868,0.3615,0.3364,0.0667,
22.038178,-2.7114,4.9486,-0.0345,0.3615,0.3364,0.0667,
22.088935,-2.7114,4.9486,-0.0345,0.3615,0.3364,0.0667,
22.101736,-2.7114,4.9486,-0.0345,0.9084,0.2990,0.3340,
22.103835,1.2092,0.1673,-2.4504,0.9084,0.2990,0.3340,
22.151992,1.2092,0.1673,-2.4504,0.9084,0.2990,0.3340,
22.167453,1.2092,0.1673,-2.4504,0.9108,0.6295,0.0304,
22.169148,-1.2052,0.3550,-2.3112,0.9108,0.6295,0.0304,
22.215502,-1.2052,0.3550,-2.3112,0.9108,0.6295,0.0304,
22.231132,-1.2052,0.3550,-2.3112,0.6704,0.5922,0.1707,
22.234053,0.1881,-0.9370,-0.8101,0.6704,0.5922,0.1707,
22.283743,0.1881,-0.9370,-0.8101,0.6704,0.5922,0.1707,
22.297353,0.1881,-0.9370,-0.8101,0.4714,0.6813,0.1764,
22.298857,1.0127,-1.3179,-0.9183,0.4714,0.6813,0.1764,
22.347674,1.0127,-1.3179,-0.9183,0.4714,0.6813,0.1764,
22.363631,1.0127,-1.3179,-0.9183,0.4242,0.6493,0.1469,
22.366066,0.6297,0.2323,-0.4092,0.4242,0.6493,0.1469,
22.412849,0.6297,0.2323,-0.4092,0.4242,0.6493,0.1469,
22.429640,0.6297,0.2323,-0.4092,0.0457,0.1240,-0.2042,
22.431533,0.4975,-1.1189,0.1888,0.0457,0.1240,-0.2042,
22.478790,0.4975,-1.1189,0.1888,0.0457,0.1240,-0.2042,
22.494457,0.4975,-1.1189,0.1888,0.0179,0.3412,-0.3997,
22.496136,2.5709,-0.5984,0.4329,0.0179,0.3412,-0.3997,
22.543100,2.5709,-0.5984,0.4329,0.0179,0.3412,-0.3997,
22.558976,2.5709,-0.5984,0.4329,-0.3673,0.3749,-0.3832,
22.561375,0.9346,-1.4809,-1.0250,-0.3673,0.3749,-0.3832,
22.610283,0.9346,-1.4809,-1.0250,-0.3673,0.3749,-0.3832,
22.624658,0.9346,-1.4809,-1.0250,-0.7775,0.1859,-0.0716,
22.626126,-1.5081,-1.6671,-4.0277,-0.7775,0.1859,-0.0716,
22.674937,-1.5081,-1.6671,-4.0277,-0.7775,0.1859,-0.0716,
22.690544,-1.5081,-1.6671,-4.0277,-0.4749,-1.3340,1.1376,
22.692024,-1.9926,8.1975,-1.6197,-0.4749,-1.3340,1.1376,
22.739728,-1.9926,8.1975,-1.6197,-0.4749,-1.3340,1.1376,
22.755439,-1.9926,8.1975,-1.6197,-0.7778,-0.2520,0.0339,
22.757878,1.0906,-2.7311,-0.9180,-0.7778,-0.2520,0.0339,
22.805665,1.0906,-2.7311,-0.9180,-0.7778,-0.2520,0.0339,
22.822282,1.0906,-2.7311,-0.9180,-0.8263,1.6997,0.3056,
22.824625,-0.6842,0.7754,-0.6070,-0.8263,1.6997,0.3056,
22.871251,-0.6842,0.7754,-0.6070,-0.8263,1.6997,0.3056,
22.887622,-0.6842,0.7754,-0.6070,-0.6600,0.4574,0.2601,
22.889976,-2.6816,0.2998,-0.4351,-0.6600,0.4574,0.2601,
22.935729,-2.6816,0.2998,-0.4351,-0.6600,0.4574,0.2601,
22.952945,-2.6816,0.2998,-0.4351,-0.3306,1.0870,-0.0648,
22.955299,0.3548,-0.8754,-1.0426,-0.3306,1.0870,-0.0648,
23.002811,0.3548,-0.8754,-1.0426,-0.3306,1.0870,-0.0648,
23.018084,0.3548,-0.8754,-1.0426,-0.3377,1.1779,0.2350,
23.020626,0.7752,-0.5827,-0.3042,-0.3377,1.1779,0.2350,
23.068847,0.7752,-0.5827,-0.3042,-0.3377,1.1779,0.2350,
23.082661,0.7752,-0.5827,-0.3042,0.0593,1.2526,0.2801,
23.084886,0.3574,-1.0581,-0.0177,0.0593,1.2526,0.2801,
23.132119,0.3574,-1.0581,-0.0177,0.0593,1.2526,0.2801,
23.148462,0.3574,-1.0581,-0.0177,0.2318,0.9730,0.3039,
23.149805,-0.1112,-0.6685,0.2778,0.2318,0.9730,0.3039,
23.198213,-0.1112,-0.6685,0.2778,0.2318,0.9730,0.3039,
23.214339,-0.1112,-0.6685,0.2778,0.1077,0.7911,0.1891,
23.216886,-0.0522,0.3692,0.1214,0.1077,0.7911,0.1891,
23.263641,-0.0522,0.3692,0.1214,0.1077,0.7911,0.1891,
23.279417,-0.0522,0.3692,0.1214,0.2488,0.3738,-0.1100,
23.281540,-0.8847,1.2239,-0.3455,0.2488,0.3738,-0.1100,
23.328725,-0.8847,1.2239,-0.3455,0.2488,0.3738,-0.1100,
23.346383,-0.8847,1.2239,-0.3455,0.2848,-0.1292,-0.2191,
23.348651,-0.4041,2.6169,-0.5689,0.2848,-0.1292,-0.2191,
23.395170,-0.4041,2.6169,-0.5689,0.2848,-0.1292,-0.2191,
23.410892,-0.4041,2.6169,-0.5689,0.5510,-0.2268,-0.1532,
23.412073,-0.2739,-0.6448,-1.8142,0.5510,-0.2268,-0.1532,
23.461122,-0.2739,-0.6448,-1.8142,0.5510,-0.2268,-0.1532,
23.476882,-0.2739,-0.6448,-1.8142,0.7480,-0.0341,0.1668,
23.478376,1.1884,-1.5808,-2.0459,0.7480,-0.0341,0.1668,
23.526078,1.1884,-1.5808,-2.0459,0.7480,-0.0341,0.1668,
23.541872,1.1884,-1.5808,-2.0459,0.6952,0.3618,0.3563,
23.543114,1.4852,0.8608,-0.2174,0.6952,0.3618,0.3563,
23.592101,1.4852,0.8608,-0.2174,0.6952,0.3618,0.3563,
23.608543,1.4852,0.8608,-0.2174,0.4462,0.0061,0.1576,
23.609870,0.7796,-0.9213,-0.0763,0.4462,0.0061,0.1576,
23.656368,0.7796,-0.9213,-0.0763,0.4462,0.0061,0.1576,
23.671862,0.7796,-0.9213,-0.0763,0.5412,-0.0559,-0.1130,
23.672657,1.1345,-1.1400,0.3640,0.5412,-0.0559,-0.1130,
23.721182,1.1345,-1.1400,0.3640,0.5412,-0.0559,-0.1130,
23.736986,1.1345,-1.1400,0.3640,0.4980,-0.1972,-0.4597,
23.738469,1.8805,-1.1419,0.4903,0.4980,-0.1972,-0.4597,
23.787895,1.8805,-1.1419,0.4903,0.4980,-0.1972,-0.4597,
23.803470,1.8805,-1.1419,0.4903,0.2914,-0.0912,-0.8392,
23.805693,2.1271,-0.8688,0.2332,0.2914,-0.0912,-0.8392,
23.852167,2.1271,-0.8688,0.2332,0.2914,-0.0912,-0.8392,
23.870753,2.1271,-0.8688,0.2332,-0.0591,-0.4279,-0.6536,
23.872921,-0.7902,1.1949,-3.3549,-0.0591,-0.4279,-0.6536,
23.918611,-0.7902,1.1949,-3.3549,-0.0591,-0.4279,-0.6536,
23.935054,-0.7902,1.1949,-3.3549,-0.6773,-0.8372,0.8186,
23.937448,-2.5776,4.5493,-1.9760,-0.6773,-0.8372,0.8186,
23.984792,-2.5776,4.5493,-1.9760,-0.6773,-0.8372,0.8186,
24.000972,-2.5776,4.5493,-1.9760,-0.9884,-0.9264,-0.1694,
24.002937,-0.2885,-2.5057,-0.1848,-0.9884,-0.9264,-0.1694,
24.048549,-0.2885,-2.5057,-0.1848,-0.9884,-0.9264,-0.1694,
24.064595,-0.2885,-2.5057,-0.1848,-0.8800,0.1442,0.1634,
24.066261,1.1786,0.6708,-0.2671,-0.8800,0.1442,0.1634,
24.116097,1.1786,0.6708,-0.2671,-0.8800,0.1442,0.1634,
24.130518,1.1786,0.6708,-0.2671,-0.7407,-0.1553,0.4282,
24.133495,-1.2055,0.1326,-0.1663,-0.7407,-0.1553,0.4282,
24.179882,-1.2055,0.1326,-0.1663,-0.7407,-0.1553,0.4282,
24.195920,-1.2055,0.1326,-0.1663,-0.7307,0.4649,0.2979,
24.197920,0.7820,-1.0773,-0.6498,-0.7307,0.4649,0.2979,
24.245893,0.7820,-1.0773,-0.6498,-0.7307,0.4649,0.2979,
24.261775,0.7820,-1.0773,-0.6498,-0.5909,0.7902,0.4359,
24.263456,0.4196,-0.5277,-0.6225,-0.5909,0.7902,0.4359,
24.311148,0.4196,-0.5277,-0.6225,-0.5909,0.7902,0.4359,
24.326995,0.4196,-0.5277,-0.6225,-0.0799,0.6196,0.2598,
24.328469,0.6201,-2.1537,0.2124,-0.0799,0.6196,0.2598,
24.376060,0.6201,-2.1537,0.2124,-0.0799,0.6196,0.2598,
24.392675,0.6201,-2.1537,0.2124,0.2231,0.5670,0.1955,
24.393787,1.3280,-1.6484,0.8655,0.2231,0.5670,0.1955,
24.441041,1.3280,-1.6484,0.8655,0.2231,0.5670,0.1955,
24.457801,1.3280,-1.6484,0.8655,0.1098,0.6665,0.1417,
24.459212,-1.3984,4.5450,1.0057,0.1098,0.6665,0.1417,
24.506699,-1.3984,4.5450,1.0057,0.1098,0.6665,0.1417,
24.523483,-1.3984,4.5450,1.0057,0.6962,0.0745,0.2566,
24.525758,-0.7658,0.7887,-1.4082,0.6962,0.0745,0.2566,
24.572928,-0.7658,0.7887,-1.4082,0.6962,0.0745,0.2566,
24.588792,-0.7658,0.7887,-1.4082,0.9555,0.2590,-0.1106,
24.590527,-0.4110,0.2838,-2.2898,0.9555,0.2590,-0.1106,
24.637966,-0.4110,0.2838,-2.2898,0.9555,0.2590,-0.1106,
24.654763,-0.4110,0.2838,-2.2898,0.9446,0.4016,-0.0768,
24.655999,1.1605,0.0341,-0.8369,0.9446,0.4016,-0.0768,
24.705518,1.1605,0.0341,-0.8369,0.9446,0.4016,-0.0768,
24.721174,1.1605,0.0341,-0.8369,0.5379,0.2022,0.1500,
24.723780,1.0746,-0.2629,0.5083,0.5379,0.2022,0.1500,
24.768591,1.0746,-0.2629,0.5083,0.5379,0.2022,0.1500,
24.784525,1.0746,-0.2629,0.5083,0.5107,0.4479,0.1565,
24.786189,2.1164,-1.5361,-0.2600,0.5107,0.4479,0.1565,
24.834052,2.1164,-1.5361,-0.2600,0.5107,0.4479,0.1565,
24.850842,2.1164,-1.5361,-0.2600,0.3656,0.3480,-0.1723,
24.852884,0.8986,-0.8390,0.5284,0.3656,0.3480,-0.1723,
24.900454,0.8986,-0.8390,0.5284,0.3656,0.3480,-0.1723,
24.916564,0.8986,-0.8390,0.5284,0.2815,0.0959,-0.6237,
24.918466,1.1094,-2.0460,0.5147,0.2815,0.0959,-0.6237,
24.966087,1.1094,-2.0460,0.5147,0.2815,0.0959,-0.6237,
24.981332,1.1094,-2.0460,0.5147,0.4314,-0.1984,-0.7643,
24.982764,1.6426,-1.1518,0.5082,0.4314,-0.1984,-0.7643,
25.030605,1.6426,-1.1518,0.5082,0.4314,-0.1984,-0.7643,
25.046640,1.6426,-1.1518,0.5082,0.2275,-0.3560,0.0348,
25.048302,-2.0053,2.5633,-5.2249,0.2275,-0.3560,0.0348,
25.096093,-2.0053,2.5633,-5.2249,0.2275,-0.3560,0.0348,
25.112463,-2.0053,2.5633,-5.2249,-1.2133,-1.3711,1.1078,
25.113843,-2.4241,4.3158,-3.1382,-1.2133,-1.3711,1.1078,
25.162539,-2.4241,4.3158,-3.1382,-1.2133,-1.3711,1.1078,
25.177995,-2.4241,4.3158,-3.1382,-1.0437,0.0296,-0.0292,
25.178732,1.1601,-1.3751,-0.4801,-1.0437,0.0296,-0.0292,
25.228853,1.1601,-1.3751,-0.4801,-1.0437,0.0296,-0.0292,
25.246002,1.1601,-1.3751,-0.4801,-0.9978,0.0933,0.3555,
25.249250,-0.6698,0.4576,0.4387,-0.9978,0.0933,0.3555,
25.293732,-0.6698,0.4576,0.4387,-0.9978,0.0933,0.3555,
25.309463,-0.6698,0.4576,0.4387,-0.7272,0.3025,0.2608,
25.310922,-0.3690,-1.1531,-0.9435,-0.7272,0.3025,0.2608,
25.359722,-0.3690,-1.1531,-0.9435,-0.7272,0.3025,0.2608,
25.374903,-0.3690,-1.1531,-0.9435,-0.8169,0.8263,0.1584,
25.376749,0.3007,0.2984,-0.5033,-0.8169,0.8263,0.1584,
25.425430,0.3007,0.2984,-0.5033,-0.8169,0.8263,0.1584,
25.441484,0.3007,0.2984,-0.5033,-0.5076,1.1727,0.3813,
25.443334,0.7692,-1.3380,-0.4681,-0.5076,1.1727,0.3813,
25.490882,0.7692,-1.3380,-0.4681,-0.5076,1.1727,0.3813,
25.506938,0.7692,-1.3380,-0.4681,-0.2338,1.1871,0.3173,
25.509626,1.1862,-0.8290,0.5854,-0.2338,1.1871,0.3173,
25.554516,1.1862,-0.8290,0.5854,-0.2338,1.1871,0.3173,
25.571489,1.1862,-0.8290,0.5854,0.0399,1.1280,0.3384,
25.573646,0.1275,-1.4289,0.5172,0.0399,1.1280,0.3384,
25.621113,0.1275,-1.4289,0.5172,0.0399,1.1280,0.3384,
25.636730,0.1275,-1.4289,0.5172,0.2837,0.8532,0.1633,
25.638183,-0.8987,1.0214,0.7783,0.2837,0.8532,0.1633,
25.686276,-0.8987,1.0214,0.7783,0.2837,0.8532,0.1633,
25.702624,-0.8987,1.0214,0.7783,0.3852,0.0675,0.0553,
25.703946,-1.2741,1.5904,-0.4404,0.3852,0.0675,0.0553,
25.751858,-1.2741,1.5904,-0.4404,0.3852,0.0675,0.0553,
25.767634,-1.2741,1.5904,-0.4404,0.8732,-0.2162,0.4078,
25.769028,0.9660,0.7049,-1.4616,0.8732,-0.2162,0.4078,
25.817581,0.9660,0.7049,-1.4616,0.8732,-0.2162,0.4078,
25.832845,0.9660,0.7049,-1.4616,0.6516,0.4126,-0.0414,
25.834091,0.2139,0.1394,-2.0308,0.6516,0.4126,-0.0414,
25.882933,0.2139,0.1394,-2.0308,0.6516,0.4126,-0.0414,
25.898521,0.2139,0.1394,-2.0308,0.4562,-0.0373,0.1651,
25.899752,0.0994,-0.2893,-0.3118,0.4562,-0.0373,0.1651,
25.948386,0.0994,-0.2893,-0.3118,0.4562,-0.0373,0.1651,
25.963792,0.0994,-0.2893,-0.3118,0.4887,-0.3100,0.0863,
25.965326,1.7243,-1.4605,-0.5503,0.4887,-0.3100,0.0863,
26.013361,1.7243,-1.4605,-0.5503,0.4887,-0.3100,0.0863,
26.029351,1.7243,-1.4605,-0.5503,0.6098,0.0896,-0.0593,
26.030218,2.1593,-0.9655,-0.4279,0.6098,0.0896,-0.0593,
26.078616,2.1593,-0.9655,-0.4279,0.6098,0.0896,-0.0593,
26.095306,2.1593,-0.9655,-0.4279,0.4812,-0.0594,-0.3684,
26.097316,1.0703,-1.2497,0.2781,0.4812,-0.0594,-0.3684,
26.145675,1.0703,-1.2497,0.2781,0.4812,-0.0594,-0.3684,
26.162917,1.0703,-1.2497,0.2781,0.3789,-0.0535,-0.4687,
26.165219,2.0223,-0.8373,0.9508,0.3789,-0.0535,-0.4687,
26.210468,2.0223,-0.8373,0.9508,0.3789,-0.0535,-0.4687,
26.226747,2.0223,-0.8373,0.9508,0.2260,0.0428,-0.3537,
26.228652,1.6750,-1.6695,-0.8832,0.2260,0.0428,-0.3537,
26.275355,1.6750,-1.6695,-0.8832,0.2260,0.0428,-0.3537,
26.290544,1.6750,-1.6695,-0.8832,-0.8409,0.5959,1.1852,
26.291153,-1.0875,7.3033,-3.5910,-0.8409,0.5959,1.1852,
26.340850,-1.0875,7.3033,-3.5910,-0.8409,0.5959,1.1852,
26.357720,-1.0875,7.3033,-3.5910,-1.0895,-0.8317,0.5186,
26.359249,-1.1796,2.7059,-1.0611,-1.0895,-0.8317,0.5186,
26.406983,-1.1796,2.7059,-1.0611,-1.0895,-0.8317,0.5186,
26.423907,-1.1796,2.7059,-1.0611,-0.9493,0.6067,0.0597,
26.426097,1.4832,-0.4556,-0.5892,-0.9493,0.6067,0.0597,
26.471872,1.4832,-0.4556,-0.5892,-0.9493,0.6067,0.0597,
26.488032,1.4832,-0.4556,-0.5892,-0.6915,1.0657,0.0861,
26.490977,-1.2996,-1.7867,-1.0494,-0.6915,1.0657,0.0861,
26.537500,-1.2996,-1.7867,-1.0494,-0.6915,1.0657,0.0861,
26.553505,-1.2996,-1.7867,-1.0494,-0.6930,1.0901,-0.0226,
26.555574,-0.7577,-0.0875,-0.8970,-0.6930,1.0901,-0.0226,
26.602528,-0.7577,-0.0875,-0.8970,-0.6930,1.0901,-0.0226,
26.618617,-0.7577,-0.0875,-0.8970,-0.3590,0.7278,0.1006,
26.621193,0.2886,-0.5837,-0.6438,-0.3590,0.7278,0.1006,
26.670195,0.2886,-0.5837,-0.6438,-0.3590,0.7278,0.1006,
26.685355,0.2886,-0.5837,-0.6438,-0.2537,0.7695,0.1211,
26.687778,0.6548,-0.5811,-0.0036,-0.2537,0.7695,0.1211,
26.734972,0.6548,-0.5811,-0.0036,-0.2537,0.7695,0.1211,
26.750973,0.6548,-0.5811,-0.0036,-0.0315,0.6345,0.0455,
26.753014,0.5171,-1.3564,0.3309,-0.0315,0.6345,0.0455,
26.798335,0.5171,-1.3564,0.3309,-0.0315,0.6345,0.0455,
26.814922,0.5171,-1.3564,0.3309,0.2879,0.5530,0.0368,
26.816786,0.2735,-0.9366,0.3649,0.2879,0.5530,0.0368,
26.864474,0.2735,-0.9366,0.3649,0.2879,0.5530,0.0368,
26.880554,0.2735,-0.9366,0.3649,0.0776,0.0322,-0.1552,
26.882713,-1.9968,2.8121,0.9505,0.0776,0.0322,-0.1552,
26.930636,-1.9968,2.8121,0.9505,0.0776,0.0322,-0.1552,
26.945653,-1.9968,2.8121,0.9505,0.3606,-0.4730,-0.1778,
26.948056,0.0847,0.9059,-0.1097,0.3606,-0.4730,-0.1778,
26.995856,0.0847,0.9059,-0.1097,0.3606,-0.4730,-0.1778,
27.013240,0.0847,0.9059,-0.1097,0.6074,-0.5495,-0.1688,
27.014980,-0.2839,0.5047,-0.9895,0.6074,-0.5495,-0.1688,
27.062662,-0.2839,0.5047,-0.9895,0.6074,-0.5495,-0.1688,
27.078833,-0.2839,0.5047,-0.9895,0.6161,-0.2717,0.0038,
27.079563,1.2555,-0.6693,-1.4643,0.6161,-0.2717,0.0038,
27.127355,1.2555,-0.6693,-1.4643,0.6161,-0.2717,0.0038,
27.143779,1.2555,-0.6693,-1.4643,0.6078,-0.0464,0.1857,
27.145352,1.1947,0.5744,-0.5319,0.6078,-0.0464,0.1857,
27.193386,1.1947,0.5744,-0.5319,0.6078,-0.0464,0.1857,
27.208723,1.1947,0.5744,-0.5319,0.5005,-0.1872,0.3228,
27.209931,1.0454,-0.4614,-0.4717,0.5005,-0.1872,0.3228,
27.259001,1.0454,-0.4614,-0.4717,0.5005,-0.1872,0.3228,
27.273874,1.0454,-0.4614,-0.4717,0.6674,-0.1216,0.0742,
27.274841,0.7688,-1.0777,-0.3602,0.6674,-0.1216,0.0742,
27.324929,0.7688,-1.0777,-0.3602,0.6674,-0.1216,0.0742,
27.339507,0.7688,-1.0777,-0.3602,0.6206,-0.2821,-0.2998,
27.341164,0.5949,-1.5499,0.1366,0.6206,-0.2821,-0.2998,
27.390182,0.5949,-1.5499,0.1366,0.6206,-0.2821,-0.2998,
27.403945,0.5949,-1.5499,0.1366,0.3888,-0.1750,-0.5837,
27.406164,1.4450,-0.6735,0.0510,0.3888,-0.1750,-0.5837,
27.453931,1.4450,-0.6735,0.0510,0.3888,-0.1750,-0.5837,
27.470653,1.4450,-0.6735,0.0510,0.0492,-0.1457,-0.4925,
27.472299,2.2154,-0.7231,0.3860,0.0492,-0.1457,-0.4925,
27.519177,2.2154,-0.7231,0.3860,0.0492,-0.1457,-0.4925,
27.536170,2.2154,-0.7231,0.3860,-0.2514,-0.3468,-0.2651,
27.538084,-0.5133,-2.4136,-2.0690,-0.2514,-0.3468,-0.2651,
27.584791,-0.5133,-2.4136,-2.0690,-0.2514,-0.3468,-0.2651,
27.600888,-0.5133,-2.4136,-2.0690,0.1306,-0.7059,0.8010,
27.602822,-0.8887,7.1740,-1.5164,0.1306,-0.7059,0.8010,
27.651276,-0.8887,7.1740,-1.5164,0.1306,-0.7059,0.8010,
27.665844,-0.8887,7.1740,-1.5164,-0.7114,-0.9789,-0.0812,
27.667158,-0.6634,1.2935,-0.8095,-0.7114,-0.9789,-0.0812,
27.716560,-0.6634,1.2935,-0.8095,-0.7114,-0.9789,-0.0812,
27.732099,-0.6634,1.2935,-0.8095,-0.9230,0.3034,-0.0913,
27.734336,0.4959,-0.5998,0.3986,-0.9230,0.3034,-0.0913,
27.782369,0.4959,-0.5998,0.3986,-0.9230,0.3034,-0.0913,
27.798069,0.4959,-0.5998,0.3986,-0.7547,-0.0470,0.2098,
27.800858,-0.8767,-0.1668,-0.2327,-0.7547,-0.0470,0.2098,
27.850163,-0.8767,-0.1668,-0.2327,-0.7547,-0.0470,0.2098,
27.864113,-0.8767,-0.1668,-0.2327,-0.7634,0.2295,-0.0098,
27.866567,0.0876,-0.8492,-0.4784,-0.7634,0.2295,-0.0098,
27.912898,0.0876,-0.8492,-0.4784,-0.7634,0.2295,-0.0098,
27.929994,0.0876,-0.8492,-0.4784,-0.6687,0.5053,0.1532,
27.932154,-0.0832,-0.1032,-0.3491,-0.6687,0.5053,0.1532,
27.977950,-0.0832,-0.1032,-0.3491,-0.6687,0.5053,0.1532,
27.994932,-0.0832,-0.1032,-0.3491,-0.4351,0.4765,0.2451,
27.996941,-0.0228,-1.3059,0.0798,-0.4351,0.4765,0.2451,
28.043841,-0.0228,-1.3059,0.0798,-0.4351,0.4765,0.2451,
28.059205,-0.0228,-1.3059,0.0798,-0.0837,0.5727,0.1487,
28.060796,0.9017,-1.3289,0.8081,-0.0837,0.5727,0.1487,
28.109851,0.9017,-1.3289,0.8081,-0.0837,0.5727,0.1487,
28.125058,0.9017,-1.3289,0.8081,0.3441,0.5794,-0.0582,
28.126326,0.2896,-0.7608,1.3243,0.3441,0.5794,-0.0582,
28.174201,0.2896,-0.7608,1.3243,0.3441,0.5794,-0.0582,
28.189604,0.2896,-0.7608,1.3243,0.2300,0.0140,-0.2080,
28.190988,-1.8545,2.7739,0.8620,0.2300,0.0140,-0.2080,
28.238979,-1.8545,2.7739,0.8620,0.2300,0.0140,-0.2080,
28.255822,-1.8545,2.7739,0.8620,0.4647,-0.6614,-0.0000,
28.257880,0.4707,0.6480,-0.6373,0.4647,-0.6614,-0.0000,
28.305674,0.4707,0.6480,-0.6373,0.4647,-0.6614,-0.0000,
28.323346,0.4707,0.6480,-0.6373,0.8476,-0.7969,-0.1767,
28.325329,-2.0293,1.5169,-0.8362,0.8476,-0.7969,-0.1767,
28.372372,-2.0293,1.5169,-0.8362,0.8476,-0.7969,-0.1767,
28.387888,-2.0293,1.5169,-0.8362,0.6066,-0.7259,-0.0954,
28.390028,0.2157,-1.9654,-1.8393,0.6066,-0.7259,-0.0954,
28.436616,0.2157,-1.9654,-1.8393,0.6066,-0.7259,-0.0954,
28.452947,0.2157,-1.9654,-1.8393,0.8474,-0.1975,0.5009,
28.455007,3.0095,0.4190,-1.4764,0.8474,-0.1975,0.5009,
28.503369,3.0095,0.4190,-1.4764,0.8474,-0.1975,0.5009,
28.517463,3.0095,0.4190,-1.4764,0.3097,0.1837,0.1555,
28.519403,0.2430,-0.4772,-0.1390,0.3097,0.1837,0.1555,
28.568858,0.2430,-0.4772,-0.1390,0.3097,0.1837,0.1555,
28.582370,0.2430,-0.4772,-0.1390,0.4076,0.1642,0.0541,
28.585549,0.8308,-0.8552,-0.2968,0.4076,0.1642,0.0541,
28.633102,0.8308,-0.8552,-0.2968,0.4076,0.1642,0.0541,
28.649459,0.8308,-0.8552,-0.2968,0.1706,-0.0199,-0.1124,
28.651947,0.7029,-1.0845,-0.0164,0.1706,-0.0199,-0.1124,
28.698575,0.7029,-1.0845,-0.0164,0.1706,-0.0199,-0.1124,
28.714585,0.7029,-1.0845,-0.0164,-0.0356,0.0890,-0.4650,
28.716758,2.1849,-0.5420,-0.0688,-0.0356,0.0890,-0.4650,
28.765165,2.1849,-0.5420,-0.0688,-0.0356,0.0890,-0.4650,
28.780096,2.1849,-0.5420,-0.0688,-0.0480,0.6246,-0.4250,
28.782471,2.0371,-1.3762,0.0036,-0.0480,0.6246,-0.4250,
28.828756,2.0371,-1.3762,0.0036,-0.0480,0.6246,-0.4250,
28.845712,2.0371,-1.3762,0.0036,-0.1411,1.1321,-0.0921,
28.847909,-0.7520,-0.3994,-2.0938,-0.1411,1.1321,-0.0921,
28.895836,-0.7520,-0.3994,-2.0938,-0.1411,1.1321,-0.0921,
28.911196,-0.7520,-0.3994,-2.0938,-0.3975,-0.1307,0.4551,
28.912741,-2.9781,3.3853,-2.8646,-0.3975,-0.1307,0.4551,
28.961180,-2.9781,3.3853,-2.8646,-0.3975,-0.1307,0.4551,
28.976762,-2.9781,3.3853,-2.8646,-0.9456,-0.9843,0.4513,
28.978528,-0.4546,2.9294,0.8846,-0.9456,-0.9843,0.4513,
29.025693,-0.4546,2.9294,0.8846,-0.9456,-0.9843,0.4513,
29.041967,-0.4546,2.9294,0.8846,-0.9274,0.0756,0.4160,
29.043059,1.4567,-0.5346,-0.6742,-0.9274,0.0756,0.4160,
29.091891,1.4567,-0.5346,-0.6742,-0.9274,0.0756,0.4160,
29.107306,1.4567,-0.5346,-0.6742,-0.6785,0.3442,0.4140,
29.108583,-0.2873,-0.7291,-0.5078,-0.6785,0.3442,0.4140,
29.156086,-0.2873,-0.7291,-0.5078,-0.6785,0.3442,0.4140,
29.173356,-0.2873,-0.7291,-0.5078,-0.3149,0.4711,0.1339,
29.175260,0.0294,-2.0474,-0.4400,-0.3149,0.4711,0.1339,
29.221493,0.0294,-2.0474,-0.4400,-0.3149,0.4711,0.1339,
29.237137,0.0294,-2.0474,-0.4400,0.3233,0.9725,0.0292,
29.238305,1.1139,-0.4844,0.3947,0.3233,0.9725,0.0292,
29.287822,1.1139,-0.4844,0.3947,0.3233,0.9725,0.0292,
29.303452,1.1139,-0.4844,0.3947,-0.0912,0.9143,0.1892,
29.305639,1.1497,1.3696,1.2644,-0.0912,0.9143,0.1892,
29.352849,1.1497,1.3696,1.2644,-0.0912,0.9143,0.1892,
29.369626,1.1497,1.3696,1.2644,0.1295,1.0417,-0.0264,
29.371715,0.3702,-1.0459,-0.7238,0.1295,1.0417,-0.0264,
29.419547,0.3702,-1.0459,-0.7238,0.1295,1.0417,-0.0264,
29.434607,0.3702,-1.0459,-0.7238,0.2776,0.4856,-0.2555,
29.436911,-1.6271,0.7064,-0.6126,0.2776,0.4856,-0.2555,
29.486032,-1.6271,0.7064,-0.6126,0.2776,0.4856,-0.2555,
29.499567,-1.6271,0.7064,-0.6126,0.3735,0.1231,-0.0334,
29.502360,1.2002,1.3687,-0.7241,0.3735,0.1231,-0.0334,
29.550124,1.2002,1.3687,-0.7241,0.3735,0.1231,-0.0334,
29.566022,1.2002,1.3687,-0.7241,0.7869,0.1165,0.2042,
29.568704,-0.5479,0.1845,-0.4032,0.7869,0.1165,0.2042,
29.615849,-0.5479,0.1845,-0.4032,0.7869,0.1165,0.2042,
29.631267,-0.5479,0.1845,-0.4032,0.5490,0.4505,0.3824,
29.633661,1.9053,-1.2987,-1.1136,0.5490,0.4505,0.3824,
29.681155,1.9053,-1.2987,-1.1136,0.5490,0.4505,0.3824,
29.696521,1.9053,-1.2987,-1.1136,0.0707,0.8703,0.5279,
29.698611,0.7858,-0.0190,0.3210,0.0707,0.8703,0.5279,
29.746718,0.7858,-0.0190,0.3210,0.0707,0.8703,0.5279,
29.761835,0.7858,-0.0190,0.3210,0.1501,0.4162,0.0855,
29.763628,0.8807,-0.7702,-0.4291,0.1501,0.4162,0.0855,
29.812023,0.8807,-0.7702,-0.4291,0.1501,0.4162,0.0855,
29.828097,0.8807,-0.7702,-0.4291,0.2870,0.4910,-0.0576,
29.830253,1.6578,-0.2255,-0.0701,0.2870,0.4910,-0.0576,
29.877493,1.6578,-0.2255,-0.0701,0.2870,0.4910,-0.0576,
29.893104,1.6578,-0.2255,-0.0701,0.2271,0.5069,-0.3655,
29.894592,1.1560,-0.9719,0.5533,0.2271,0.5069,-0.3655,
29.943629,1.1560,-0.9719,0.5533,0.2271,0.5069,-0.3655,
29.959153,1.1560,-0.9719,0.5533,-0.3303,0.5466,-0.5357,
29.960600,0.9248,-2.4429,-0.7704,-0.3303,0.5466,-0.5357,
30.008993,0.9248,-2.4429,-0.7704,-0.3303,0.5466,-0.5357,
30.024877,0.9248,-2.4429,-0.7704,-0.5432,1.0053,0.4525,
30.026385,-0.2627,3.9040,-3.6959,-0.5432,1.0053,0.4525,
30.072419,-0.2627,3.9040,-3.6959,-0.5432,1.0053,0.4525,
30.088422,-0.2627,3.9040,-3.6959,-0.6854,-0.6170,0.4276,
30.090206,-1.2884,2.7492,1.4197,-0.6854,-0.6170,0.4276,
30.138815,-1.2884,2.7492,1.4197,-0.6854,-0.6170,0.4276,
30.155761,-1.2884,2.7492,1.4197,-0.4678,1.3560,-0.0082,
30.158273,3.0645,0.0367,-0.1042,-0.4678,1.3560,-0.0082,
30.204460,3.0645,0.0367,-0.1042,-0.4678,1.3560,-0.0082,
30.220554,3.0645,0.0367,-0.1042,-0.3934,1.2729,0.2334,
30.222496,-0.2241,-0.5165,-0.8410,-0.3934,1.2729,0.2334,
30.269833,-0.2241,-0.5165,-0.8410,-0.3934,1.2729,0.2334,
30.285482,-0.2241,-0.5165,-0.8410,-0.3798,1.2598,0.2598,
30.287496,-0.8695,-1.0361,-0.2651,-0.3798,1.2598,0.2598,
30.336137,-0.8695,-1.0361,-0.2651,-0.3798,1.2598,0.2598,
30.351188,-0.8695,-1.0361,-0.2651,-0.4133,0.8535,0.7042,
30.353859,-0.6897,0.0355,-0.5600,-0.4133,0.8535,0.7042,
30.401305,-0.6897,0.0355,-0.5600,-0.4133,0.8535,0.7042,
30.417042,-0.6897,0.0355,-0.5600,-0.5168,0.9507,0.7408,
30.418905,0.0602,0.0394,-0.1889,-0.5168,0.9507,0.7408,
30.466819,0.0602,0.0394,-0.1889,-0.5168,0.9507,0.7408,
30.483394,0.0602,0.0394,-0.1889,-0.1689,1.0408,0.3906,
30.484988,1.0850,-0.3637,-0.1840,-0.1689,1.0408,0.3906,
30.531703,1.0850,-0.3637,-0.1840,-0.1689,1.0408,0.3906,
30.548144,1.0850,-0.3637,-0.1840,0.1361,1.2584,0.1390,
30.550408,0.7702,-0.5844,-0.2820,0.1361,1.2584,0.1390,
30.596488,0.7702,-0.5844,-0.2820,0.1361,1.2584,0.1390,
30.612383,0.7702,-0.5844,-0.2820,0.3566,0.8963,0.1529,
30.613834,-0.3169,-1.3591,-0.5674,0.3566,0.8963,0.1529,
30.662966,-0.3169,-1.3591,-0.5674,0.3566,0.8963,0.1529,
30.677503,-0.3169,-1.3591,-0.5674,0.4757,0.5741,0.0249,
30.678392,-0.0131,-0.4308,-0.3757,0.4757,0.5741,0.0249,
30.729083,-0.0131,-0.4308,-0.3757,0.4757,0.5741,0.0249,
30.745201,-0.0131,-0.4308,-0.3757,0.3548,0.0240,-0.2311,
30.746463,0.0874,1.3633,0.9859,0.3548,0.0240,-0.2311,
30.793689,0.0874,1.3633,0.9859,0.3548,0.0240,-0.2311,
30.810393,0.0874,1.3633,0.9859,0.3616,-0.3723,-0.4446,
30.811560,0.8673,2.4178,1.0314,0.3616,-0.3723,-0.4446,
30.859781,0.8673,2.4178,1.0314,0.3616,-0.3723,-0.4446,
30.874722,0.8673,2.4178,1.0314,0.6805,-0.6990,-0.4670,
30.875478,-0.5185,1.0317,-0.1806,0.6805,-0.6990,-0.4670,
30.925881,-0.5185,1.0317,-0.1806,0.6805,-0.6990,-0.4670,
30.940629,-0.5185,1.0317,-0.1806,0.8347,-0.6523,0.0883,
30.941620,1.6337,-2.7021,-0.8611,0.8347,-0.6523,0.0883,
30.991445,1.6337,-2.7021,-0.8611,0.8347,-0.6523,0.0883,
31.007091,1.6337,-2.7021,-0.8611,0.5612,-0.4078,-0.4271,
31.008938,1.2632,0.6519,1.4957,0.5612,-0.4078,-0.4271,
31.058023,1.2632,0.6519,1.4957,0.5612,-0.4078,-0.4271,
31.072015,1.2632,0.6519,1.4957,0.4491,-0.2587,-0.2295,
31.073078,2.0612,-2.7065,1.3715,0.4491,-0.2587,-0.2295,
31.124037,2.0612,-2.7065,1.3715,0.4491,-0.2587,-0.2295,
31.137068,2.0612,-2.7065,1.3715,0.0719,0.4820,-0.4223,
31.139264,3.2990,-0.7990,1.1364,0.0719,0.4820,-0.4223,
31.185741,3.2990,-0.7990,1.1364,0.0719,0.4820,-0.4223,
31.201451,3.2990,-0.7990,1.1364,-0.5447,0.0221,-0.5973,
31.203255,-0.2922,-2.6591,-1.2157,-0.5447,0.0221,-0.5973,
31.251681,-0.2922,-2.6591,-1.2157,-0.5447,0.0221,-0.5973,
31.267472,-0.2922,-2.6591,-1.2157,-0.0208,0.5921,0.4572,
31.269521,-1.5087,7.1301,0.0535,-0.0208,0.5921,0.4572,
31.317119,-1.5087,7.1301,0.0535,-0.0208,0.5921,0.4572,
31.332509,-1.5087,7.1301,0.0535,-0.3395,-1.3532,0.5012,
31.334291,-2.3426,-1.4323,-0.7600,-0.3395,-1.3532,0.5012,
31.383481,-2.3426,-1.4323,-0.7600,-0.3395,-1.3532,0.5012,
31.399087,-2.3426,-1.4323,-0.7600,-0.6133,0.0127,-0.2117,
31.401440,0.6280,0.1252,-0.2798,-0.6133,0.0127,-0.2117,
31.448769,0.6280,0.1252,-0.2798,-0.6133,0.0127,-0.2117,
31.470708,0.6280,0.1252,-0.2798,-0.5623,-0.3459,0.0165,
31.473056,-1.2397,-0.5158,-0.4041,-0.5623,-0.3459,0.0165,
31.513577,-1.2397,-0.5158,-0.4041,-0.5623,-0.3459,0.0165,
31.530068,-1.2397,-0.5158,-0.4041,-0.4078,-0.1631,-0.0643,
31.531548,0.0013,-0.0648,0.3555,-0.4078,-0.1631,-0.0643,
31.580623,0.0013,-0.0648,0.3555,-0.4078,-0.1631,-0.0643,
31.595746,0.0013,-0.0648,0.3555,-0.4125,-0.0159,0.1475,
31.596714,0.3845,-0.8799,-0.2540,-0.4125,-0.0159,0.1475,
31.643720,0.3845,-0.8799,-0.2540,-0.4125,-0.0159,0.1475,
31.660141,0.3845,-0.8799,-0.2540,-0.1465,0.0715,0.2037,
31.661806,0.0123,-0.8003,0.1870,-0.1465,0.0715,0.2037,
31.709942,0.0123,-0.8003,0.1870,-0.1465,0.0715,0.2037,
31.725587,0.0123,-0.8003,0.1870,0.0229,0.1000,0.1046,
31.726992,0.3778,-0.5237,0.7242,0.0229,0.1000,0.1046,
31.775360,0.3778,-0.5237,0.7242,0.0229,0.1000,0.1046,
31.791267,0.3778,-0.5237,0.7242,0.3951,0.2144,-0.0440,
31.793079,0.2639,-0.5653,0.6395,0.3951,0.2144,-0.0440,
31.840331,0.2639,-0.5653,0.6395,0.3951,0.2144,-0.0440,
31.857419,0.2639,-0.5653,0.6395,0.3853,-0.1692,-0.1886,
31.859839,-1.1335,1.7294,1.4713,0.3853,-0.1692,-0.1886,
31.907677,-1.1335,1.7294,1.4713,0.3853,-0.1692,-0.1886,
31.923244,-1.1335,1.7294,1.4713,0.5681,-0.3155,-0.0681,
31.925484,1.4590,1.3618,0.9737,0.5681,-0.3155,-0.0681,
31.971632,1.4590,1.3618,0.9737,0.5681,-0.3155,-0.0681,
31.989928,1.4590,1.3618,0.9737,0.7323,0.1497,0.1788,
31.991983,0.6463,-1.1819,-0.7422,0.7323,0.1497,0.1788,
32.038244,0.6463,-1.1819,-0.7422,0.7323,0.1497,0.1788,
32.054130,0.6463,-1.1819,-0.7422,0.6932,0.5510,0.2731,
32.055889,0.5178,-2.1492,-1.1062,0.6932,0.5510,0.2731,
32.104183,0.5178,-2.1492,-1.1062,0.6932,0.5510,0.2731,
32.120067,0.5178,-2.1492,-1.1062,0.4969,0.5492,0.0533,
32.122372,0.6439,1.0033,0.7012,0.4969,0.5492,0.0533,
32.168146,0.6439,1.0033,0.7012,0.4969,0.5492,0.0533,
32.184391,0.6439,1.0033,0.7012,0.4360,0.3273,-0.0383,
32.186519,1.5187,-1.0543,0.7836,0.4360,0.3273,-0.0383,
32.235092,1.5187,-1.0543,0.7836,0.4360,0.3273,-0.0383,
32.249520,1.5187,-1.0543,0.7836,0.3454,0.6304,-0.2925,
32.251857,1.2747,-1.4947,0.5190,0.3454,0.6304,-0.2925,
32.300585,1.2747,-1.4947,0.5190,0.3454,0.6304,-0.2925,
32.315849,1.2747,-1.4947,0.5190,-0.3390,0.1666,-0.6628,
32.318162,-0.3612,-2.3294,0.1894,-0.3390,0.1666,-0.6628,
32.363909,-0.3612,-2.3294,0.1894,-0.3390,0.1666,-0.6628,
32.381683,-0.3612,-2.3294,0.1894,-0.3103,1.0145,0.2845,
32.382976,0.3476,9.0373,-3.8135,-0.3103,1.0145,0.2845,
32.430417,0.3476,9.0373,-3.8135,-0.3103,1.0145,0.2845,
32.446701,0.3476,9.0373,-3.8135,-0.6420,-1.6162,0.2812,
32.449365,-1.8325,1.4528,0.0786,-0.6420,-1.6162,0.2812,
32.496522,-1.8325,1.4528,0.0786,-0.6420,-1.6162,0.2812,
32.511473,-1.8325,1.4528,0.0786,-0.5797,-0.3027,-0.2764,
32.513147,1.3467,-0.6541,-0.3090,-0.5797,-0.3027,-0.2764,
32.561286,1.3467,-0.6541,-0.3090,-0.5797,-0.3027,-0.2764,
32.578055,1.3467,-0.6541,-0.3090,-0.5794,-0.2137,-0.1423,
32.580060,-0.5722,-1.5062,-0.3773,-0.5794,-0.2137,-0.1423,
32.628601,-0.5722,-1.5062,-0.3773,-0.5794,-0.2137,-0.1423,
32.643381,-0.5722,-1.5062,-0.3773,-0.5001,-0.0855,-0.1739,
32.645481,0.1123,0.6118,0.1778,-0.5001,-0.0855,-0.1739,
32.692527,0.1123,0.6118,0.1778,-0.5001,-0.0855,-0.1739,
32.707686,0.1123,0.6118,0.1778,-0.5266,-0.2378,0.2621,
32.709154,-0.1273,-0.6028,-0.1429,-0.5266,-0.2378,0.2621,
32.759415,-0.1273,-0.6028,-0.1429,-0.5266,-0.2378,0.2621,
32.774888,-0.1273,-0.6028,-0.1429,-0.0354,0.2123,0.0951,
32.776710,0.3335,-2.0083,-0.4139,-0.0354,0.2123,0.0951,
32.823891,0.3335,-2.0083,-0.4139,-0.0354,0.2123,0.0951,
32.839723,0.3335,-2.0083,-0.4139,0.4462,0.7533,-0.0418,
32.841526,0.2593,-1.0267,-0.3458,0.4462,0.7533,-0.0418,
32.891977,0.2593,-1.0267,-0.3458,0.4462,0.7533,-0.0418,
32.905570,0.2593,-1.0267,-0.3458,0.4922,0.9158,-0.0237,
32.907540,-1.1209,0.9503,0.0663,0.4922,0.9158,-0.0237,
32.954800,-1.1209,0.9503,0.0663,0.4922,0.9158,-0.0237,
32.972514,-1.1209,0.9503,0.0663,0.0812,0.4794,0.0223,
32.974293,-0.6106,-0.3053,0.4278,0.0812,0.4794,0.0223,
33.020052,-0.6106,-0.3053,0.4278,0.0812,0.4794,0.0223,
33.035403,-0.6106,-0.3053,0.4278,0.1805,0.1776,-0.0528,
33.037728,-0.3090,0.4418,0.7723,0.1805,0.1776,-0.0528,
33.084990,-0.3090,0.4418,0.7723,0.1805,0.1776,-0.0528,
33.100852,-0.3090,0.4418,0.7723,0.0559,-0.3955,-0.0354,
33.102877,-0.0853,0.6217,0.7210,0.0559,-0.3955,-0.0354,
33.152063,-0.0853,0.6217,0.7210,0.0559,-0.3955,-0.0354,
33.166051,-0.0853,0.6217,0.7210,0.3529,-0.5021,0.0199,
33.168617,1.0938,1.2982,0.4159,0.3529,-0.5021,0.0199,
33.215056,1.0938,1.2982,0.4159,0.3529,-0.5021,0.0199,
33.232865,1.0938,1.2982,0.4159,0.6567,0.0458,0.3499,
33.235372,0.5675,0.7109,0.2756,0.6567,0.0458,0.3499,
33.281316,0.5675,0.7109,0.2756,0.6567,0.0458,0.3499,
33.297002,0.5675,0.7109,0.2756,0.4691,0.2137,0.4875,
33.298357,0.9817,-2.6123,0.5833,0.4691,0.2137,0.4875,
33.348377,0.9817,-2.6123,0.5833,0.4691,0.2137,0.4875,
33.363570,0.9817,-2.6123,0.5833,0.5229,0.3172,0.4148,
33.366754,1.8179,-0.1041,0.8883,0.5229,0.3172,0.4148,
33.413648,1.8179,-0.1041,0.8883,0.5229,0.3172,0.4148,
33.427721,1.8179,-0.1041,0.8883,0.3827,0.3432,0.2860,
33.429743,2.1258,-0.6339,1.2720,0.3827,0.3432,0.2860,
33.477259,2.1258,-0.6339,1.2720,0.3827,0.3432,0.2860,
33.494736,2.1258,-0.6339,1.2720,0.2940,0.3063,-0.5586,
33.496293,1.2005,-2.0070,1.4159,0.2940,0.3063,-0.5586,
33.543605,1.2005,-2.0070,1.4159,0.2940,0.3063,-0.5586,
33.559787,1.2005,-2.0070,1.4159,0.1765,0.4247,-0.9157,
33.561751,2.4158,-2.3600,-0.4804,0.1765,0.4247,-0.9157,
33.609665,2.4158,-2.3600,-0.4804,0.1765,0.4247,-0.9157,
33.624104,2.4158,-2.3600,-0.4804,0.1588,0.8563,0.3613,
33.625478,-1.4870,7.5688,-2.2063,0.1588,0.8563,0.3613,
33.675393,-1.4870,7.5688,-2.2063,0.1588,0.8563,0.3613,
33.691494,-1.4870,7.5688,-2.2063,-0.9936,-1.4656,0.2068,
33.693424,-4.4207,0.7007,-0.8430,-0.9936,-1.4656,0.2068,
33.739621,-4.4207,0.7007,-0.8430,-0.9936,-1.4656,0.2068,
33.756014,-4.4207,0.7007,-0.8430,-1.1521,-0.5414,-0.3551,
33.758093,0.9414,0.2755,0.2773,-1.1521,-0.5414,-0.3551,
33.805425,0.9414,0.2755,0.2773,-1.1521,-0.5414,-0.3551,
33.820619,0.9414,0.2755,0.2773,-0.8380,-0.9940,-0.1730,
33.822702,-0.9725,-2.0748,-0.7701,-0.8380,-0.9940,-0.1730,
33.872328,-0.9725,-2.0748,-0.7701,-0.8380,-0.9940,-0.1730,
33.887683,-0.9725,-2.0748,-0.7701,-0.5695,-0.2775,-0.1611,
33.890041,1.2236,-0.5152,0.4552,-0.5695,-0.2775,-0.1611,
33.936928,1.2236,-0.5152,0.4552,-0.5695,-0.2775,-0.1611,
33.953042,1.2236,-0.5152,0.4552,-0.4097,0.0861,0.2375,
33.956086,1.3555,-0.8972,0.8559,-0.4097,0.0861,0.2375,
34.002232,1.3555,-0.8972,0.8559,-0.4097,0.0861,0.2375,
34.017765,1.3555,-0.8972,0.8559,-0.1347,0.5023,0.2320,
34.019742,0.7186,-0.9938,0.5076,-0.1347,0.5023,0.2320,
34.068333,0.7186,-0.9938,0.5076,-0.1347,0.5023,0.2320,
34.082741,0.7186,-0.9938,0.5076,0.1300,0.3624,0.0496,
34.085226,-2.2464,0.2074,0.8533,0.1300,0.3624,0.0496,
34.131810,-2.2464,0.2074,0.8533,0.1300,0.3624,0.0496,
34.148949,-2.2464,0.2074,0.8533,0.5200,-0.6593,0.1006,
34.151863,-1.6171,1.8662,1.4262,0.5200,-0.6593,0.1006,
34.197065,-1.6171,1.8662,1.4262,0.5200,-0.6593,0.1006,
34.213078,-1.6171,1.8662,1.4262,0.5925,-0.9407,0.3752,
34.214859,-0.1001,-0.2550,-0.6737,0.5925,-0.9407,0.3752,
34.263993,-0.1001,-0.2550,-0.6737,0.5925,-0.9407,0.3752,
34.279177,-0.1001,-0.2550,-0.6737,0.5586,-0.6897,0.1738,
34.281244,-0.3590,-1.5179,-1.0236,0.5586,-0.6897,0.1738,
34.329432,-0.3590,-1.5179,-1.0236,0.5586,-0.6897,0.1738,
34.345938,-0.3590,-1.5179,-1.0236,0.4925,-0.3650,0.1066,
34.347375,2.5494,-0.2284,0.2390,0.4925,-0.3650,0.1066,
34.394828,2.5494,-0.2284,0.2390,0.4925,-0.3650,0.1066,
34.411709,2.5494,-0.2284,0.2390,0.4539,0.1258,-0.1805,
34.413238,1.1924,-1.4942,0.7943,0.4539,0.1258,-0.1805,
34.459875,1.1924,-1.4942,0.7943,0.4539,0.1258,-0.1805,
34.475944,1.1924,-1.4942,0.7943,0.4110,0.3578,-0.6548,
34.477019,1.0090,-1.5807,0.7197,0.4110,0.3578,-0.6548,
34.525281,1.0090,-1.5807,0.7197,0.4110,0.3578,-0.6548,
34.540592,1.0090,-1.5807,0.7197,0.3038,-0.2312,-0.4571,
34.541854,0.5937,-1.9007,-0.0686,0.3038,-0.2312,-0.4571,
34.591258,0.5937,-1.9007,-0.0686,0.3038,-0.2312,-0.4571,
34.606721,0.5937,-1.9007,-0.0686,-0.4481,0.1755,-0.1394,
34.607888,-1.1494,4.1740,-5.0234,-0.4481,0.1755,-0.1394,
34.656680,-1.1494,4.1740,-5.0234,-0.4481,0.1755,-0.1394,
34.672863,-1.1494,4.1740,-5.0234,-0.7417,-2.1290,0.4148,
34.674348,-2.9466,2.9912,0.3802,-0.7417,-2.1290,0.4148,
34.722382,-2.9466,2.9912,0.3802,-0.7417,-2.1290,0.4148,
34.738302,-2.9466,2.9912,0.3802,-0.7317,-0.4939,-0.2492,
34.740817,0.6158,0.0434,0.2449,-0.7317,-0.4939,-0.2492,
34.788738,0.6158,0.0434,0.2449,-0.7317,-0.4939,-0.2492,
34.804479,0.6158,0.0434,0.2449,-0.6106,-0.5510,-0.1116,
34.806545,-0.4649,-2.0586,-0.5917,-0.6106,-0.5510,-0.1116,
34.853161,-0.4649,-2.0586,-0.5917,-0.6106,-0.5510,-0.1116,
34.869391,-0.4649,-2.0586,-0.5917,-0.4232,-0.1034,-0.1654,
34.872390,0.2894,-0.4929,0.0058,-0.4232,-0.1034,-0.1654,
34.918772,0.2894,-0.4929,0.0058,-0.4232,-0.1034,-0.1654,
34.935075,0.2894,-0.4929,0.0058,-0.2427,-0.1220,0.3253,
34.937867,1.0377,-0.9997,0.8462,-0.2427,-0.1220,0.3253,
34.984453,1.0377,-0.9997,0.8462,-0.2427,-0.1220,0.3253,
35.000698,1.0377,-0.9997,0.8462,0.0550,0.3244,0.1982,
35.003273,0.9145,-1.0842,0.3767,0.0550,0.3244,0.1982,
35.049088,0.9145,-1.0842,0.3767,0.0550,0.3244,0.1982,
35.066282,0.9145,-1.0842,0.3767,0.0944,0.2337,0.1281,
35.068555,-2.1099,0.5229,0.9566,0.0944,0.2337,0.1281,
35.114411,-2.1099,0.5229,0.9566,0.0944,0.2337,0.1281,
35.130833,-2.1099,0.5229,0.9566,0.2268,-0.7257,-0.0232,
35.131763,-1.3314,1.4509,1.3232,0.2268,-0.7257,-0.0232,
35.181577,-1.3314,1.4509,1.3232,0.2268,-0.7257,-0.0232,
35.196028,-1.3314,1.4509,1.3232,0.4930,-0.9447,0.3555,
35.196918,0.5988,0.6592,0.1762,0.4930,-0.9447,0.3555,
35.245419,0.5988,0.6592,0.1762,0.4930,-0.9447,0.3555,
35.261207,0.5988,0.6592,0.1762,0.6045,-0.4284,0.4238,
35.262386,0.6525,-1.2581,-0.6216,0.6045,-0.4284,0.4238,
35.311145,0.6525,-1.2581,-0.6216,0.6045,-0.4284,0.4238,
35.327861,0.6525,-1.2581,-0.6216,0.5516,0.3109,0.2700,
35.329517,1.7526,-1.7142,-0.7516,0.5516,0.3109,0.2700,
35.376487,1.7526,-1.7142,-0.7516,0.5516,0.3109,0.2700,
35.392828,1.7526,-1.7142,-0.7516,0.5577,0.3584,-0.0096,
35.393992,0.5447,0.5529,0.5698,0.5577,0.3584,-0.0096,
35.443148,0.5447,0.5529,0.5698,0.5577,0.3584,-0.0096,
35.456981,0.5447,0.5529,0.5698,0.6170,0.0728,-0.2072,
35.457501,0.8019,-1.8001,0.2018,0.6170,0.0728,-0.2072,
35.509123,0.8019,-1.8001,0.2018,0.6170,0.0728,-0.2072,
35.524086,0.8019,-1.8001,0.2018,0.6897,0.0483,-0.4725,
35.525995,1.5658,-0.9804,0.6195,0.6897,0.0483,-0.4725,
35.574958,1.5658,-0.9804,0.6195,0.6897,0.0483,-0.4725,
35.590620,1.5658,-0.9804,0.6195,0.1790,-0.1000,-0.7966,
35.593076,0.3785,-1.5125,0.4708,0.1790,-0.1000,-0.7966,
35.640596,0.3785,-1.5125,0.4708,0.1790,-0.1000,-0.7966,
35.654249,0.3785,-1.5125,0.4708,-0.0786,-0.2728,-0.1083,
35.655765,-1.3167,0.6806,-4.7504,-0.0786,-0.2728,-0.1083,
35.705293,-1.3167,0.6806,-4.7504,-0.0786,-0.2728,-0.1083,
35.720821,-1.3167,0.6806,-4.7504,-1.3670,-2.1115,0.6984,
35.722642,-4.1536,4.2603,0.5905,-1.3670,-2.1115,0.6984,
35.771503,-4.1536,4.2603,0.5905,-1.3670,-2.1115,0.6984,
35.786066,-4.1536,4.2603,0.5905,-0.9059,-0.4876,0.1950,
35.789386,3.5016,1.2080,-0.0161,-0.9059,-0.4876,0.1950,
35.835112,3.5016,1.2080,-0.0161,-0.9059,-0.4876,0.1950,
35.851256,3.5016,1.2080,-0.0161,-0.7747,1.0110,-0.0283,
35.853546,-0.2224,-2.0571,-1.5673,-0.7747,1.0110,-0.0283,
35.902667,-0.2224,-2.0571,-1.5673,-0.7747,1.0110,-0.0283,
35.916626,-0.2224,-2.0571,-1.5673,-0.6037,0.3181,-0.0634,
35.918731,-2.5425,-0.9060,-0.7263,-0.6037,0.3181,-0.0634,
35.966351,-2.5425,-0.9060,-0.7263,-0.6037,0.3181,-0.0634,
35.981691,-2.5425,-0.9060,-0.7263,-0.5959,0.0281,-0.0528,
35.983187,-0.4260,0.2972,-0.1308,-0.5959,0.0281,-0.0528,
36.032751,-0.4260,0.2972,-0.1308,-0.5959,0.0281,-0.0528,
36.048115,-0.4260,0.2972,-0.1308,-0.6249,-0.1784,0.1744,
36.050531,1.0106,-0.5356,-0.5552,-0.6249,-0.1784,0.1744,
36.097172,1.0106,-0.5356,-0.5552,-0.6249,-0.1784,0.1744,
36.114554,1.0106,-0.5356,-0.5552,-0.1477,0.1840,0.1100,
36.115843,0.3876,-1.3047,0.2977,-0.1477,0.1840,0.1100,
36.161417,0.3876,-1.3047,0.2977,-0.1477,0.1840,0.1100,
36.177960,0.3876,-1.3047,0.2977,0.0783,0.4438,0.0214,
36.178786,0.2001,-0.6460,0.4931,0.0783,0.4438,0.0214,
36.227396,0.2001,-0.6460,0.4931,0.0783,0.4438,0.0214,
36.243552,0.2001,-0.6460,0.4931,0.1943,0.3065,0.0431,
36.244694,-0.3284,0.0364,0.5000,0.1943,0.3065,0.0431,
36.292940,-0.3284,0.0364,0.5000,0.1943,0.3065,0.0431,
36.309489,-0.3284,0.0364,0.5000,0.2407,0.1521,-0.1866,
36.310643,0.0336,0.6770,0.8011,0.2407,0.1521,-0.1866,
36.359252,0.0336,0.6770,0.8011,0.2407,0.1521,-0.1866,
36.373723,0.0336,0.6770,0.8011,0.4064,-0.2859,-0.4166,
36.374584,-0.3088,2.2537,0.9580,0.4064,-0.2859,-0.4166,
36.425186,-0.3088,2.2537,0.9580,0.4064,-0.2859,-0.4166,
36.440505,-0.3088,2.2537,0.9580,0.7289,-1.1328,-0.0706,
36.441591,-0.9557,0.2229,0.3593,0.7289,-1.1328,-0.0706,
36.489712,-0.9557,0.2229,0.3593,0.7289,-1.1328,-0.0706,
36.506239,-0.9557,0.2229,0.3593,1.0298,-0.7169,0.2312,
36.508720,0.9580,-4.3029,-2.1005,1.0298,-0.7169,0.2312,
36.556088,0.9580,-4.3029,-2.1005,1.0298,-0.7169,0.2312,
36.572544,0.9580,-4.3029,-2.1005,0.4636,0.2100,-0.0919,
36.574248,2.2808,1.5726,1.7441,0.4636,0.2100,-0.0919,
36.621712,2.2808,1.5726,1.7441,0.4636,0.2100,-0.0919,
36.636700,2.2808,1.5726,1.7441,0.3494,0.5837,-0.0041,
36.638642,2.9119,-2.1398,0.4103,0.3494,0.5837,-0.0041,
36.685338,2.9119,-2.1398,0.4103,0.3494,0.5837,-0.0041,
36.701961,2.9119,-2.1398,0.4103,0.1747,1.1274,-0.2996,
36.704664,1.8979,-0.8887,0.8240,0.1747,1.1274,-0.2996,
36.752616,1.8979,-0.8887,0.8240,0.1747,1.1274,-0.2996,
36.767788,1.8979,-0.8887,0.8240,-0.0980,0.8134,-0.5877,
36.769847,1.1530,-3.9905,-1.6466,-0.0980,0.8134,-0.5877,
36.817081,1.1530,-3.9905,-1.6466,-0.0980,0.8134,-0.5877,
36.833014,1.1530,-3.9905,-1.6466,-0.1889,1.2821,0.5205,
36.834940,-2.1757,8.2130,1.0905,-0.1889,1.2821,0.5205,
36.883376,-2.1757,8.2130,1.0905,-0.1889,1.2821,0.5205,
36.898474,-2.1757,8.2130,1.0905,-0.6397,-1.0293,0.2211,
36.900588,-1.4866,1.8028,-0.9461,-0.6397,-1.0293,0.2211,
36.949567,-1.4866,1.8028,-0.9461,-0.6397,-1.0293,0.2211,
36.964660,-1.4866,1.8028,-0.9461,-0.7659,-0.2109,-0.0649,
36.966618,-0.0520,0.3902,-0.7309,-0.7659,-0.2109,-0.0649,
37.013849,-0.0520,0.3902,-0.7309,-0.7659,-0.2109,-0.0649,
37.031270,-0.0520,0.3902,-0.7309,-0.8144,0.1136,-0.1058,
37.033447,-0.9595,-1.0620,-0.6571,-0.8144,0.1136,-0.1058,
37.080110,-0.9595,-1.0620,-0.6571,-0.8144,0.1136,-0.1058,
37.093799,-0.9595,-1.0620,-0.6571,-0.6342,0.4626,0.0093,
37.094509,0.9208,-0.8112,0.5740,-0.6342,0.4626,0.0093,
37.144455,0.9208,-0.8112,0.5740,-0.6342,0.4626,0.0093,
37.161893,0.9208,-0.8112,0.5740,-0.3114,0.8008,0.2370,
37.163918,1.1767,-1.2060,0.5754,-0.3114,0.8008,0.2370,
37.210931,1.1767,-1.2060,0.5754,-0.3114,0.8008,0.2370,
37.226937,1.1767,-1.2060,0.5754,0.2210,1.0201,0.1567,
37.229072,0.3704,-1.6889,0.1526,0.2210,1.0201,0.1567,
37.276901,0.3704,-1.6889,0.1526,0.2210,1.0201,0.1567,
37.292682,0.3704,-1.6889,0.1526,0.2634,0.5006,0.0531,
37.294196,-1.5748,0.9883,0.7610,0.2634,0.5006,0.0531,
37.341545,-1.5748,0.9883,0.7610,0.2634,0.5006,0.0531,
37.358852,-1.5748,0.9883,0.7610,0.4467,-0.1733,0.0519,
37.361935,-0.9179,1.7259,0.7641,0.4467,-0.1733,0.0519,
37.406360,-0.9179,1.7259,0.7641,0.4467,-0.1733,0.0519,
37.423724,-0.9179,1.7259,0.7641,0.7979,-0.5486,0.3216,
37.426215,-0.5729,0.7520,-0.7852,0.7979,-0.5486,0.3216,
37.472960,-0.5729,0.7520,-0.7852,0.7979,-0.5486,0.3216,
37.487519,-0.5729,0.7520,-0.7852,0.5412,-0.2082,0.2918,
37.488656,0.1979,-1.6238,-0.8682,0.5412,-0.2082,0.2918,
37.537452,0.1979,-1.6238,-0.8682,0.5412,-0.2082,0.2918,
37.553093,0.1979,-1.6238,-0.8682,0.5609,0.1321,0.4342,
37.554890,3.1711,-0.7031,0.3932,0.5609,0.1321,0.4342,
37.602789,3.1711,-0.7031,0.3932,0.5609,0.1321,0.4342,
37.620760,3.1711,-0.7031,0.3932,0.3687,0.4615,0.0710,
37.622797,1.3117,-0.8676,0.5417,0.3687,0.4615,0.0710,
37.667697,1.3117,-0.8676,0.5417,0.3687,0.4615,0.0710,
37.683929,1.3117,-0.8676,0.5417,0.5276,0.3679,-0.4624,
37.686005,0.8548,-1.7997,0.6445,0.5276,0.3679,-0.4624,
37.734000,0.8548,-1.7997,0.6445,0.5276,0.3679,-0.4624,
37.751135,0.8548,-1.7997,0.6445,0.4549,0.2579,-0.5710,
37.753384,0.9500,-1.9230,1.0251,0.4549,0.2579,-0.5710,
37.799690,0.9500,-1.9230,1.0251,0.4549,0.2579,-0.5710,
37.816151,0.9500,-1.9230,1.0251,0.1611,0.2973,-0.6099,
37.818418,0.1992,-2.8475,-0.5741,0.1611,0.2973,-0.6099,
37.867303,0.1992,-2.8475,-0.5741,0.1611,0.2973,-0.6099,
37.882095,0.1992,-2.8475,-0.5741,0.3108,0.8354,0.5111,
37.884391,0.7059,10.8479,-2.3717,0.3108,0.8354,0.5111,
37.932699,0.7059,10.8479,-2.3717,0.3108,0.8354,0.5111,
37.948145,0.7059,10.8479,-2.3717,-0.4253,-1.0090,0.1026,
37.950520,-0.1520,1.3519,0.5595,-0.4253,-1.0090,0.1026,
37.997220,-0.1520,1.3519,0.5595,-0.4253,-1.0090,0.1026,
38.013488,-0.1520,1.3519,0.5595,-0.7262,0.3920,-0.0964,
38.015726,1.3050,-0.0625,-0.1497,-0.7262,0.3920,-0.0964,
38.062153,1.3050,-0.0625,-0.1497,-0.7262,0.3920,-0.0964,
38.077859,1.3050,-0.0625,-0.1497,-0.7440,0.7231,-0.0128,
38.079578,-1.3411,-1.8509,-1.0293,-0.7440,0.7231,-0.0128,
38.127809,-1.3411,-1.8509,-1.0293,-0.7440,0.7231,-0.0128,
38.143157,-1.3411,-1.8509,-1.0293,-0.8123,0.5226,0.1698,
38.144005,-0.4896,-0.2773,-0.5299,-0.8123,0.5226,0.1698,
38.191721,-0.4896,-0.2773,-0.5299,-0.8123,0.5226,0.1698,
38.207874,-0.4896,-0.2773,-0.5299,-0.8050,0.5686,0.4119,
38.208627,0.0294,0.1833,-0.3748,-0.8050,0.5686,0.4119,
38.257478,0.0294,0.1833,-0.3748,-0.8050,0.5686,0.4119,
38.273258,0.0294,0.1833,-0.3748,-0.7837,0.7990,0.4436,
38.274123,0.6579,-0.2666,-0.2059,-0.7837,0.7990,0.4436,
38.323884,0.6579,-0.2666,-0.2059,-0.7837,0.7990,0.4436,
38.339053,0.6579,-0.2666,-0.2059,-0.4058,0.9171,0.2952,
38.340182,0.6139,-1.1896,0.2560,-0.4058,0.9171,0.2952,
38.388320,0.6139,-1.1896,0.2560,-0.4058,0.9171,0.2952,
38.404013,0.6139,-1.1896,0.2560,0.0009,0.7402,0.1588,
38.405197,1.0106,-1.3032,0.4489,0.0009,0.7402,0.1588,
38.454534,1.0106,-1.3032,0.4489,0.0009,0.7402,0.1588,
38.470067,1.0106,-1.3032,0.4489,0.3555,0.4421,0.0736,
38.470909,-0.3466,0.0094,0.3824,0.3555,0.4421,0.0736,
38.519884,-0.3466,0.0094,0.3824,0.3555,0.4421,0.0736,
38.535262,-0.3466,0.0094,0.3824,0.2059,-0.1633,-0.2140,
38.536920,0.3920,1.4462,0.8034,0.2059,-0.1633,-0.2140,
38.585333,0.3920,1.4462,0.8034,0.2059,-0.1633,-0.2140,
38.601337,0.3920,1.4462,0.8034,0.8082,-0.3196,-0.2376,
38.602655,0.5564,0.3459,-0.3443,0.8082,-0.3196,-0.2376,
38.651719,0.5564,0.3459,-0.3443,0.8082,-0.3196,-0.2376,
38.666816,0.5564,0.3459,-0.3443,0.9145,0.2937,-0.0823,
38.667983,-0.0527,-1.1456,-0.6438,0.9145,0.2937,-0.0823,
38.714417,-0.0527,-1.1456,-0.6438,0.9145,0.2937,-0.0823,
38.731706,-0.0527,-1.1456,-0.6438,0.7126,0.6994,-0.0741,
38.734359,1.8324,1.1483,0.3504,0.7126,0.6994,-0.0741,
38.781775,1.8324,1.1483,0.3504,0.7126,0.6994,-0.0741,
38.798419,1.8324,1.1483,0.3504,0.5924,0.6177,0.1173,
38.800666,0.8350,-1.2221,0.8402,0.5924,0.6177,0.1173,
38.847616,0.8350,-1.2221,0.8402,0.5924,0.6177,0.1173,
38.862956,0.8350,-1.2221,0.8402,0.5214,0.4910,-0.2822,
38.864817,0.9829,-1.6510,0.4739,0.5214,0.4910,-0.2822,
38.911387,0.9829,-1.6510,0.4739,0.5214,0.4910,-0.2822,
38.928588,0.9829,-1.6510,0.4739,-0.3112,-0.2798,-0.8902,
38.930804,-1.1538,-2.1688,-0.4134,-0.3112,-0.2798,-0.8902,
38.978589,-1.1538,-2.1688,-0.4134,-0.3112,-0.2798,-0.8902,
38.994453,-1.1538,-2.1688,-0.4134,-0.2370,1.0996,-0.1129,
38.996617,2.4134,4.2769,-5.9525,-0.2370,1.0996,-0.1129,
39.043743,2.4134,4.2769,-5.9525,-0.2370,1.0996,-0.1129,
39.060081,2.4134,4.2769,-5.9525,-0.7756,-1.6382,0.6432,
39.062569,-3.4369,3.1134,0.8696,-0.7756,-1.6382,0.6432,
39.107304,-3.4369,3.1134,0.8696,-0.7756,-1.6382,0.6432,
39.124665,-3.4369,3.1134,0.8696,-0.6959,0.7785,-0.2239,
39.126656,2.2179,-0.3306,-0.1219,-0.6959,0.7785,-0.2239,
39.174033,2.2179,-0.3306,-0.1219,-0.6959,0.7785,-0.2239,
39.189870,2.2179,-0.3306,-0.1219,-0.6782,0.2433,0.2001,
39.191656,-1.1940,-2.4027,-1.2912,-0.6782,0.2433,0.2001,
39.244352,-1.1940,-2.4027,-1.2912,-0.6782,0.2433,0.2001,
39.256945,-1.1940,-2.4027,-1.2912,-0.5096,0.6214,-0.1408,
39.259553,0.0403,-0.2845,0.1437,-0.5096,0.6214,-0.1408,
39.306975,0.0403,-0.2845,0.1437,-0.5096,0.6214,-0.1408,
39.321636,0.0403,-0.2845,0.1437,-0.4203,0.6208,0.1628,
39.322720,0.5517,0.0579,0.4107,-0.4203,0.6208,0.1628,
39.370862,0.5517,0.0579,0.4107,-0.4203,0.6208,0.1628,
39.386244,0.5517,0.0579,0.4107,-0.2324,0.8543,0.2460,
39.388502,1.6951,-1.2899,0.7965,-0.2324,0.8543,0.2460,
39.435967,1.6951,-1.2899,0.7965,-0.2324,0.8543,0.2460,
39.452763,1.6951,-1.2899,0.7965,0.1665,1.0191,0.2239,
39.454551,-0.0817,-0.3221,0.2870,0.1665,1.0191,0.2239,
39.501166,-0.0817,-0.3221,0.2870,0.1665,1.0191,0.2239,
39.519664,-0.0817,-0.3221,0.2870,0.1515,0.1600,0.1060,
39.521493,-2.0205,1.3729,0.5008,0.1515,0.1600,0.1060,
39.566950,-2.0205,1.3729,0.5008,0.1515,0.1600,0.1060,
39.582675,-2.0205,1.3729,0.5008,0.7376,0.0238,0.3473,
39.584385,-0.1541,0.6146,0.0177,0.7376,0.0238,0.3473,
39.633438,-0.1541,0.6146,0.0177,0.7376,0.0238,0.3473,
39.649734,-0.1541,0.6146,0.0177,0.6863,0.6176,0.7475,
39.651742,1.0493,-2.1664,-0.8025,0.6863,0.6176,0.7475,
39.699790,1.0493,-2.1664,-0.8025,0.6863,0.6176,0.7475,
39.714154,1.0493,-2.1664,-0.8025,0.5093,1.1547,0.4313,
39.715731,1.5417,0.5798,0.2858,0.5093,1.1547,0.4313,
39.764935,1.5417,0.5798,0.2858,0.5093,1.1547,0.4313,
39.780873,1.5417,0.5798,0.2858,0.2117,0.6700,0.1755,
39.782622,-0.1217,-0.9565,0.6557,0.2117,0.6700,0.1755,
39.828571,-0.1217,-0.9565,0.6557,0.2117,0.6700,0.1755,
39.845881,-0.1217,-0.9565,0.6557,0.3847,1.0293,-0.1109,
39.848015,2.5233,-1.7647,-0.3959,0.3847,1.0293,-0.1109,
39.895245,2.5233,-1.7647,-0.3959,0.3847,1.0293,-0.1109,
39.912895,2.5233,-1.7647,-0.3959,0.0385,0.3748,-1.2724,
39.915220,-0.7125,-2.1255,0.0455,0.0385,0.3748,-1.2724,
39.961360,-0.7125,-2.1255,0.0455,0.0385,0.3748,-1.2724,
39.976967,-0.7125,-2.1255,0.0455,0.0205,-0.3277,-0.4992,
39.979356,-1.2252,-0.6298,-3.7782,0.0205,-0.3277,-0.4992,
40.026129,-1.2252,-0.6298,-3.7782,0.0205,-0.3277,-0.4992,
40.043009,-1.2252,-0.6298,-3.7782,-0.2906,-0.9551,0.2833,
40.046467,-3.6952,8.0496,-0.2553,-0.2906,-0.9551,0.2833,
40.090800,-3.6952,8.0496,-0.2553,-0.2906,-0.9551,0.2833,
40.106634,-3.6952,8.0496,-0.2553,-0.6410,-0.2295,-0.1877,
40.108089,1.3377,-0.4262,0.1984,-0.6410,-0.2295,-0.1877,
40.157004,1.3377,-0.4262,0.1984,-0.6410,-0.2295,-0.1877,
40.172384,1.3377,-0.4262,0.1984,-0.7355,0.0864,0.3054,
40.174506,0.3798,-2.5581,-0.6565,-0.7355,0.0864,0.3054,
40.221419,0.3798,-2.5581,-0.6565,-0.7355,0.0864,0.3054,
40.237790,0.3798,-2.5581,-0.6565,-0.6689,0.7833,0.1901,
40.239873,0.3314,-0.9531,0.4049,-0.6689,0.7833,0.1901,
40.286341,0.3314,-0.9531,0.4049,-0.6689,0.7833,0.1901,
40.303266,0.3314,-0.9531,0.4049,-0.5786,0.9832,0.4013,
40.305547,0.2839,0.6009,0.2827,-0.5786,0.9832,0.4013,
40.351467,0.2839,0.6009,0.2827,-0.5786,0.9832,0.4013,
40.368498,0.2839,0.6009,0.2827,-0.4476,0.9276,0.5861,
40.370264,0.3641,-0.8686,0.2692,-0.4476,0.9276,0.5861,
40.418276,0.3641,-0.8686,0.2692,-0.4476,0.9276,0.5861,
40.433687,0.3641,-0.8686,0.2692,-0.1985,1.1584,0.2921,
40.434716,0.6569,-0.7134,0.4662,-0.1985,1.1584,0.2921,
40.483965,0.6569,-0.7134,0.4662,-0.1985,1.1584,0.2921,
40.499871,0.6569,-0.7134,0.4662,0.0403,0.8894,0.2162,
40.502427,-0.1374,-0.2602,0.3460,0.0403,0.8894,0.2162,
40.549779,-0.1374,-0.2602,0.3460,0.0403,0.8894,0.2162,
40.564856,-0.1374,-0.2602,0.3460,0.3896,0.1918,-0.0162,
40.566578,-1.5192,2.0586,0.7431,0.3896,0.1918,-0.0162,
40.616560,-1.5192,2.0586,0.7431,0.3896,0.1918,-0.0162,
40.629935,-1.5192,2.0586,0.7431,0.8404,0.0475,0.5970,
40.631446,0.7049,-0.2048,-1.2475,0.8404,0.0475,0.5970,
40.680058,0.7049,-0.2048,-1.2475,0.8404,0.0475,0.5970,
40.695995,0.7049,-0.2048,-1.2475,0.6900,0.6749,0.3687,
40.697840,-0.3961,-1.3462,-1.1960,0.6900,0.6749,0.3687,
40.746351,-0.3961,-1.3462,-1.1960,0.6900,0.6749,0.3687,
40.762316,-0.3961,-1.3462,-1.1960,0.4349,0.7240,0.1313,
40.765070,0.9892,-0.9662,0.0907,0.4349,0.7240,0.1313,
40.811311,0.9892,-0.9662,0.0907,0.4349,0.7240,0.1313,
40.827432,0.9892,-0.9662,0.0907,0.2995,0.7034,0.0663,
40.829691,1.3228,0.1964,0.2868,0.2995,0.7034,0.0663,
40.877538,1.3228,0.1964,0.2868,0.2995,0.7034,0.0663,
40.891953,1.3228,0.1964,0.2868,0.3250,0.3358,-0.5166,
40.893273,0.5848,-1.7636,0.9806,0.3250,0.3358,-0.5166,
40.941799,0.5848,-1.7636,0.9806,0.3250,0.3358,-0.5166,
40.957979,0.5848,-1.7636,0.9806,0.2850,0.1292,-0.9055,
40.959943,1.1070,-1.2226,0.6640,0.2850,0.1292,-0.9055,
41.007393,1.1070,-1.2226,0.6640,0.2850,0.1292,-0.9055,
41.023281,1.1070,-1.2226,0.6640,-0.2253,-0.2914,-0.6055,
41.025822,-2.2391,-1.6451,-3.0278,-0.2253,-0.2914,-0.6055,
41.072784,-2.2391,-1.6451,-3.0278,-0.2253,-0.2914,-0.6055,
41.089654,-2.2391,-1.6451,-3.0278,0.1167,-0.5722,-0.0747,
41.091636,-0.7301,7.0832,0.8459,0.1167,-0.5722,-0.0747,
41.138070,-0.7301,7.0832,0.8459,0.1167,-0.5722,-0.0747,
41.155454,-0.7301,7.0832,0.8459,-0.5014,-1.1813,-0.2616,
41.157898,-0.9537,-1.3764,-1.5758,-0.5014,-1.1813,-0.2616,
41.204049,-0.9537,-1.3764,-1.5758,-0.5014,-1.1813,-0.2616,
41.220116,-0.9537,-1.3764,-1.5758,-0.8381,-0.2624,-0.0087,
41.222377,1.1053,-1.7932,-0.7791,-0.8381,-0.2624,-0.0087,
41.270327,1.1053,-1.7932,-0.7791,-0.8381,-0.2624,-0.0087,
41.285176,1.1053,-1.7932,-0.7791,-0.9142,0.4533,0.2245,
41.286648,0.1379,0.7581,1.7093,-0.9142,0.4533,0.2245,
41.334562,0.1379,0.7581,1.7093,-0.9142,0.4533,0.2245,
41.351924,0.1379,0.7581,1.7093,-1.1955,0.6228,0.7582,
41.354201,1.0936,0.4033,-0.3184,-1.1955,0.6228,0.7582,
41.401227,1.0936,0.4033,-0.3184,-1.1955,0.6228,0.7582,
41.416747,1.0936,0.4033,-0.3184,-0.7508,1.0453,0.9681,
41.418737,-0.7291,-3.1300,-0.1979,-0.7508,1.0453,0.9681,
41.466677,-0.7291,-3.1300,-0.1979,-0.7508,1.0453,0.9681,
41.482054,-0.7291,-3.1300,-0.1979,-0.2560,1.0675,0.5417,
41.482540,-0.6403,-1.5420,0.6756,-0.2560,1.0675,0.5417,
41.532958,-0.6403,-1.5420,0.6756,-0.2560,1.0675,0.5417,
41.547622,-0.6403,-1.5420,0.6756,0.1234,0.3436,0.3981,
41.549600,-1.3139,0.9323,0.9313,0.1234,0.3436,0.3981,
41.597154,-1.3139,0.9323,0.9313,0.1234,0.3436,0.3981,
41.613326,-1.3139,0.9323,0.9313,0.3045,0.0861,-0.0851,
41.614743,-0.3027,0.4781,0.4784,0.3045,0.0861,-0.0851,
41.663287,-0.3027,0.4781,0.4784,0.3045,0.0861,-0.0851,
41.678303,-0.3027,0.4781,0.4784,1.0973,-0.1856,0.2923,
41.680964,-0.3467,2.1796,0.1444,1.0973,-0.1856,0.2923,
41.728349,-0.3467,2.1796,0.1444,1.0973,-0.1856,0.2923,
41.743582,-0.3467,2.1796,0.1444,1.0456,1.0941,0.8112,
41.746308,1.4358,-0.9798,-1.4030,1.0456,1.0941,0.8112,
41.795582,1.4358,-0.9798,-1.4030,1.0456,1.0941,0.8112,
41.809935,1.4358,-0.9798,-1.4030,0.7773,0.8911,0.2460,
41.812667,-1.2840,-0.1767,0.3914,0.7773,0.8911,0.2460,
41.859320,-1.2840,-0.1767,0.3914,0.7773,0.8911,0.2460,
41.874589,-1.2840,-0.1767,0.3914,0.5171,0.0408,0.0866,
41.876618,2.0056,-0.9844,0.1650,0.5171,0.0408,0.0866,
41.924778,2.0056,-0.9844,0.1650,0.5171,0.0408,0.0866,
41.940158,2.0056,-0.9844,0.1650,0.5673,0.1176,-0.0883,
41.942456,1.2904,-0.6960,0.2112,0.5673,0.1176,-0.0883,
41.989033,1.2904,-0.6960,0.2112,0.5673,0.1176,-0.0883,
42.007558,1.2904,-0.6960,0.2112,0.2402,-0.2285,-0.5160,
42.009910,0.3362,-0.9246,0.9919,0.2402,-0.2285,-0.5160,
42.055198,0.3362,-0.9246,0.9919,0.2402,-0.2285,-0.5160,
42.070805,0.3362,-0.9246,0.9919,0.4267,-0.2517,-0.9267,
42.073215,1.2668,-2.0399,0.3724,0.4267,-0.2517,-0.9267,
42.121077,1.2668,-2.0399,0.3724,0.4267,-0.2517,-0.9267,
42.137151,1.2668,-2.0399,0.3724,0.0249,-0.4620,-0.9606,
42.139273,0.5646,-1.1792,-0.8388,0.0249,-0.4620,-0.9606,
42.186359,0.5646,-1.1792,-0.8388,0.0249,-0.4620,-0.9606,
42.202609,0.5646,-1.1792,-0.8388,-0.0420,-0.1761,1.1504,
42.204810,-0.2917,6.4663,-2.1228,-0.0420,-0.1761,1.1504,
42.252530,-0.2917,6.4663,-2.1228,-0.0420,-0.1761,1.1504,
42.271658,-0.2917,6.4663,-2.1228,-0.9226,-0.4407,0.2419,
42.274033,-0.7391,0.4717,0.6076,-0.9226,-0.4407,0.2419,
42.318479,-0.7391,0.4717,0.6076,-0.9226,-0.4407,0.2419,
42.332838,-0.7391,0.4717,0.6076,-0.8777,0.7915,0.1717,
42.334422,1.3348,-1.2482,0.3083,-0.8777,0.7915,0.1717,
42.384626,1.3348,-1.2482,0.3083,-0.8777,0.7915,0.1717,
42.398518,1.3348,-1.2482,0.3083,-0.7992,0.5583,-0.0026,
42.400160,-2.7193,0.8522,-0.2022,-0.7992,0.5583,-0.0026,
42.449935,-2.7193,0.8522,-0.2022,-0.7992,0.5583,-0.0026,
42.463645,-2.7193,0.8522,-0.2022,-1.0125,0.4778,0.2802,
42.466037,-0.2870,0.1834,-0.4885,-1.0125,0.4778,0.2802,
42.513145,-0.2870,0.1834,-0.4885,-1.0125,0.4778,0.2802,
42.529183,-0.2870,0.1834,-0.4885,-0.8839,0.7196,0.6132,
42.531390,-0.6903,-1.0020,-0.2090,-0.8839,0.7196,0.6132,
42.579628,-0.6903,-1.0020,-0.2090,-0.8839,0.7196,0.6132,
42.594482,-0.6903,-1.0020,-0.2090,-0.3920,0.4840,0.4030,
42.597152,0.1518,-2.1107,0.8746,-0.3920,0.4840,0.4030,
42.644860,0.1518,-2.1107,0.8746,-0.3920,0.4840,0.4030,
42.660661,0.1518,-2.1107,0.8746,0.1816,0.5997,0.0038,
42.662692,1.4402,-1.3267,1.2431,0.1816,0.5997,0.0038,
42.710871,1.4402,-1.3267,1.2431,0.1816,0.5997,0.0038,
42.726315,1.4402,-1.3267,1.2431,0.2479,0.3716,-0.0880,
42.728749,-0.3810,1.5837,1.4077,0.2479,0.3716,-0.0880,
42.775119,-0.3810,1.5837,1.4077,0.2479,0.3716,-0.0880,
42.791011,-0.3810,1.5837,1.4077,0.1542,0.2457,-0.1639,
42.792419,-0.1596,0.7600,0.9819,0.1542,0.2457,-0.1639,
42.841684,-0.1596,0.7600,0.9819,0.1542,0.2457,-0.1639,
42.856677,-0.1596,0.7600,0.9819,0.6784,0.3299,0.3905,
42.858968,-0.7385,-0.9084,-0.8361,0.6784,0.3299,0.3905,
42.907137,-0.7385,-0.9084,-0.8361,0.6784,0.3299,0.3905,
42.922498,-0.7385,-0.9084,-0.8361,0.7144,0.2937,0.3315,
42.924599,-0.7552,0.3784,-1.4130,0.7144,0.2937,0.3315,
42.971853,-0.7552,0.3784,-1.4130,0.7144,0.2937,0.3315,
42.988502,-0.7552,0.3784,-1.4130,0.4801,-0.1234,0.2448,
42.990896,-0.4758,0.0900,0.0044,0.4801,-0.1234,0.2448,
43.037083,-0.4758,0.0900,0.0044,0.4801,-0.1234,0.2448,
43.054467,-0.4758,0.0900,0.0044,0.6965,-0.0889,0.1298,
43.056734,1.4444,-1.2163,-0.4534,0.6965,-0.0889,0.1298,
43.103207,1.4444,-1.2163,-0.4534,0.6965,-0.0889,0.1298,
43.119534,1.4444,-1.2163,-0.4534,0.6147,-0.0551,-0.0163,
43.122122,0.3101,-0.6439,-0.0458,0.6147,-0.0551,-0.0163,
43.169458,0.3101,-0.6439,-0.0458,0.6147,-0.0551,-0.0163,
43.185944,0.3101,-0.6439,-0.0458,0.4833,-0.3844,-0.4965,
43.188101,0.7871,-1.3011,0.7595,0.4833,-0.3844,-0.4965,
43.235200,0.7871,-1.3011,0.7595,0.4833,-0.3844,-0.4965,
43.250465,0.7871,-1.3011,0.7595,0.2850,0.2575,-0.5348,
43.251415,1.5900,-2.0406,0.6478,0.2850,0.2575,-0.5348,
43.300635,1.5900,-2.0406,0.6478,0.2850,0.2575,-0.5348,
43.315950,1.5900,-2.0406,0.6478,-0.0351,0.2379,-0.5043,
43.317901,-0.9110,-2.6284,0.3268,-0.0351,0.2379,-0.5043,
43.368413,-0.9110,-2.6284,0.3268,-0.0351,0.2379,-0.5043,
43.381793,-0.9110,-2.6284,0.3268,-0.1446,0.2106,0.5968,
43.383498,-0.2443,9.1995,-4.2046,-0.1446,0.2106,0.5968,
43.433539,-0.2443,9.1995,-4.2046,-0.1446,0.2106,0.5968,
43.447276,-0.2443,9.1995,-4.2046,-0.8903,-1.1483,0.5429,
43.449897,-0.5429,0.6248,-1.5757,-0.8903,-1.1483,0.5429,
43.495502,-0.5429,0.6248,-1.5757,-0.8903,-1.1483,0.5429,
43.511889,-0.5429,0.6248,-1.5757,-0.8587,-0.1466,0.0941,
43.514178,0.5233,0.7197,0.0155,-0.8587,-0.1466,0.0941,
43.560964,0.5233,0.7197,0.0155,-0.8587,-0.1466,0.0941,
43.577963,0.5233,0.7197,0.0155,-0.9244,0.1407,-0.1936,
43.579762,-1.5927,-1.6660,-0.2967,-0.9244,0.1407,-0.1936,
43.627018,-1.5927,-1.6660,-0.2967,-0.9244,0.1407,-0.1936,
43.642611,-1.5927,-1.6660,-0.2967,-0.6188,0.0502,-0.1717,
43.644510,-0.1450,-0.7571,-0.5252,-0.6188,0.0502,-0.1717,
43.691449,-0.1450,-0.7571,-0.5252,-0.6188,0.0502,-0.1717,
43.708102,-0.1450,-0.7571,-0.5252,-0.3354,0.3312,0.0157,
43.709530,0.1554,-0.0636,0.6579,-0.3354,0.3312,0.0157,
43.757527,0.1554,-0.0636,0.6579,-0.3354,0.3312,0.0157,
43.773542,0.1554,-0.0636,0.6579,-0.1500,0.2068,0.1341,
43.775870,0.4225,-1.6439,1.0719,-0.1500,0.2068,0.1341,
43.823508,0.4225,-1.6439,1.0719,-0.1500,0.2068,0.1341,
43.838832,0.4225,-1.6439,1.0719,0.2164,0.5357,0.0409,
43.840358,0.8649,-1.7989,0.6850,0.2164,0.5357,0.0409,
43.888621,0.8649,-1.7989,0.6850,0.2164,0.5357,0.0409,
43.904002,0.8649,-1.7989,0.6850,0.3764,0.4403,-0.0606,
43.905561,-0.9984,1.0295,-0.0253,0.3764,0.4403,-0.0606,
43.953842,-0.9984,1.0295,-0.0253,0.3764,0.4403,-0.0606,
43.969959,-0.9984,1.0295,-0.0253,0.0805,-0.1321,-0.3464,
43.971081,-1.3015,0.4092,0.0700,0.0805,-0.1321,-0.3464,
44.020992,-1.3015,0.4092,0.0700,0.0805,-0.1321,-0.3464,
44.035110,-1.3015,0.4092,0.0700,0.5583,-0.7903,0.1097,
44.036420,-2.3322,1.2080,-0.6807,0.5583,-0.7903,0.1097,
44.084982,-2.3322,1.2080,-0.6807,0.5583,-0.7903,0.1097,
44.101608,-2.3322,1.2080,-0.6807,0.6379,-0.8460,0.1988,
44.103871,-0.9762,-1.1732,-0.2783,0.6379,-0.8460,0.1988,
44.151249,-0.9762,-1.1732,-0.2783,0.6379,-0.8460,0.1988,
44.167371,-0.9762,-1.1732,-0.2783,0.4488,-0.4545,0.0553,
44.169093,1.6630,0.8505,0.2928,0.4488,-0.4545,0.0553,
44.216166,1.6630,0.8505,0.2928,0.4488,-0.4545,0.0553,
44.232043,1.6630,0.8505,0.2928,0.1701,-0.3381,0.0429,
44.234046,1.4697,-0.6057,1.0070,0.1701,-0.3381,0.0429,
44.281600,1.4697,-0.6057,1.0070,0.1701,-0.3381,0.0429,
44.297758,1.4697,-0.6057,1.0070,0.6503,0.0089,-0.0467,
44.299633,1.6804,-1.3757,0.7162,0.6503,0.0089,-0.0467,
44.346982,1.6804,-1.3757,0.7162,0.6503,0.0089,-0.0467,
44.365270,1.6804,-1.3757,0.7162,0.5034,0.0638,-0.4861,
44.367735,1.0649,-1.4625,0.5531,0.5034,0.0638,-0.4861,
44.413609,1.0649,-1.4625,0.5531,0.5034,0.0638,-0.4861,
44.429882,1.0649,-1.4625,0.5531,0.4995,0.2740,-0.8244,
44.431566,1.4742,-1.6112,-0.2081,0.4995,0.2740,-0.8244,
44.479467,1.4742,-1.6112,-0.2081,0.4995,0.2740,-0.8244,
44.494818,1.4742,-1.6112,-0.2081,0.0263,0.0782,-0.5872,
44.497715,-1.4673,-2.5100,-2.2015,0.0263,0.0782,-0.5872,
44.543447,-1.4673,-2.5100,-2.2015,0.0263,0.0782,-0.5872,
44.560023,-1.4673,-2.5100,-2.2015,-0.5244,-0.3679,0.4499,
44.562832,-3.1197,8.5837,-1.5928,-0.5244,-0.3679,0.4499,
44.608519,-3.1197,8.5837,-1.5928,-0.5244,-0.3679,0.4499,
44.624816,-3.1197,8.5837,-1.5928,-0.9213,0.0299,0.0944,
44.625849,1.2363,1.9887,0.9326,-0.9213,0.0299,0.0944,
44.674459,1.2363,1.9887,0.9326,-0.9213,0.0299,0.0944,
44.690036,1.2363,1.9887,0.9326,-1.0243,-0.1698,0.0864,
44.691358,-1.7452,-2.0849,-0.7040,-1.0243,-0.1698,0.0864,
44.739167,-1.7452,-2.0849,-0.7040,-1.0243,-0.1698,0.0864,
44.755936,-1.7452,-2.0849,-0.7040,-0.9103,-0.1736,0.0820,
44.758491,-0.4011,-1.2467,-0.4534,-0.9103,-0.1736,0.0820,
44.805941,-0.4011,-1.2467,-0.4534,-0.9103,-0.1736,0.0820,
44.821917,-0.4011,-1.2467,-0.4534,-0.5194,0.1246,0.0803,
44.824154,-0.2951,-0.1042,-0.0301,-0.5194,0.1246,0.0803,
44.870097,-0.2951,-0.1042,-0.0301,-0.5194,0.1246,0.0803,
44.885898,-0.2951,-0.1042,-0.0301,-0.4078,-0.0338,0.2634,
44.886996,0.1131,-1.3253,0.2402,-0.4078,-0.0338,0.2634,
44.935981,0.1131,-1.3253,0.2402,-0.4078,-0.0338,0.2634,
44.950970,0.1131,-1.3253,0.2402,-0.1066,0.3865,0.0403,
44.951679,0.7238,-1.1783,0.5006,-0.1066,0.3865,0.0403,
45.001831,0.7238,-1.1783,0.5006,-0.1066,0.3865,0.0403,
45.018434,0.7238,-1.1783,0.5006,0.0851,0.4522,0.0797,
45.020094,0.5771,-0.2502,0.6730,0.0851,0.4522,0.0797,
45.068606,0.5771,-0.2502,0.6730,0.0851,0.4522,0.0797,
45.084673,0.5771,-0.2502,0.6730,0.4114,0.1846,-0.1358,
45.086527,-0.6186,-0.8097,0.1443,0.4114,0.1846,-0.1358,
45.134169,-0.6186,-0.8097,0.1443,0.4114,0.1846,-0.1358,
45.149089,-0.6186,-0.8097,0.1443,0.3738,-0.6825,-0.3317,
45.150368,-1.8808,1.5861,0.7953,0.3738,-0.6825,-0.3317,
45.201485,-1.8808,1.5861,0.7953,0.3738,-0.6825,-0.3317,
45.215554,-1.8808,1.5861,0.7953,1.0072,-0.5397,0.3545,
45.217704,1.7289,0.1859,-1.0754,1.0072,-0.5397,0.3545,
45.264430,1.7289,0.1859,-1.0754,1.0072,-0.5397,0.3545,
45.281411,1.7289,0.1859,-1.0754,0.8367,0.6081,0.2089,
45.283481,0.0035,1.1959,0.1795,0.8367,0.6081,0.2089,
45.330115,0.0035,1.1959,0.1795,0.8367,0.6081,0.2089,
45.345618,0.0035,1.1959,0.1795,0.5279,0.3369,0.1576,
45.346998,-0.2820,-1.2464,0.7531,0.5279,0.3369,0.1576,
45.395605,-0.2820,-1.2464,0.7531,0.5279,0.3369,0.1576,
45.410964,-0.2820,-1.2464,0.7531,0.5093,0.4997,0.3351,
45.413220,2.4151,-0.5885,-0.0477,0.5093,0.4997,0.3351,
45.459888,2.4151,-0.5885,-0.0477,0.5093,0.4997,0.3351,
45.474736,2.4151,-0.5885,-0.0477,0.2127,0.4601,-0.1051,
45.477201,-0.3533,-0.8915,0.6103,0.2127,0.4601,-0.1051,
45.525056,-0.3533,-0.8915,0.6103,0.2127,0.4601,-0.1051,
45.540868,-0.3533,-0.8915,0.6103,0.0318,-0.1104,-0.7152,
45.542706,0.0719,-2.8756,0.7250,0.0318,-0.1104,-0.7152,
45.591079,0.0719,-2.8756,0.7250,0.0318,-0.1104,-0.7152,
45.606151,0.0719,-2.8756,0.7250,-0.1805,0.2633,-0.8228,
45.608063,2.6942,-2.3340,1.0023,-0.1805,0.2633,-0.8228,
45.657214,2.6942,-2.3340,1.0023,-0.1805,0.2633,-0.8228,
45.672357,2.6942,-2.3340,1.0023,-0.0791,2.3277,-0.3374,
45.674719,0.9026,9.9802,-2.8321,-0.0791,2.3277,-0.3374,
45.722237,0.9026,9.9802,-2.8321,-0.0791,2.3277,-0.3374,
45.738190,0.9026,9.9802,-2.8321,-0.6017,-1.1913,0.5192,
45.740390,-4.5536,1.7341,-1.8153,-0.6017,-1.1913,0.5192,
45.787544,-4.5536,1.7341,-1.8153,-0.6017,-1.1913,0.5192,
45.802606,-4.5536,1.7341,-1.8153,-0.5495,-0.1480,0.0182,
45.803748,1.0399,1.2973,0.3442,-0.5495,-0.1480,0.0182,
45.853851,1.0399,1.2973,0.3442,-0.5495,-0.1480,0.0182,
45.869188,1.0399,1.2973,0.3442,-0.7312,0.0096,-0.0324,
45.871652,-0.9098,-3.0652,-0.4552,-0.7312,0.0096,-0.0324,
45.920775,-0.9098,-3.0652,-0.4552,-0.7312,0.0096,-0.0324,
45.934451,-0.9098,-3.0652,-0.4552,-0.6416,0.0385,-0.0383,
45.936069,-0.0524,-0.7477,-0.2975,-0.6416,0.0385,-0.0383,
45.983462,-0.0524,-0.7477,-0.2975,-0.6416,0.0385,-0.0383,
46.000889,-0.0524,-0.7477,-0.2975,-0.4713,0.0541,0.1924,
46.002143,-0.0975,-0.2420,0.2150,-0.4713,0.0541,0.1924,
46.050858,-0.0975,-0.2420,0.2150,-0.4713,0.0541,0.1924,
46.065069,-0.0975,-0.2420,0.2150,-0.3109,0.0608,0.3088,
46.066470,0.1980,-1.4301,0.2750,-0.3109,0.0608,0.3088,
46.115250,0.1980,-1.4301,0.2750,-0.3109,0.0608,0.3088,
46.132336,0.1980,-1.4301,0.2750,0.0991,0.3264,0.1145,
46.133527,0.0059,-1.3808,0.8850,0.0991,0.3264,0.1145,
46.181261,0.0059,-1.3808,0.8850,0.0991,0.3264,0.1145,
46.195944,0.0059,-1.3808,0.8850,0.4571,0.6200,-0.1448,
46.197138,0.3809,-0.5593,0.9929,0.4571,0.6200,-0.1448,
46.245146,0.3809,-0.5593,0.9929,0.4571,0.6200,-0.1448,
46.262412,0.3809,-0.5593,0.9929,0.2966,0.2842,-0.2833,
46.263683,-2.6107,1.8485,1.1457,0.2966,0.2842,-0.2833,
46.311077,-2.6107,1.8485,1.1457,0.2966,0.2842,-0.2833,
46.327964,-2.6107,1.8485,1.1457,0.7026,-0.8360,0.1539,
46.330221,-1.4778,0.1633,-0.3551,0.7026,-0.8360,0.1539,
46.374981,-1.4778,0.1633,-0.3551,0.7026,-0.8360,0.1539,
46.393187,-1.4778,0.1633,-0.3551,0.8569,-0.3425,0.6141,
46.395326,1.4670,-0.6609,-2.0147,0.8569,-0.3425,0.6141,
46.444146,1.4670,-0.6609,-2.0147,0.8569,-0.3425,0.6141,
46.459140,1.4670,-0.6609,-2.0147,0.7350,-0.0263,0.1055,
46.461474,0.1179,0.2888,0.8206,0.7350,-0.0263,0.1055,
46.508405,0.1179,0.2888,0.8206,0.7350,-0.0263,0.1055,
46.522691,0.1179,0.2888,0.8206,0.5331,-0.1550,0.1762,
46.524498,2.0034,-0.8455,0.4399,0.5331,-0.1550,0.1762,
46.573704,2.0034,-0.8455,0.4399,0.5331,-0.1550,0.1762,
46.588851,2.0034,-0.8455,0.4399,0.6211,0.1900,0.2213,
46.591332,1.2624,-2.0607,0.3764,0.6211,0.1900,0.2213,
46.639076,1.2624,-2.0607,0.3764,0.6211,0.1900,0.2213,
46.655447,1.2624,-2.0607,0.3764,0.3480,-0.1025,-0.5370,
46.657710,-0.0554,-1.9086,0.5128,0.3480,-0.1025,-0.5370,
46.704110,-0.0554,-1.9086,0.5128,0.3480,-0.1025,-0.5370,
46.720931,-0.0554,-1.9086,0.5128,-0.3294,-0.0034,-0.4998,
46.723232,1.9994,-2.5282,-0.3671,-0.3294,-0.0034,-0.4998,
46.769579,1.9994,-2.5282,-0.3671,-0.3294,-0.0034,-0.4998,
46.785238,1.9994,-2.5282,-0.3671,-0.5803,0.0985,0.5366,
46.786129,-4.3118,11.0966,-0.3179,-0.5803,0.0985,0.5366,
46.834869,-4.3118,11.0966,-0.3179,-0.5803,0.0985,0.5366,
46.851245,-4.3118,11.0966,-0.3179,-0.9646,-1.4879,0.1029,
46.852480,-0.0191,0.7703,-2.0070,-0.9646,-1.4879,0.1029,
46.899996,-0.0191,0.7703,-2.0070,-0.9646,-1.4879,0.1029,
46.916639,-0.0191,0.7703,-2.0070,-0.9180,-0.6193,-0.0959,
46.917482,0.1212,-0.7852,0.5519,-0.9180,-0.6193,-0.0959,
46.966893,0.1212,-0.7852,0.5519,-0.9180,-0.6193,-0.0959,
46.981404,0.1212,-0.7852,0.5519,-0.8144,0.1880,-0.1739,
46.982272,-0.1624,-2.2030,-0.2840,-0.8144,0.1880,-0.1739,
47.032373,-0.1624,-2.2030,-0.2840,-0.8144,0.1880,-0.1739,
47.046830,-0.1624,-2.2030,-0.2840,-0.6675,0.3531,-0.0260,
47.048161,0.8226,0.1212,0.6795,-0.6675,0.3531,-0.0260,
47.097116,0.8226,0.1212,0.6795,-0.6675,0.3531,-0.0260,
