
time,ax,ay,az,wx,wy,wz,
0.022833,0.0000,0.0000,0.0000,0.0000,0.0000,0.0000,
0.032235,0.0000,0.0000,0.0000,0.0843,-0.0722,-0.0000,
0.086323,0.0000,0.0000,0.0000,0.0843,-0.0722,-0.0000,
0.097652,0.0000,0.0000,0.0000,0.2903,-0.2280,-0.0434,
0.151244,0.0000,0.0000,0.0000,0.2903,-0.2280,-0.0434,
0.163208,0.0000,0.0000,0.0000,0.1080,-0.0728,-0.0095,
0.217374,0.0000,0.0000,0.0000,0.1080,-0.0728,-0.0095,
0.229587,0.0000,0.0000,0.0000,0.0797,-0.0318,-0.0156,
0.283154,0.0000,0.0000,0.0000,0.0797,-0.0318,-0.0156,
0.293774,0.0000,0.0000,0.0000,-0.1159,0.0115,-0.0026,
0.350854,0.0000,0.0000,0.0000,-0.1159,0.0115,-0.0026,
0.359169,0.0000,0.0000,0.0000,-0.2778,-0.0011,0.0536,
0.412525,0.0000,0.0000,0.0000,-0.2778,-0.0011,0.0536,
0.424724,0.0000,0.0000,0.0000,-0.0057,0.0328,-0.0351,
0.478784,0.0000,0.0000,0.0000,-0.0057,0.0328,-0.0351,
0.479506,0.1309,0.3343,-0.4661,-0.0057,0.0328,-0.0351,
0.491067,0.1309,0.3343,-0.4661,-0.3607,0.2285,0.0231,
0.543905,0.1309,0.3343,-0.4661,-0.3607,0.2285,0.0231,
0.544348,-0.2955,1.0463,-1.6965,-0.3607,0.2285,0.0231,
0.555687,-0.2955,1.0463,-1.6965,-1.6780,0.7708,0.0875,
0.609768,-0.2955,1.0463,-1.6965,-1.6780,0.7708,0.0875,
0.610680,0.2265,0.7944,1.3134,-1.6780,0.7708,0.0875,
0.621700,0.2265,0.7944,1.3134,-1.3404,0.7335,0.2653,
0.675508,0.2265,0.7944,1.3134,-1.3404,0.7335,0.2653,
0.676285,-0.9304,-1.9155,0.1196,-1.3404,0.7335,0.2653,
0.687438,-0.9304,-1.9155,0.1196,0.2775,-0.3578,0.0490,
0.740815,-0.9304,-1.9155,0.1196,0.2775,-0.3578,0.0490,
0.741634,-0.2505,-1.6078,0.1161,0.2775,-0.3578,0.0490,
0.752611,-0.2505,-1.6078,0.1161,0.2744,0.2650,0.1182,
0.806608,-0.2505,-1.6078,0.1161,0.2744,0.2650,0.1182,
0.807889,-0.5248,-0.1617,1.2684,0.2744,0.2650,0.1182,
0.818018,-0.5248,-0.1617,1.2684,0.3940,-0.2958,0.0817,
0.871520,-0.5248,-0.1617,1.2684,0.3940,-0.2958,0.0817,
0.872344,-0.5505,-1.3940,0.6660,0.3940,-0.2958,0.0817,
0.883623,-0.5505,-1.3940,0.6660,0.5527,-1.8851,0.7636,
0.938297,-0.5505,-1.3940,0.6660,0.5527,-1.8851,0.7636,
0.939985,1.4600,0.4081,1.2880,0.5527,-1.8851,0.7636,
0.949042,1.4600,0.4081,1.2880,0.4256,-1.2775,0.6759,
1.003568,1.4600,0.4081,1.2880,0.4256,-1.2775,0.6759,
1.004795,-1.1448,0.2533,4.3871,0.4256,-1.2775,0.6759,
1.015477,-1.1448,0.2533,4.3871,-0.0716,3.0995,0.6468,
1.069471,-1.1448,0.2533,4.3871,-0.0716,3.0995,0.6468,
1.070653,-0.5288,-0.5760,0.0805,-0.0716,3.0995,0.6468,
1.079994,-0.5288,-0.5760,0.0805,-0.9348,-1.5340,-0.5589,
1.133873,-0.5288,-0.5760,0.0805,-0.9348,-1.5340,-0.5589,
1.135333,-1.2401,0.7644,-1.5158,-0.9348,-1.5340,-0.5589,
1.146891,-1.2401,0.7644,-1.5158,-0.5116,0.1402,-0.2795,
1.199488,-1.2401,0.7644,-1.5158,-0.5116,0.1402,-0.2795,
1.200593,-0.5652,-1.0867,0.7913,-0.5116,0.1402,-0.2795,
1.211611,-0.5652,-1.0867,0.7913,-0.1413,1.3279,-0.4818,
1.265011,-0.5652,-1.0867,0.7913,-0.1413,1.3279,-0.4818,
1.266322,-0.2088,-1.1421,3.0879,-0.1413,1.3279,-0.4818,
1.276473,-0.2088,-1.1421,3.0879,0.1077,-0.2480,-0.3671,
1.330391,-0.2088,-1.1421,3.0879,0.1077,-0.2480,-0.3671,
1.331551,0.5285,-0.8178,2.1142,0.1077,-0.2480,-0.3671,
1.342020,0.5285,-0.8178,2.1142,0.8160,-0.8100,0.2556,
1.396414,0.5285,-0.8178,2.1142,0.8160,-0.8100,0.2556,
1.398438,-1.4084,1.1815,2.4484,0.8160,-0.8100,0.2556,
1.408018,-1.4084,1.1815,2.4484,1.5444,-1.6515,0.5290,
1.461679,-1.4084,1.1815,2.4484,1.5444,-1.6515,0.5290,
1.462451,-2.9449,0.4782,-1.1466,1.5444,-1.6515,0.5290,
1.472828,-2.9449,0.4782,-1.1466,0.0128,-1.7226,-0.0307,
1.527300,-2.9449,0.4782,-1.1466,0.0128,-1.7226,-0.0307,
1.528803,-2.0701,0.3084,-0.6311,0.0128,-1.7226,-0.0307,
1.538839,-2.0701,0.3084,-0.6311,-0.3294,-4.3506,-0.0941,
1.591648,-2.0701,0.3084,-0.6311,-0.3294,-4.3506,-0.0941,
1.592855,0.1249,-0.0053,-0.8012,-0.3294,-4.3506,-0.0941,
1.604519,0.1249,-0.0053,-0.8012,0.7092,-4.0719,-0.1573,
1.657798,0.1249,-0.0053,-0.8012,0.7092,-4.0719,-0.1573,
1.658693,2.4407,-1.8857,-1.5141,0.7092,-4.0719,-0.1573,
1.669722,2.4407,-1.8857,-1.5141,2.0427,-1.4413,0.0374,
1.723748,2.4407,-1.8857,-1.5141,2.0427,-1.4413,0.0374,
1.724591,4.8916,-2.2967,-0.5464,2.0427,-1.4413,0.0374,
1.734606,4.8916,-2.2967,-0.5464,-0.5579,-0.8793,-0.1527,
1.788589,4.8916,-2.2967,-0.5464,-0.5579,-0.8793,-0.1527,
1.789765,2.8214,-1.7607,0.9511,-0.5579,-0.8793,-0.1527,
1.800069,2.8214,-1.7607,0.9511,-0.5649,0.0706,-0.2874,
1.854477,2.8214,-1.7607,0.9511,-0.5649,0.0706,-0.2874,
1.855716,2.3120,-0.9176,3.8428,-0.5649,0.0706,-0.2874,
1.865857,2.3120,-0.9176,3.8428,0.7274,0.0449,-0.4256,
1.919813,2.3120,-0.9176,3.8428,0.7274,0.0449,-0.4256,
1.920612,4.8062,0.5442,0.4393,0.7274,0.0449,-0.4256,
1.931477,4.8062,0.5442,0.4393,1.7352,1.2614,-0.6014,
1.984799,4.8062,0.5442,0.4393,1.7352,1.2614,-0.6014,
1.986179,4.3883,2.8193,0.6762,1.7352,1.2614,-0.6014,
1.997527,4.3883,2.8193,0.6762,0.2700,2.6362,0.1746,
2.050925,4.3883,2.8193,0.6762,0.2700,2.6362,0.1746,
2.052106,-0.3015,0.5329,-0.1645,0.2700,2.6362,0.1746,
2.062971,-0.3015,0.5329,-0.1645,-2.0513,2.0307,0.4494,
2.116817,-0.3015,0.5329,-0.1645,-2.0513,2.0307,0.4494,
2.118567,-1.3726,2.7996,-2.6833,-2.0513,2.0307,0.4494,
2.128225,-1.3726,2.7996,-2.6833,-1.8425,0.1787,1.3299,
2.182395,-1.3726,2.7996,-2.6833,-1.8425,0.1787,1.3299,
2.183863,-2.5332,0.5581,-2.7780,-1.8425,0.1787,1.3299,
2.193738,-2.5332,0.5581,-2.7780,-2.8460,0.5012,0.8795,
2.247387,-2.5332,0.5581,-2.7780,-2.8460,0.5012,0.8795,
2.248627,-3.8633,-2.5970,-3.0365,-2.8460,0.5012,0.8795,
2.259242,-3.8633,-2.5970,-3.0365,-2.0224,0.2969,0.7077,
2.312792,-3.8633,-2.5970,-3.0365,-2.0224,0.2969,0.7077,
2.314051,-1.8126,-2.1762,-0.2379,-2.0224,0.2969,0.7077,
2.325872,-1.8126,-2.1762,-0.2379,0.4023,2.1747,0.4559,
2.378469,-1.8126,-2.1762,-0.2379,0.4023,2.1747,0.4559,
2.379659,0.8465,-0.7614,2.8875,0.4023,2.1747,0.4559,
2.389887,0.8465,-0.7614,2.8875,2.0088,0.4673,0.4369,
2.443678,0.8465,-0.7614,2.8875,2.0088,0.4673,0.4369,
2.444843,1.0840,2.1589,2.7713,2.0088,0.4673,0.4369,
2.455165,1.0840,2.1589,2.7713,0.0562,-0.2130,0.3311,
2.509138,1.0840,2.1589,2.7713,0.0562,-0.2130,0.3311,
2.511024,2.0480,1.3647,1.2797,0.0562,-0.2130,0.3311,
2.521244,2.0480,1.3647,1.2797,1.2885,-2.0968,0.1451,
2.574797,2.0480,1.3647,1.2797,1.2885,-2.0968,0.1451,
2.576012,-2.5866,-0.5112,-2.0069,1.2885,-2.0968,0.1451,
2.585877,-2.5866,-0.5112,-2.0069,1.3914,0.2008,-0.7773,
2.640508,-2.5866,-0.5112,-2.0069,1.3914,0.2008,-0.7773,
2.641445,-2.5554,0.6644,-2.0124,1.3914,0.2008,-0.7773,
2.652139,-2.5554,0.6644,-2.0124,1.8062,-1.6383,-0.2188,
2.705976,-2.5554,0.6644,-2.0124,1.8062,-1.6383,-0.2188,
2.706763,-1.9561,-1.7696,-1.3205,1.8062,-1.6383,-0.2188,
2.717383,-1.9561,-1.7696,-1.3205,1.2161,-0.3633,-0.5118,
2.770911,-1.9561,-1.7696,-1.3205,1.2161,-0.3633,-0.5118,
2.772449,0.3414,0.0010,0.5931,1.2161,-0.3633,-0.5118,
2.782983,0.3414,0.0010,0.5931,0.1463,0.3980,-0.4664,
2.836713,0.3414,0.0010,0.5931,0.1463,0.3980,-0.4664,
2.838266,0.7718,-1.6092,2.8170,0.1463,0.3980,-0.4664,
2.848490,0.7718,-1.6092,2.8170,0.3853,-1.7938,-0.5008,
2.902182,0.7718,-1.6092,2.8170,0.3853,-1.7938,-0.5008,
2.903333,1.5892,0.3493,2.2633,0.3853,-1.7938,-0.5008,
2.913765,1.5892,0.3493,2.2633,0.1165,-0.4045,-0.5883,
2.967294,1.5892,0.3493,2.2633,0.1165,-0.4045,-0.5883,
2.968543,4.6431,-0.2001,1.7491,0.1165,-0.4045,-0.5883,
2.979976,4.6431,-0.2001,1.7491,-0.0142,-0.3088,0.1686,
3.032751,4.6431,-0.2001,1.7491,-0.0142,-0.3088,0.1686,
3.033839,4.5125,1.7821,0.7461,-0.0142,-0.3088,0.1686,
3.044548,4.5125,1.7821,0.7461,-2.3275,1.0721,1.3580,
3.098642,4.5125,1.7821,0.7461,-2.3275,1.0721,1.3580,
3.100715,-1.0198,2.9784,0.9566,-2.3275,1.0721,1.3580,
3.110973,-1.0198,2.9784,0.9566,-1.4302,1.2989,1.7854,
3.164328,-1.0198,2.9784,0.9566,-1.4302,1.2989,1.7854,
3.165993,-1.0000,6.9742,-1.9971,-1.4302,1.2989,1.7854,
3.175293,-1.0000,6.9742,-1.9971,-0.9155,1.7849,-0.3493,
3.230622,-1.0000,6.9742,-1.9971,-0.9155,1.7849,-0.3493,
3.232496,-4.7525,-0.6320,-2.8578,-0.9155,1.7849,-0.3493,
3.240873,-4.7525,-0.6320,-2.8578,-1.9361,-0.2381,-0.4375,
3.295360,-4.7525,-0.6320,-2.8578,-1.9361,-0.2381,-0.4375,
3.296945,-5.5532,-2.6667,-2.7415,-1.9361,-0.2381,-0.4375,
3.306647,-5.5532,-2.6667,-2.7415,-1.7249,-1.5014,-0.2219,
3.360870,-5.5532,-2.6667,-2.7415,-1.7249,-1.5014,-0.2219,
3.362690,-4.9360,-4.0267,-3.2028,-1.7249,-1.5014,-0.2219,
3.372212,-4.9360,-4.0267,-3.2028,0.3937,0.6770,-0.3450,
3.428402,-4.9360,-4.0267,-3.2028,0.3937,0.6770,-0.3450,
3.430352,2.6443,1.5340,13.7166,0.3937,0.6770,-0.3450,
3.439979,2.6443,1.5340,13.7166,-1.1997,-0.4311,1.1594,
3.491511,2.6443,1.5340,13.7166,-1.1997,-0.4311,1.1594,
3.493314,2.8486,1.0987,1.9740,-1.1997,-0.4311,1.1594,
3.502830,2.8486,1.0987,1.9740,0.5748,-1.1070,0.6504,
3.557042,2.8486,1.0987,1.9740,0.5748,-1.1070,0.6504,
3.558816,-2.2317,1.2796,-4.6325,0.5748,-1.1070,0.6504,
3.568121,-2.2317,1.2796,-4.6325,2.0107,-0.7992,-1.5808,
3.621995,-2.2317,1.2796,-4.6325,2.0107,-0.7992,-1.5808,
3.622972,-5.5843,2.2900,-2.8892,2.0107,-0.7992,-1.5808,
3.633513,-5.5843,2.2900,-2.8892,1.2631,-1.8667,0.1434,
3.687844,-5.5843,2.2900,-2.8892,1.2631,-1.8667,0.1434,
3.689506,-3.1442,-0.0100,0.0488,1.2631,-1.8667,0.1434,
3.698989,-3.1442,-0.0100,0.0488,-0.2094,-3.5329,0.5773,
3.754279,-3.1442,-0.0100,0.0488,-0.2094,-3.5329,0.5773,
3.755985,-0.3023,-0.1223,-1.5796,-0.2094,-3.5329,0.5773,
3.765257,-0.3023,-0.1223,-1.5796,-0.7643,-3.4413,-0.2857,
3.819981,-0.3023,-0.1223,-1.5796,-0.7643,-3.4413,-0.2857,
3.822087,1.6109,-1.1670,0.0309,-0.7643,-3.4413,-0.2857,
3.831175,1.6109,-1.1670,0.0309,-0.4200,-0.8845,-0.7544,
3.885802,1.6109,-1.1670,0.0309,-0.4200,-0.8845,-0.7544,
3.887689,4.7838,-1.1630,2.8049,-0.4200,-0.8845,-0.7544,
3.896578,4.7838,-1.1630,2.8049,-0.2819,-3.2530,-0.2561,
3.952697,4.7838,-1.1630,2.8049,-0.2819,-3.2530,-0.2561,
3.954989,3.6712,-0.2443,5.1784,-0.2819,-3.2530,-0.2561,
3.964713,3.6712,-0.2443,5.1784,-0.8887,-2.5745,0.3819,
4.016726,3.6712,-0.2443,5.1784,-0.8887,-2.5745,0.3819,
4.018515,2.3478,2.9312,2.2305,-0.8887,-2.5745,0.3819,
4.030086,2.3478,2.9312,2.2305,-2.0429,0.0434,1.9612,
4.081243,2.3478,2.9312,2.2305,-2.0429,0.0434,1.9612,
4.082366,-0.9692,3.1284,1.8745,-2.0429,0.0434,1.9612,
4.092034,-0.9692,3.1284,1.8745,-2.5389,1.2993,1.4323,
4.146312,-0.9692,3.1284,1.8745,-2.5389,1.2993,1.4323,
4.148169,1.0478,5.9336,-2.8321,-2.5389,1.2993,1.4323,
4.157343,1.0478,5.9336,-2.8321,-0.7225,1.8680,-0.2998,
4.210783,1.0478,5.9336,-2.8321,-0.7225,1.8680,-0.2998,
4.211245,-4.3615,-0.2225,-2.7073,-0.7225,1.8680,-0.2998,
4.223408,-4.3615,-0.2225,-2.7073,-2.6681,-0.6318,-1.1657,
4.277895,-4.3615,-0.2225,-2.7073,-2.6681,-0.6318,-1.1657,
4.278841,-5.4453,-2.8226,-3.1671,-2.6681,-0.6318,-1.1657,
4.288585,-5.4453,-2.8226,-3.1671,-2.1444,-1.2468,-0.0121,
4.343245,-5.4453,-2.8226,-3.1671,-2.1444,-1.2468,-0.0121,
4.344888,-3.9168,-5.0769,-2.7868,-2.1444,-1.2468,-0.0121,
4.355691,-3.9168,-5.0769,-2.7868,-0.0968,0.3456,-0.1286,
4.408819,-3.9168,-5.0769,-2.7868,-0.0968,0.3456,-0.1286,
4.410434,1.3846,0.3519,8.5700,-0.0968,0.3456,-0.1286,
4.420756,1.3846,0.3519,8.5700,-0.1758,-1.9174,1.2420,
4.474713,1.3846,0.3519,8.5700,-0.1758,-1.9174,1.2420,
4.476476,6.3407,1.1065,3.4191,-0.1758,-1.9174,1.2420,
4.486396,6.3407,1.1065,3.4191,0.2969,1.1110,0.1336,
4.539228,6.3407,1.1065,3.4191,0.2969,1.1110,0.1336,
4.540805,1.0158,2.2467,0.5553,0.2969,1.1110,0.1336,
4.550952,1.0158,2.2467,0.5553,1.2370,-1.4505,-1.7900,
4.604643,1.0158,2.2467,0.5553,1.2370,-1.4505,-1.7900,
4.605932,-4.5729,1.3398,-2.6171,1.2370,-1.4505,-1.7900,
4.615740,-4.5729,1.3398,-2.6171,0.7819,-1.6092,-1.1416,
4.670381,-4.5729,1.3398,-2.6171,0.7819,-1.6092,-1.1416,
4.672126,-3.1679,-0.6558,-1.7745,0.7819,-1.6092,-1.1416,
4.681358,-3.1679,-0.6558,-1.7745,0.8801,-2.3622,0.0634,
4.735929,-3.1679,-0.6558,-1.7745,0.8801,-2.3622,0.0634,
4.737535,0.3246,-1.0403,-2.4084,0.8801,-2.3622,0.0634,
4.747282,0.3246,-1.0403,-2.4084,0.6364,-1.4856,-0.6552,
4.801392,0.3246,-1.0403,-2.4084,0.6364,-1.4856,-0.6552,
4.802891,2.0402,-1.6100,1.4904,0.6364,-1.4856,-0.6552,
4.812074,2.0402,-1.6100,1.4904,-0.5253,-1.5275,-0.6116,
4.867120,2.0402,-1.6100,1.4904,-0.5253,-1.5275,-0.6116,
4.868101,2.3209,-2.3304,0.7989,-0.5253,-1.5275,-0.6116,
4.878769,2.3209,-2.3304,0.7989,-0.0947,-1.1238,-0.5067,
4.932539,2.3209,-2.3304,0.7989,-0.0947,-1.1238,-0.5067,
4.934090,3.1572,-0.7139,2.4787,-0.0947,-1.1238,-0.5067,
4.943256,3.1572,-0.7139,2.4787,1.0962,-0.3390,-0.6011,
4.997663,3.1572,-0.7139,2.4787,1.0962,-0.3390,-0.6011,
4.999209,4.5573,0.7617,1.5087,1.0962,-0.3390,-0.6011,
5.009302,4.5573,0.7617,1.5087,0.1805,0.6370,-0.2979,
5.063850,4.5573,0.7617,1.5087,0.1805,0.6370,-0.2979,
5.065877,4.5517,2.7267,0.5590,0.1805,0.6370,-0.2979,
5.075137,4.5517,2.7267,0.5590,-1.4155,1.2327,0.7914,
5.128531,4.5517,2.7267,0.5590,-1.4155,1.2327,0.7914,
5.130711,0.1953,-0.3157,-0.4511,-1.4155,1.2327,0.7914,
5.140266,0.1953,-0.3157,-0.4511,-1.3027,2.3802,1.7274,
5.194547,0.1953,-0.3157,-0.4511,-1.3027,2.3802,1.7274,
5.196058,2.6494,4.9435,-4.2847,-1.3027,2.3802,1.7274,
5.205286,2.6494,4.9435,-4.2847,-0.6344,0.5232,1.0195,
5.260409,2.6494,4.9435,-4.2847,-0.6344,0.5232,1.0195,
5.262221,-3.3448,0.1408,-3.1399,-0.6344,0.5232,1.0195,
5.270597,-3.3448,0.1408,-3.1399,-2.4842,0.7446,0.3170,
5.325266,-3.3448,0.1408,-3.1399,-2.4842,0.7446,0.3170,
5.326867,-4.4880,-3.0561,-3.2804,-2.4842,0.7446,0.3170,
5.337495,-4.4880,-3.0561,-3.2804,-0.7708,2.1512,0.7169,
5.390678,-4.4880,-3.0561,-3.2804,-0.7708,2.1512,0.7169,
5.392155,-2.9588,-3.1133,-1.9652,-0.7708,2.1512,0.7169,
5.402234,-2.9588,-3.1133,-1.9652,0.5081,1.3060,0.3022,
5.456756,-2.9588,-3.1133,-1.9652,0.5081,1.3060,0.3022,
5.458260,0.2165,-0.7123,3.6579,0.5081,1.3060,0.3022,
5.467745,0.2165,-0.7123,3.6579,0.8636,2.0986,0.1142,
5.521591,0.2165,-0.7123,3.6579,0.8636,2.0986,0.1142,
5.523028,2.9074,2.8559,7.0491,0.8636,2.0986,0.1142,
5.533166,2.9074,2.8559,7.0491,0.2961,0.0289,0.6364,
5.586571,2.9074,2.8559,7.0491,0.2961,0.0289,0.6364,
5.587557,1.1816,1.6556,-0.4313,0.2961,0.0289,0.6364,
5.600039,1.1816,1.6556,-0.4313,0.9386,-1.0345,0.2495,
5.652383,1.1816,1.6556,-0.4313,0.9386,-1.0345,0.2495,
5.653693,-1.0031,-0.2959,-4.8373,0.9386,-1.0345,0.2495,
5.664177,-1.0031,-0.2959,-4.8373,2.5661,-1.3431,-0.7384,
5.717593,-1.0031,-0.2959,-4.8373,2.5661,-1.3431,-0.7384,
5.719133,-0.8906,-0.5486,-4.1153,2.5661,-1.3431,-0.7384,
5.729016,-0.8906,-0.5486,-4.1153,1.8399,0.3630,-0.2926,
5.783084,-0.8906,-0.5486,-4.1153,1.8399,0.3630,-0.2926,
5.784715,-1.7799,-1.0404,-1.1029,1.8399,0.3630,-0.2926,
5.794294,-1.7799,-1.0404,-1.1029,0.7446,-0.2979,-0.6075,
5.849179,-1.7799,-1.0404,-1.1029,0.7446,-0.2979,-0.6075,
5.850655,0.0140,-1.1091,1.5634,0.7446,-0.2979,-0.6075,
5.860512,0.0140,-1.1091,1.5634,0.8202,-2.3237,-0.1297,
5.914948,0.0140,-1.1091,1.5634,0.8202,-2.3237,-0.1297,
5.917205,1.6699,-2.0061,0.1409,0.8202,-2.3237,-0.1297,
5.928335,1.6699,-2.0061,0.1409,0.6306,-1.1518,-0.7016,
5.980617,1.6699,-2.0061,0.1409,0.6306,-1.1518,-0.7016,
5.983236,1.8377,0.9126,3.3937,0.6306,-1.1518,-0.7016,
5.991763,1.8377,0.9126,3.3937,0.4250,-1.1689,-0.6999,
6.047347,1.8377,0.9126,3.3937,0.4250,-1.1689,-0.6999,
6.049888,5.4578,1.8470,0.6128,0.4250,-1.1689,-0.6999,
6.058506,5.4578,1.8470,0.6128,-0.9953,-0.0811,-0.0612,
6.111870,5.4578,1.8470,0.6128,-0.9953,-0.0811,-0.0612,
6.114758,4.3911,0.4707,-0.4780,-0.9953,-0.0811,-0.0612,
6.122914,4.3911,0.4707,-0.4780,-3.1376,1.1930,0.9504,
6.176007,4.3911,0.4707,-0.4780,-3.1376,1.1930,0.9504,
6.176603,0.4670,2.3653,-0.0289,-3.1376,1.1930,0.9504,
6.187124,0.4670,2.3653,-0.0289,-0.9830,0.3256,1.6083,
6.242608,0.4670,2.3653,-0.0289,-0.9830,0.3256,1.6083,
6.243350,0.2158,2.2700,-2.0539,-0.9830,0.3256,1.6083,
6.253725,0.2158,2.2700,-2.0539,-1.1825,1.4229,0.2676,
6.308228,0.2158,2.2700,-2.0539,-1.1825,1.4229,0.2676,
6.310173,-4.4067,-2.7092,-2.5609,-1.1825,1.4229,0.2676,
6.318825,-4.4067,-2.7092,-2.5609,-1.6577,0.3158,0.0405,
6.373581,-4.4067,-2.7092,-2.5609,-1.6577,0.3158,0.0405,
6.375147,-3.9730,-3.2062,-2.4116,-1.6577,0.3158,0.0405,
6.383903,-3.9730,-3.2062,-2.4116,0.0283,1.1768,0.4239,
6.438214,-3.9730,-3.2062,-2.4116,0.0283,1.1768,0.4239,
6.439857,-1.4161,-2.1403,-0.4078,0.0283,1.1768,0.4239,
6.449474,-1.4161,-2.1403,-0.4078,0.9329,1.3589,0.5056,
6.503986,-1.4161,-2.1403,-0.4078,0.9329,1.3589,0.5056,
6.504618,3.6461,1.3396,5.0497,0.9329,1.3589,0.5056,
6.515380,3.6461,1.3396,5.0497,0.4791,1.9610,0.9184,
6.569024,3.6461,1.3396,5.0497,0.4791,1.9610,0.9184,
6.570412,1.7472,1.5371,2.0983,0.4791,1.9610,0.9184,
6.580484,1.7472,1.5371,2.0983,-0.2048,-0.7694,0.2298,
6.634831,1.7472,1.5371,2.0983,-0.2048,-0.7694,0.2298,
6.636689,-1.3290,0.6285,-1.9126,-0.2048,-0.7694,0.2298,
6.646648,-1.3290,0.6285,-1.9126,1.3205,-2.6993,-1.2463,
6.699821,-1.3290,0.6285,-1.9126,1.3205,-2.6993,-1.2463,
6.702431,-2.8656,-0.1588,-4.8497,1.3205,-2.6993,-1.2463,
6.712604,-2.8656,-0.1588,-4.8497,1.0777,-0.8690,-0.6451,
6.766539,-2.8656,-0.1588,-4.8497,1.0777,-0.8690,-0.6451,
6.767157,1.4061,0.7109,-3.5693,1.0777,-0.8690,-0.6451,
6.777242,1.4061,0.7109,-3.5693,1.6620,1.1164,-0.2595,
6.831451,1.4061,0.7109,-3.5693,1.6620,1.1164,-0.2595,
6.832443,0.6653,-1.0109,0.7328,1.6620,1.1164,-0.2595,
6.842802,0.6653,-1.0109,0.7328,0.5305,-0.4898,-0.6150,
6.896652,0.6653,-1.0109,0.7328,0.5305,-0.4898,-0.6150,
6.898358,2.1182,-2.5432,0.5191,0.5305,-0.4898,-0.6150,
6.907780,2.1182,-2.5432,0.5191,1.3784,-0.0987,-0.7063,
6.962913,2.1182,-2.5432,0.5191,1.3784,-0.0987,-0.7063,
6.964412,1.9974,-1.3087,2.0935,1.3784,-0.0987,-0.7063,
6.973855,1.9974,-1.3087,2.0935,1.9406,0.9081,-0.6666,
7.028017,1.9974,-1.3087,2.0935,1.9406,0.9081,-0.6666,
7.030054,3.0156,0.4687,4.6109,1.9406,0.9081,-0.6666,
7.038568,3.0156,0.4687,4.6109,0.2585,0.2921,-0.5376,
7.093027,3.0156,0.4687,4.6109,0.2585,0.2921,-0.5376,
7.093786,4.6234,1.3962,-0.6987,0.2585,0.2921,-0.5376,
7.104248,4.6234,1.3962,-0.6987,-1.3462,1.9740,0.4042,
7.159088,4.6234,1.3962,-0.6987,-1.3462,1.9740,0.4042,
7.160974,2.7953,-1.1480,-0.5490,-1.3462,1.9740,0.4042,
7.171893,2.7953,-1.1480,-0.5490,-0.4862,2.8856,0.7816,
7.223984,2.7953,-1.1480,-0.5490,-0.4862,2.8856,0.7816,
7.225999,2.9751,4.1292,-5.2447,-0.4862,2.8856,0.7816,
7.235955,2.9751,4.1292,-5.2447,-1.3977,0.2231,1.1191,
7.292058,2.9751,4.1292,-5.2447,-1.3977,0.2231,1.1191,
7.293275,-1.2627,-0.1444,-4.0287,-1.3977,0.2231,1.1191,
7.301612,-1.2627,-0.1444,-4.0287,-1.6008,3.2610,0.3696,
7.355033,-1.2627,-0.1444,-4.0287,-1.6008,3.2610,0.3696,
7.356881,-2.3409,-2.2639,-1.8808,-1.6008,3.2610,0.3696,
7.365710,-2.3409,-2.2639,-1.8808,-0.9450,1.5270,0.4797,
7.420618,-2.3409,-2.2639,-1.8808,-0.9450,1.5270,0.4797,
7.422679,-2.1088,-2.1289,-3.0498,-0.9450,1.5270,0.4797,
7.432113,-2.1088,-2.1289,-3.0498,0.4687,1.6817,0.4568,
7.486147,-2.1088,-2.1289,-3.0498,0.4687,1.6817,0.4568,
7.487923,0.0364,-1.1220,0.4158,0.4687,1.6817,0.4568,
7.496664,0.0364,-1.1220,0.4158,0.4873,2.6603,0.5956,
7.552827,0.0364,-1.1220,0.4158,0.4873,2.6603,0.5956,
7.553607,0.7009,1.0504,8.4948,0.4873,2.6603,0.5956,
7.562822,0.7009,1.0504,8.4948,1.2593,-0.5435,0.7753,
7.617260,0.7009,1.0504,8.4948,1.2593,-0.5435,0.7753,
7.618837,1.8953,1.0261,-1.2359,1.2593,-0.5435,0.7753,
7.628208,1.8953,1.0261,-1.2359,0.8899,-1.7628,0.8668,
7.684164,1.8953,1.0261,-1.2359,0.8899,-1.7628,0.8668,
7.685152,0.0346,0.0096,-5.1981,0.8899,-1.7628,0.8668,
7.694528,0.0346,0.0096,-5.1981,0.4725,1.1854,-0.9783,
7.747702,0.0346,0.0096,-5.1981,0.4725,1.1854,-0.9783,
7.748621,0.5672,-0.9259,-2.3007,0.4725,1.1854,-0.9783,
7.759724,0.5672,-0.9259,-2.3007,2.1215,0.9151,0.0935,
7.813042,0.5672,-0.9259,-2.3007,2.1215,0.9151,0.0935,
7.813859,0.5571,-2.5127,-1.6436,2.1215,0.9151,0.0935,
7.824813,0.5571,-2.5127,-1.6436,2.5716,-0.1006,-0.3128,
7.878476,0.5571,-2.5127,-1.6436,2.5716,-0.1006,-0.3128,
7.879604,-0.6562,-0.9637,0.6441,2.5716,-0.1006,-0.3128,
7.890966,-0.6562,-0.9637,0.6441,1.1435,0.7814,-0.1084,
7.944023,-0.6562,-0.9637,0.6441,1.1435,0.7814,-0.1084,
7.944782,0.7929,-1.8767,2.2687,1.1435,0.7814,-0.1084,
7.955482,0.7929,-1.8767,2.2687,1.1327,-1.5527,-0.0996,
8.009223,0.7929,-1.8767,2.2687,1.1327,-1.5527,-0.0996,
8.009914,3.4266,-0.1650,4.2366,1.1327,-1.5527,-0.0996,
8.021293,3.4266,-0.1650,4.2366,0.2269,-0.9303,-0.4479,
8.075415,3.4266,-0.1650,4.2366,0.2269,-0.9303,-0.4479,
8.076996,5.0778,1.5812,2.1734,0.2269,-0.9303,-0.4479,
8.088047,5.0778,1.5812,2.1734,-0.2610,1.4820,0.3028,
8.140617,5.0778,1.5812,2.1734,-0.2610,1.4820,0.3028,
8.141200,2.5445,1.0207,-0.1679,-0.2610,1.4820,0.3028,
8.153266,2.5445,1.0207,-0.1679,-1.5586,2.8013,0.5350,
8.204967,2.5445,1.0207,-0.1679,-1.5586,2.8013,0.5350,
8.205977,3.4422,5.2324,-4.2630,-1.5586,2.8013,0.5350,
8.217590,3.4422,5.2324,-4.2630,-1.2448,0.4713,0.8929,
8.272354,3.4422,5.2324,-4.2630,-1.2448,0.4713,0.8929,
8.273462,-0.3150,0.6290,-4.4726,-1.2448,0.4713,0.8929,
8.283525,-0.3150,0.6290,-4.4726,-1.5873,2.8150,0.2604,
8.337620,-0.3150,0.6290,-4.4726,-1.5873,2.8150,0.2604,
8.338911,-2.3917,-2.5298,-2.9764,-1.5873,2.8150,0.2604,
8.348334,-2.3917,-2.5298,-2.9764,-1.5434,1.4436,0.0260,
8.405032,-2.3917,-2.5298,-2.9764,-1.5434,1.4436,0.0260,
8.406167,-3.6434,-3.1724,-2.8729,-1.5434,1.4436,0.0260,
8.414115,-3.6434,-3.1724,-2.8729,-0.0153,0.6773,0.4543,
8.467847,-3.6434,-3.1724,-2.8729,-0.0153,0.6773,0.4543,
8.468429,-2.3822,-2.5154,0.4646,-0.0153,0.6773,0.4543,
8.479482,-2.3822,-2.5154,0.4646,1.2375,1.8816,0.6158,
8.533582,-2.3822,-2.5154,0.4646,1.2375,1.8816,0.6158,
8.535058,1.5104,2.9251,9.7600,1.2375,1.8816,0.6158,
8.545124,1.5104,2.9251,9.7600,0.8392,-0.3532,-0.0783,
8.601504,1.5104,2.9251,9.7600,0.8392,-0.3532,-0.0783,
8.602651,0.2479,-1.8919,-0.6257,0.8392,-0.3532,-0.0783,
8.611042,0.2479,-1.8919,-0.6257,1.4329,-1.4891,0.5348,
8.665476,0.2479,-1.8919,-0.6257,1.4329,-1.4891,0.5348,
8.667125,2.5356,2.4300,-5.4304,1.4329,-1.4891,0.5348,
8.676842,2.5356,2.4300,-5.4304,1.3583,-0.6289,-0.6985,
8.730226,2.5356,2.4300,-5.4304,1.3583,-0.6289,-0.6985,
8.731934,-2.0063,-2.6338,-1.5002,1.3583,-0.6289,-0.6985,
8.741539,-2.0063,-2.6338,-1.5002,0.9077,0.0258,0.0111,
8.797290,-2.0063,-2.6338,-1.5002,0.9077,0.0258,0.0111,
8.798607,-0.5704,-0.7673,-0.6777,0.9077,0.0258,0.0111,
8.806642,-0.5704,-0.7673,-0.6777,1.8463,-1.2469,-0.0761,
8.861343,-0.5704,-0.7673,-0.6777,1.8463,-1.2469,-0.0761,
8.862900,-0.8135,-1.1445,-0.6621,1.8463,-1.2469,-0.0761,
8.872105,-0.8135,-1.1445,-0.6621,1.4645,0.1000,-0.2848,
8.925975,-0.8135,-1.1445,-0.6621,1.4645,0.1000,-0.2848,
8.926712,0.8025,-0.6707,2.2719,1.4645,0.1000,-0.2848,
8.938931,0.8025,-0.6707,2.2719,0.5851,-0.5105,-0.2402,
8.991868,0.8025,-0.6707,2.2719,0.5851,-0.5105,-0.2402,
8.993205,1.4343,0.0106,1.9375,0.5851,-0.5105,-0.2402,
9.005579,1.4343,0.0106,1.9375,0.3519,-1.0715,-0.2030,
9.056893,1.4343,0.0106,1.9375,0.3519,-1.0715,-0.2030,
9.057506,3.3689,-0.3674,3.8355,0.3519,-1.0715,-0.2030,
9.069769,3.3689,-0.3674,3.8355,-0.8483,-0.3268,-0.1355,
9.123490,3.3689,-0.3674,3.8355,-0.8483,-0.3268,-0.1355,
9.124146,5.4964,0.4326,0.9212,-0.8483,-0.3268,-0.1355,
9.135049,5.4964,0.4326,0.9212,-2.2897,1.3034,0.2451,
9.188691,5.4964,0.4326,0.9212,-2.2897,1.3034,0.2451,
9.189502,2.3955,2.6160,-0.7010,-2.2897,1.3034,0.2451,
9.200313,2.3955,2.6160,-0.7010,-0.8842,1.3040,1.5007,
9.254002,2.3955,2.6160,-0.7010,-0.8842,1.3040,1.5007,
9.255772,1.7133,6.0939,-3.0098,-0.8842,1.3040,1.5007,
9.265455,1.7133,6.0939,-3.0098,-1.6171,2.0962,0.5383,
9.318724,1.7133,6.0939,-3.0098,-1.6171,2.0962,0.5383,
9.319634,-1.7792,-0.2845,-3.7271,-1.6171,2.0962,0.5383,
9.330738,-1.7792,-0.2845,-3.7271,-0.7190,2.2064,0.2679,
9.384970,-1.7792,-0.2845,-3.7271,-0.7190,2.2064,0.2679,
9.385651,-3.5012,-1.3785,-3.9440,-0.7190,2.2064,0.2679,
9.396655,-3.5012,-1.3785,-3.9440,-1.5701,-0.3647,0.1521,
9.451078,-3.5012,-1.3785,-3.9440,-1.5701,-0.3647,0.1521,
9.452050,-4.4053,-3.6792,-4.0951,-1.5701,-0.3647,0.1521,
9.463116,-4.4053,-3.6792,-4.0951,0.0081,1.5276,0.6277,
9.516789,-4.4053,-3.6792,-4.0951,0.0081,1.5276,0.6277,
9.517387,0.4643,-2.5606,4.6802,0.0081,1.5276,0.6277,
9.528852,0.4643,-2.5606,4.6802,1.5250,1.6365,0.1860,
9.581928,0.4643,-2.5606,4.6802,1.5250,1.6365,0.1860,
9.582549,0.2953,1.1868,6.7297,1.5250,1.6365,0.1860,
9.593662,0.2953,1.1868,6.7297,1.1993,-0.3798,-0.0464,
9.646541,0.2953,1.1868,6.7297,1.1993,-0.3798,-0.0464,
9.648242,-0.1083,-4.1289,-0.1175,1.1993,-0.3798,-0.0464,
9.658864,-0.1083,-4.1289,-0.1175,1.7533,-0.8473,0.4927,
9.712300,-0.1083,-4.1289,-0.1175,1.7533,-0.8473,0.4927,
9.714020,2.9779,6.1418,-4.1262,1.7533,-0.8473,0.4927,
9.724859,2.9779,6.1418,-4.1262,-0.0319,-1.6774,-0.7778,
9.778756,2.9779,6.1418,-4.1262,-0.0319,-1.6774,-0.7778,
9.780456,-0.5439,-1.4677,-3.2207,-0.0319,-1.6774,-0.7778,
9.789593,-0.5439,-1.4677,-3.2207,1.3506,0.7726,-0.2709,
9.844605,-0.5439,-1.4677,-3.2207,1.3506,0.7726,-0.2709,
9.846507,0.3517,-0.7864,-2.1108,1.3506,0.7726,-0.2709,
9.855238,0.3517,-0.7864,-2.1108,2.3152,1.2098,-0.4036,
9.909473,0.3517,-0.7864,-2.1108,2.3152,1.2098,-0.4036,
9.911186,-1.1893,-1.7101,-0.9210,2.3152,1.2098,-0.4036,
9.922359,-1.1893,-1.7101,-0.9210,1.6356,0.3564,-0.3065,
9.975477,-1.1893,-1.7101,-0.9210,1.6356,0.3564,-0.3065,
9.978041,-1.6884,-1.6827,1.0624,1.6356,0.3564,-0.3065,
9.986679,-1.6884,-1.6827,1.0624,0.8888,-0.8997,0.1121,
10.039699,-1.6884,-1.6827,1.0624,0.8888,-0.8997,0.1121,
10.040289,-0.2839,0.9705,0.4430,0.8888,-0.8997,0.1121,
10.052139,-0.2839,0.9705,0.4430,0.1113,-1.2529,0.0484,
10.106492,-0.2839,0.9705,0.4430,0.1113,-1.2529,0.0484,
10.108157,2.1037,-0.7053,4.6228,0.1113,-1.2529,0.0484,
10.116826,2.1037,-0.7053,4.6228,-1.0041,-2.2266,0.2572,
10.170300,2.1037,-0.7053,4.6228,-1.0041,-2.2266,0.2572,
10.171345,7.9438,2.2597,0.6912,-1.0041,-2.2266,0.2572,
10.184940,7.9438,2.2597,0.6912,-1.0621,0.9898,0.6605,
10.237601,7.9438,2.2597,0.6912,-1.0621,0.9898,0.6605,
10.238292,0.3483,0.3312,0.3679,-1.0621,0.9898,0.6605,
10.249472,0.3483,0.3312,0.3679,-2.3086,1.0701,1.5792,
10.301739,0.3483,0.3312,0.3679,-2.3086,1.0701,1.5792,
10.303158,0.2581,7.8699,-1.6945,-2.3086,1.0701,1.5792,
10.313501,0.2581,7.8699,-1.6945,-1.1796,1.7376,0.4242,
10.366481,0.2581,7.8699,-1.6945,-1.1796,1.7376,0.4242,
10.368286,-2.5153,0.4915,-2.6223,-1.1796,1.7376,0.4242,
10.378632,-2.5153,0.4915,-2.6223,-1.6489,2.2338,0.0240,
10.432163,-2.5153,0.4915,-2.6223,-1.6489,2.2338,0.0240,
10.433941,-2.7588,-2.0144,-1.0596,-1.6489,2.2338,0.0240,
10.444491,-2.7588,-2.0144,-1.0596,-1.7162,-0.0110,-0.2201,
10.497562,-2.7588,-2.0144,-1.0596,-1.7162,-0.0110,-0.2201,
10.499063,-3.3211,-2.2213,-2.1194,-1.7162,-0.0110,-0.2201,
10.509289,-3.3211,-2.2213,-2.1194,0.5415,-0.0629,-0.0924,
10.562581,-3.3211,-2.2213,-2.1194,0.5415,-0.0629,-0.0924,
10.563579,-3.1573,-2.5799,-2.9163,0.5415,-0.0629,-0.0924,
10.574273,-3.1573,-2.5799,-2.9163,1.0850,0.5319,0.4154,
10.628927,-3.1573,-2.5799,-2.9163,1.0850,0.5319,0.4154,
10.630067,4.7666,0.8532,7.3322,1.0850,0.5319,0.4154,
10.640053,4.7666,0.8532,7.3322,0.8013,0.6758,0.2526,
10.694249,4.7666,0.8532,7.3322,0.8013,0.6758,0.2526,
10.694890,0.9739,-0.2950,2.5538,0.8013,0.6758,0.2526,
10.706335,0.9739,-0.2950,2.5538,1.0631,0.0496,0.0278,
10.760310,0.9739,-0.2950,2.5538,1.0631,0.0496,0.0278,
10.762168,-0.2825,3.1146,-3.7721,1.0631,0.0496,0.0278,
10.772005,-0.2825,3.1146,-3.7721,0.3923,-1.3489,-0.6550,
10.826929,-0.2825,3.1146,-3.7721,0.3923,-1.3489,-0.6550,
10.827606,-2.3511,-0.6214,-3.2936,0.3923,-1.3489,-0.6550,
10.836779,-2.3511,-0.6214,-3.2936,0.8309,-0.7298,-0.3621,
10.892423,-2.3511,-0.6214,-3.2936,0.8309,-0.7298,-0.3621,
10.894565,0.8582,0.5156,-3.3078,0.8309,-0.7298,-0.3621,
10.903051,0.8582,0.5156,-3.3078,1.6794,0.5667,-0.3407,
10.957051,0.8582,0.5156,-3.3078,1.6794,0.5667,-0.3407,
10.957824,-0.5239,-1.0436,2.1015,1.6794,0.5667,-0.3407,
10.969588,-0.5239,-1.0436,2.1015,0.3955,-0.3925,-0.3050,
11.023299,-0.5239,-1.0436,2.1015,0.3955,-0.3925,-0.3050,
11.024459,0.8257,-1.4783,0.1203,0.3955,-0.3925,-0.3050,
11.034070,0.8257,-1.4783,0.1203,0.8425,-0.9852,-0.3262,
11.087674,0.8257,-1.4783,0.1203,0.8425,-0.9852,-0.3262,
11.089783,0.6031,-0.7524,3.6053,0.8425,-0.9852,-0.3262,
11.099299,0.6031,-0.7524,3.6053,0.9815,-0.6790,-0.5008,
11.153716,0.6031,-0.7524,3.6053,0.9815,-0.6790,-0.5008,
11.154939,0.9800,-0.7477,2.3525,0.9815,-0.6790,-0.5008,
11.164962,0.9800,-0.7477,2.3525,0.5507,0.3164,-0.4359,
11.218906,0.9800,-0.7477,2.3525,0.5507,0.3164,-0.4359,
11.219577,3.3959,2.4000,2.0554,0.5507,0.3164,-0.4359,
11.232915,3.3959,2.4000,2.0554,-1.0250,0.4878,0.0157,
11.282441,3.3959,2.4000,2.0554,-1.0250,0.4878,0.0157,
11.282979,3.0773,-0.2280,-1.5233,-1.0250,0.4878,0.0157,
11.295531,3.0773,-0.2280,-1.5233,-2.3627,1.6846,0.7498,
11.349582,3.0773,-0.2280,-1.5233,-2.3627,1.6846,0.7498,
11.350372,2.2911,4.0753,-1.7776,-2.3627,1.6846,0.7498,
11.360487,2.2911,4.0753,-1.7776,-1.2915,0.2850,1.3386,
11.415987,2.2911,4.0753,-1.7776,-1.2915,0.2850,1.3386,
11.416625,-0.5737,0.9927,-2.4448,-1.2915,0.2850,1.3386,
11.426110,-0.5737,0.9927,-2.4448,-1.6845,1.0821,0.5870,
11.481265,-0.5737,0.9927,-2.4448,-1.6845,1.0821,0.5870,
11.481827,-3.3650,-2.4560,-3.0014,-1.6845,1.0821,0.5870,
11.491876,-3.3650,-2.4560,-3.0014,-0.2654,1.1582,0.5977,
11.546855,-3.3650,-2.4560,-3.0014,-0.2654,1.1582,0.5977,
11.547481,-2.7527,-1.9842,-2.6637,-0.2654,1.1582,0.5977,
11.557513,-2.7527,-1.9842,-2.6637,0.8213,0.9942,0.8964,
11.612312,-2.7527,-1.9842,-2.6637,0.8213,0.9942,0.8964,
11.613546,-2.2153,-2.8328,1.6313,0.8213,0.9942,0.8964,
11.622953,-2.2153,-2.8328,1.6313,0.9591,1.3375,-0.1003,
11.677667,-2.2153,-2.8328,1.6313,0.9591,1.3375,-0.1003,
11.678597,2.1439,3.5333,6.4710,0.9591,1.3375,-0.1003,
11.687929,2.1439,3.5333,6.4710,0.2825,1.2894,0.2245,
11.744008,2.1439,3.5333,6.4710,0.2825,1.2894,0.2245,
11.744910,2.5702,-1.1102,1.9098,0.2825,1.2894,0.2245,
11.753219,2.5702,-1.1102,1.9098,0.4009,-1.4558,0.9386,
11.808325,2.5702,-1.1102,1.9098,0.4009,-1.4558,0.9386,
11.809532,1.8401,0.0291,-3.8124,0.4009,-1.4558,0.9386,
11.820439,1.8401,0.0291,-3.8124,1.7814,0.8642,-1.7707,
11.874378,1.8401,0.0291,-3.8124,1.7814,0.8642,-1.7707,
11.875575,-2.2271,0.0440,-4.5569,1.7814,0.8642,-1.7707,
11.885308,-2.2271,0.0440,-4.5569,1.2500,-0.1455,-0.1617,
11.938352,-2.2271,0.0440,-4.5569,1.2500,-0.1455,-0.1617,
11.939579,-2.1380,-1.4442,-3.3142,1.2500,-0.1455,-0.1617,
11.950701,-2.1380,-1.4442,-3.3142,1.0211,-1.2565,0.1758,
12.003319,-2.1380,-1.4442,-3.3142,1.0211,-1.2565,0.1758,
12.004440,-0.1262,-0.3579,-2.3889,1.0211,-1.2565,0.1758,
12.017399,-0.1262,-0.3579,-2.3889,1.0292,0.4580,-0.4913,
12.070162,-0.1262,-0.3579,-2.3889,1.0292,0.4580,-0.4913,
12.071954,2.0878,-0.8435,4.5851,1.0292,0.4580,-0.4913,
12.082264,2.0878,-0.8435,4.5851,0.8755,-1.1164,-0.5191,
12.136538,2.0878,-0.8435,4.5851,0.8755,-1.1164,-0.5191,
12.137426,2.1824,-1.5841,0.2107,0.8755,-1.1164,-0.5191,
12.148204,2.1824,-1.5841,0.2107,1.4306,1.0212,-0.7343,
12.199088,2.1824,-1.5841,0.2107,1.4306,1.0212,-0.7343,
12.199669,2.1625,-0.6990,4.1918,1.4306,1.0212,-0.7343,
12.211166,2.1625,-0.6990,4.1918,0.4212,0.1077,-0.4754,
12.266331,2.1625,-0.6990,4.1918,0.4212,0.1077,-0.4754,
12.267295,6.4026,2.9356,0.3976,0.4212,0.1077,-0.4754,
12.277731,6.4026,2.9356,0.3976,-1.1006,1.9134,0.6122,
12.332165,6.4026,2.9356,0.3976,-1.1006,1.9134,0.6122,
12.334543,0.8578,0.8041,-0.4517,-1.1006,1.9134,0.6122,
12.342951,0.8578,0.8041,-0.4517,-1.6244,1.2565,1.1124,
12.396011,0.8578,0.8041,-0.4517,-1.6244,1.2565,1.1124,
12.396995,0.5916,6.5735,-4.2796,-1.6244,1.2565,1.1124,
12.407837,0.5916,6.5735,-4.2796,-1.3393,1.0886,1.1770,
12.465332,0.5916,6.5735,-4.2796,-1.3393,1.0886,1.1770,
12.467545,-2.7710,0.5324,-3.1271,-1.3393,1.0886,1.1770,
12.474314,-2.7710,0.5324,-3.1271,-1.8190,1.0452,0.3624,
12.529599,-2.7710,0.5324,-3.1271,-1.8190,1.0452,0.3624,
12.531717,-4.5182,-3.1214,-3.2479,-1.8190,1.0452,0.3624,
12.539883,-4.5182,-3.1214,-3.2479,-0.4556,1.3285,0.2524,
12.593860,-4.5182,-3.1214,-3.2479,-0.4556,1.3285,0.2524,
12.595500,-3.1849,-3.5933,-2.0926,-0.4556,1.3285,0.2524,
12.605248,-3.1849,-3.5933,-2.0926,0.4879,1.2384,0.4093,
12.660030,-3.1849,-3.5933,-2.0926,0.4879,1.2384,0.4093,
12.662043,-0.9953,-0.6851,2.1110,0.4879,1.2384,0.4093,
12.670148,-0.9953,-0.6851,2.1110,1.2268,0.7917,0.0770,
12.724401,-0.9953,-0.6851,2.1110,1.2268,0.7917,0.0770,
12.725663,2.0831,2.6774,5.1871,1.2268,0.7917,0.0770,
12.735525,2.0831,2.6774,5.1871,0.3019,-0.0892,0.0105,
12.790039,2.0831,2.6774,5.1871,0.3019,-0.0892,0.0105,
12.790528,1.1006,1.6791,0.1558,0.3019,-0.0892,0.0105,
12.801637,1.1006,1.6791,0.1558,0.8248,-1.9664,0.5501,
12.854644,1.1006,1.6791,0.1558,0.8248,-1.9664,0.5501,
12.855245,-1.5219,0.0242,-4.3325,0.8248,-1.9664,0.5501,
12.867514,-1.5219,0.0242,-4.3325,0.4433,-0.1781,-1.2239,
12.921156,-1.5219,0.0242,-4.3325,0.4433,-0.1781,-1.2239,
12.921795,-1.2460,1.2079,-4.0747,0.4433,-0.1781,-1.2239,
12.932280,-1.2460,1.2079,-4.0747,1.0229,0.1555,-0.2724,
12.986104,-1.2460,1.2079,-4.0747,1.0229,0.1555,-0.2724,
12.987544,0.6312,-1.3306,-2.3779,1.0229,0.1555,-0.2724,
12.997602,0.6312,-1.3306,-2.3779,1.6310,0.6680,-0.3487,
13.052633,0.6312,-1.3306,-2.3779,1.6310,0.6680,-0.3487,
13.054459,-0.2553,-0.6551,0.6781,1.6310,0.6680,-0.3487,
13.063886,-0.2553,-0.6551,0.6781,0.4325,-1.2130,-0.1626,
13.116787,-0.2553,-0.6551,0.6781,0.4325,-1.2130,-0.1626,
13.118607,0.3900,-1.5778,0.5956,0.4325,-1.2130,-0.1626,
13.128469,0.3900,-1.5778,0.5956,0.9836,0.0472,-0.4056,
13.183614,0.3900,-1.5778,0.5956,0.9836,0.0472,-0.4056,
13.185527,1.1613,-0.9659,1.6559,0.9836,0.0472,-0.4056,
13.194526,1.1613,-0.9659,1.6559,1.4369,0.2233,-0.6993,
13.248585,1.1613,-0.9659,1.6559,1.4369,0.2233,-0.6993,
13.251685,2.8924,-1.4123,3.3261,1.4369,0.2233,-0.6993,
13.260040,2.8924,-1.4123,3.3261,0.6355,-1.0088,-0.3734,
13.313539,2.8924,-1.4123,3.3261,0.6355,-1.0088,-0.3734,
13.315009,5.0243,3.1056,4.1185,0.6355,-1.0088,-0.3734,
13.325050,5.0243,3.1056,4.1185,-0.6112,0.7370,0.5825,
13.378363,5.0243,3.1056,4.1185,-0.6112,0.7370,0.5825,
13.379577,1.3659,1.3612,-0.7627,-0.6112,0.7370,0.5825,
13.390719,1.3659,1.3612,-0.7627,-1.4311,1.8882,1.0803,
13.445751,1.3659,1.3612,-0.7627,-1.4311,1.8882,1.0803,
13.446529,0.7796,2.7754,-2.1560,-1.4311,1.8882,1.0803,
13.456700,0.7796,2.7754,-2.1560,-0.8309,1.5502,1.2197,
13.510342,0.7796,2.7754,-2.1560,-0.8309,1.5502,1.2197,
13.512130,-1.6552,2.8677,-3.1244,-0.8309,1.5502,1.2197,
13.522021,-1.6552,2.8677,-3.1244,-2.0495,0.7063,0.7362,
13.575771,-1.6552,2.8677,-3.1244,-2.0495,0.7063,0.7362,
13.577585,-4.1052,-0.9067,-3.1448,-2.0495,0.7063,0.7362,
13.587225,-4.1052,-0.9067,-3.1448,-1.6252,0.7256,0.2039,
13.640461,-4.1052,-0.9067,-3.1448,-1.6252,0.7256,0.2039,
13.641953,-3.2600,-2.0352,-2.8880,-1.6252,0.7256,0.2039,
13.652113,-3.2600,-2.0352,-2.8880,-0.3254,2.7200,0.1973,
13.706396,-3.2600,-2.0352,-2.8880,-0.3254,2.7200,0.1973,
13.707405,-1.9710,-2.2910,-2.2016,-0.3254,2.7200,0.1973,
13.718236,-1.9710,-2.2910,-2.2016,0.4875,1.4978,0.2375,
13.771717,-1.9710,-2.2910,-2.2016,0.4875,1.4978,0.2375,
13.772885,1.0742,-0.1026,7.0169,0.4875,1.4978,0.2375,
13.783483,1.0742,-0.1026,7.0169,1.4473,-0.3929,0.6406,
13.837558,1.0742,-0.1026,7.0169,1.4473,-0.3929,0.6406,
13.839382,1.6452,0.1796,1.0608,1.4473,-0.3929,0.6406,
13.850182,1.6452,0.1796,1.0608,1.4681,1.0521,0.1425,
13.905423,1.6452,0.1796,1.0608,1.4681,1.0521,0.1425,
13.907704,-1.0119,4.5112,-2.3608,1.4681,1.0521,0.1425,
13.915023,-1.0119,4.5112,-2.3608,0.4395,-1.3741,-1.2117,
13.969801,-1.0119,4.5112,-2.3608,0.4395,-1.3741,-1.2117,
13.970698,-2.3586,0.4296,-3.2278,0.4395,-1.3741,-1.2117,
13.981476,-2.3586,0.4296,-3.2278,0.9650,-0.9262,0.0215,
14.035710,-2.3586,0.4296,-3.2278,0.9650,-0.9262,0.0215,
14.039000,1.9303,-1.0771,-4.2521,0.9650,-0.9262,0.0215,
14.045101,1.9303,-1.0771,-4.2521,1.6266,0.4157,-0.6061,
14.100703,1.9303,-1.0771,-4.2521,1.6266,0.4157,-0.6061,
14.102468,0.6718,-1.6915,1.5306,1.6266,0.4157,-0.6061,
14.110778,0.6718,-1.6915,1.5306,0.2315,-1.3914,-0.3392,
14.164629,0.6718,-1.6915,1.5306,0.2315,-1.3914,-0.3392,
14.166080,0.2350,-2.0139,0.9047,0.2315,-1.3914,-0.3392,
14.176588,0.2350,-2.0139,0.9047,0.6597,-1.6402,-0.1961,
14.229819,0.2350,-2.0139,0.9047,0.6597,-1.6402,-0.1961,
14.230852,2.3407,-0.7315,1.9132,0.6597,-1.6402,-0.1961,
14.241308,2.3407,-0.7315,1.9132,0.1142,-1.1861,-0.3047,
14.294968,2.3407,-0.7315,1.9132,0.1142,-1.1861,-0.3047,
14.296182,3.4990,-0.5471,1.9446,0.1142,-1.1861,-0.3047,
14.308535,3.4990,-0.5471,1.9446,0.4821,1.1043,-0.0275,
14.361301,3.4990,-0.5471,1.9446,0.4821,1.1043,-0.0275,
14.362470,3.4174,3.6483,0.1052,0.4821,1.1043,-0.0275,
14.372872,3.4174,3.6483,0.1052,-1.3241,1.9722,0.2923,
14.425832,3.4174,3.6483,0.1052,-1.3241,1.9722,0.2923,
14.426448,1.3444,-0.5307,-2.4853,-1.3241,1.9722,0.2923,
14.437896,1.3444,-0.5307,-2.4853,-0.9285,3.8788,0.8807,
14.492126,1.3444,-0.5307,-2.4853,-0.9285,3.8788,0.8807,
14.494136,3.4320,2.3064,-3.2829,-0.9285,3.8788,0.8807,
14.503485,3.4320,2.3064,-3.2829,-1.2614,0.3432,1.1113,
14.558412,3.4320,2.3064,-3.2829,-1.2614,0.3432,1.1113,
14.559049,-1.1123,-0.8304,-3.9550,-1.2614,0.3432,1.1113,
14.569654,-1.1123,-0.8304,-3.9550,-1.4597,0.6738,1.1981,
14.623924,-1.1123,-0.8304,-3.9550,-1.4597,0.6738,1.1981,
14.625768,-2.3598,-1.1403,-2.2385,-1.4597,0.6738,1.1981,
14.634660,-2.3598,-1.1403,-2.2385,1.0663,2.5577,1.2127,
14.689833,-2.3598,-1.1403,-2.2385,1.0663,2.5577,1.2127,
14.690434,-1.9254,-1.0621,-1.6638,1.0663,2.5577,1.2127,
14.699740,-1.9254,-1.0621,-1.6638,2.2090,0.6509,0.6822,
14.754151,-1.9254,-1.0621,-1.6638,2.2090,0.6509,0.6822,
14.754781,1.4009,2.0432,2.7733,2.2090,0.6509,0.6822,
14.766328,1.4009,2.0432,2.7733,0.3097,2.4755,0.2120,
14.819940,1.4009,2.0432,2.7733,0.3097,2.4755,0.2120,
14.821749,-1.0193,-1.6549,0.9815,0.3097,2.4755,0.2120,
14.832284,-1.0193,-1.6549,0.9815,1.6020,-0.1011,0.2243,
14.886003,-1.0193,-1.6549,0.9815,1.6020,-0.1011,0.2243,
14.886924,5.2054,4.0297,-2.0072,1.6020,-0.1011,0.2243,
14.898398,5.2054,4.0297,-2.0072,0.4740,-1.5053,0.4030,
14.952057,5.2054,4.0297,-2.0072,0.4740,-1.5053,0.4030,
14.952673,-1.7649,-2.2516,-1.7395,0.4740,-1.5053,0.4030,
14.961889,-1.7649,-2.2516,-1.7395,-0.1384,-0.7350,-1.0737,
15.016948,-1.7649,-2.2516,-1.7395,-0.1384,-0.7350,-1.0737,
15.019445,-1.9083,1.2386,-1.0092,-0.1384,-0.7350,-1.0737,
15.028234,-1.9083,1.2386,-1.0092,1.6988,0.7561,0.0144,
15.084778,-1.9083,1.2386,-1.0092,1.6988,0.7561,0.0144,
15.085989,0.0074,-1.4927,-0.1065,1.6988,0.7561,0.0144,
15.095891,0.0074,-1.4927,-0.1065,1.5435,0.3902,-0.5160,
15.146830,0.0074,-1.4927,-0.1065,1.5435,0.3902,-0.5160,
15.148300,0.0779,-0.9583,0.1466,1.5435,0.3902,-0.5160,
15.158624,0.0779,-0.9583,0.1466,1.2410,0.0493,-0.3732,
15.212587,0.0779,-0.9583,0.1466,1.2410,0.0493,-0.3732,
15.213442,0.1272,-1.2713,0.4306,1.2410,0.0493,-0.3732,
15.224881,0.1272,-1.2713,0.4306,1.0745,-0.4383,-0.4922,
15.278493,0.1272,-1.2713,0.4306,1.0745,-0.4383,-0.4922,
15.279717,1.0941,-0.0492,1.3575,1.0745,-0.4383,-0.4922,
15.289398,1.0941,-0.0492,1.3575,1.0179,-0.3728,-0.5130,
15.343654,1.0941,-0.0492,1.3575,1.0179,-0.3728,-0.5130,
15.344810,2.8158,0.4111,-0.2508,1.0179,-0.3728,-0.5130,
15.355252,2.8158,0.4111,-0.2508,0.3082,0.0304,0.0860,
15.409579,2.8158,0.4111,-0.2508,0.3082,0.0304,0.0860,
15.410241,4.8902,2.6603,0.6596,0.3082,0.0304,0.0860,
15.422206,4.8902,2.6603,0.6596,-1.2543,-0.0822,1.0128,
15.474921,4.8902,2.6603,0.6596,-1.2543,-0.0822,1.0128,
15.475583,-0.8564,0.6779,-0.0267,-1.2543,-0.0822,1.0128,
15.486235,-0.8564,0.6779,-0.0267,-3.1415,1.2993,1.2937,
15.540052,-0.8564,0.6779,-0.0267,-3.1415,1.2993,1.2937,
15.540710,2.2162,3.6603,-1.6929,-3.1415,1.2993,1.2937,
15.551349,2.2162,3.6603,-1.6929,-0.9151,0.9497,1.2785,
15.605616,2.2162,3.6603,-1.6929,-0.9151,0.9497,1.2785,
15.606305,-1.2935,1.4502,-2.6466,-0.9151,0.9497,1.2785,
15.618490,-1.2935,1.4502,-2.6466,-1.5261,1.7223,-0.0970,
15.672619,-1.2935,1.4502,-2.6466,-1.5261,1.7223,-0.0970,
15.673384,-4.5978,-1.1525,-3.3885,-1.5261,1.7223,-0.0970,
15.683085,-4.5978,-1.1525,-3.3885,-1.4091,-0.6710,-0.4213,
15.736368,-4.5978,-1.1525,-3.3885,-1.4091,-0.6710,-0.4213,
15.738157,-4.9986,-2.4773,-3.2835,-1.4091,-0.6710,-0.4213,
15.748059,-4.9986,-2.4773,-3.2835,0.3083,0.8346,0.0608,
15.801039,-4.9986,-2.4773,-3.2835,0.3083,0.8346,0.0608,
15.802128,0.8854,1.2713,6.3733,0.3083,0.8346,0.0608,
15.814031,0.8854,1.2713,6.3733,1.1483,-0.1790,1.2121,
15.866118,0.8854,1.2713,6.3733,1.1483,-0.1790,1.2121,
15.867206,0.1273,-0.5378,1.1033,1.1483,-0.1790,1.2121,
15.878718,0.1273,-0.5378,1.1033,1.3893,-1.7568,-0.2350,
15.932129,0.1273,-0.5378,1.1033,1.3893,-1.7568,-0.2350,
15.933375,1.7113,3.3285,0.7285,1.3893,-1.7568,-0.2350,
15.944337,1.7113,3.3285,0.7285,0.7622,-1.5902,-0.0466,
15.997928,1.7113,3.3285,0.7285,0.7622,-1.5902,-0.0466,
15.998578,-2.8680,0.1611,-0.6388,0.7622,-1.5902,-0.0466,
16.009183,-2.8680,0.1611,-0.6388,-0.0188,-1.2124,-1.2433,
16.063414,-2.8680,0.1611,-0.6388,-0.0188,-1.2124,-1.2433,
16.064525,-3.4956,1.2294,-2.2525,-0.0188,-1.2124,-1.2433,
16.074656,-3.4956,1.2294,-2.2525,0.9212,-1.1693,-0.3774,
16.129270,-3.4956,1.2294,-2.2525,0.9212,-1.1693,-0.3774,
16.130809,-1.8818,-1.3654,-2.9926,0.9212,-1.1693,-0.3774,
16.140255,-1.8818,-1.3654,-2.9926,0.1141,-0.8725,-0.5797,
16.196246,-1.8818,-1.3654,-2.9926,0.1141,-0.8725,-0.5797,
16.198077,0.2159,0.3759,-1.2804,0.1141,-0.8725,-0.5797,
16.206629,0.2159,0.3759,-1.2804,0.2698,-1.2985,-0.1990,
16.260786,0.2159,0.3759,-1.2804,0.2698,-1.2985,-0.1990,
16.262514,2.6439,-1.3342,1.6524,0.2698,-1.2985,-0.1990,
16.271435,2.6439,-1.3342,1.6524,0.1310,-2.4134,-0.4777,
16.325772,2.6439,-1.3342,1.6524,0.1310,-2.4134,-0.4777,
16.327159,3.8043,-0.7314,1.3764,0.1310,-2.4134,-0.4777,
16.337984,3.8043,-0.7314,1.3764,-0.6272,-3.2286,-0.1318,
16.391349,3.8043,-0.7314,1.3764,-0.6272,-3.2286,-0.1318,
16.393758,3.5854,0.3583,1.7665,-0.6272,-3.2286,-0.1318,
16.402596,3.5854,0.3583,1.7665,0.0487,1.1106,0.1752,
16.455697,3.5854,0.3583,1.7665,0.0487,1.1106,0.1752,
16.456382,2.6275,1.6705,1.6691,0.0487,1.1106,0.1752,
16.469392,2.6275,1.6705,1.6691,-1.1967,0.7730,0.7851,
16.522364,2.6275,1.6705,1.6691,-1.1967,0.7730,0.7851,
16.523925,-1.7216,1.1507,-0.4296,-1.1967,0.7730,0.7851,
16.534467,-1.7216,1.1507,-0.4296,-2.5869,1.6941,1.8889,
16.588473,-1.7216,1.1507,-0.4296,-2.5869,1.6941,1.8889,
16.589020,1.3124,5.7303,-2.6466,-2.5869,1.6941,1.8889,
16.599848,1.3124,5.7303,-2.6466,-1.8703,0.2228,0.7845,
16.652841,1.3124,5.7303,-2.6466,-1.8703,0.2228,0.7845,
16.653909,-3.3619,-0.6649,-1.3899,-1.8703,0.2228,0.7845,
16.665380,-3.3619,-0.6649,-1.3899,-2.6052,0.2082,-0.5470,
16.719791,-3.3619,-0.6649,-1.3899,-2.6052,0.2082,-0.5470,
16.721664,-5.3939,-2.4094,-1.8928,-2.6052,0.2082,-0.5470,
16.730548,-5.3939,-2.4094,-1.8928,-0.4192,-0.2515,-0.1139,
16.783460,-5.3939,-2.4094,-1.8928,-0.4192,-0.2515,-0.1139,
16.784587,-3.1942,-3.3681,-1.9207,-0.4192,-0.2515,-0.1139,
16.795245,-3.1942,-3.3681,-1.9207,1.1080,0.4734,-0.0458,
16.849433,-3.1942,-3.3681,-1.9207,1.1080,0.4734,-0.0458,
16.850032,1.8918,1.4567,4.4126,1.1080,0.4734,-0.0458,
16.860228,1.8918,1.4567,4.4126,0.7401,-0.1145,0.9380,
16.914880,1.8918,1.4567,4.4126,0.7401,-0.1145,0.9380,
16.916655,4.2063,1.7561,4.9240,0.7401,-0.1145,0.9380,
16.926450,4.2063,1.7561,4.9240,0.1345,-0.9274,0.0683,
16.981814,4.2063,1.7561,4.9240,0.1345,-0.9274,0.0683,
16.983364,0.5739,2.2737,-4.5383,0.1345,-0.9274,0.0683,
16.993222,0.5739,2.2737,-4.5383,0.7668,0.7133,-1.0686,
17.046898,0.5739,2.2737,-4.5383,0.7668,0.7133,-1.0686,
17.049308,-2.6271,-1.3598,-1.9658,0.7668,0.7133,-1.0686,
17.058514,-2.6271,-1.3598,-1.9658,0.7575,0.2949,-0.8464,
17.111842,-2.6271,-1.3598,-1.9658,0.7575,0.2949,-0.8464,
17.113336,-1.2530,-0.5680,-2.1108,0.7575,0.2949,-0.8464,
17.123278,-1.2530,-0.5680,-2.1108,1.6906,-0.0899,-0.2213,
17.177538,-1.2530,-0.5680,-2.1108,1.6906,-0.0899,-0.2213,
17.178908,-1.1305,-1.2401,0.1933,1.6906,-0.0899,-0.2213,
17.189777,-1.1305,-1.2401,0.1933,0.9775,-0.1374,-0.5296,
17.244264,-1.1305,-1.2401,0.1933,0.9775,-0.1374,-0.5296,
17.244962,0.3572,-0.5556,0.4827,0.9775,-0.1374,-0.5296,
17.253146,0.3572,-0.5556,0.4827,0.1419,-0.8131,-0.5930,
17.308998,0.3572,-0.5556,0.4827,0.1419,-0.8131,-0.5930,
17.310868,1.4644,-1.2378,0.3890,0.1419,-0.8131,-0.5930,
17.320343,1.4644,-1.2378,0.3890,0.6745,0.1518,-0.7718,
17.372790,1.4644,-1.2378,0.3890,0.6745,0.1518,-0.7718,
17.374420,2.0734,-0.2194,1.3921,0.6745,0.1518,-0.7718,
17.385794,2.0734,-0.2194,1.3921,0.9543,0.0744,-0.5554,
17.439113,2.0734,-0.2194,1.3921,0.9543,0.0744,-0.5554,
17.441463,3.8235,1.6719,0.1548,0.9543,0.0744,-0.5554,
17.450964,3.8235,1.6719,0.1548,-0.8057,0.3961,0.3870,
17.505870,3.8235,1.6719,0.1548,-0.8057,0.3961,0.3870,
17.506475,2.7528,-0.6069,-0.5732,-0.8057,0.3961,0.3870,
17.515471,2.7528,-0.6069,-0.5732,-2.6793,1.3943,0.9273,
17.568999,2.7528,-0.6069,-0.5732,-2.6793,1.3943,0.9273,
17.569940,0.9673,1.9355,-1.3388,-2.6793,1.3943,0.9273,
17.581307,0.9673,1.9355,-1.3388,-0.6148,1.7791,1.6121,
17.636781,0.9673,1.9355,-1.3388,-0.6148,1.7791,1.6121,
17.638744,-0.3452,0.9052,-2.8617,-0.6148,1.7791,1.6121,
17.648434,-0.3452,0.9052,-2.8617,-0.9727,0.8716,0.9232,
17.703126,-0.3452,0.9052,-2.8617,-0.9727,0.8716,0.9232,
17.703944,-2.8001,-0.9818,-2.9649,-0.9727,0.8716,0.9232,
17.712631,-2.8001,-0.9818,-2.9649,0.0790,1.4051,0.6727,
17.768947,-2.8001,-0.9818,-2.9649,0.0790,1.4051,0.6727,
17.770119,-2.2782,-1.6771,-2.7084,0.0790,1.4051,0.6727,
17.778559,-2.2782,-1.6771,-2.7084,1.1584,1.7179,0.2233,
17.835151,-2.2782,-1.6771,-2.7084,1.1584,1.7179,0.2233,
17.836215,-1.6548,0.2474,-2.3469,1.1584,1.7179,0.2233,
17.844845,-1.6548,0.2474,-2.3469,0.2705,2.3495,0.0287,
17.897632,-1.6548,0.2474,-2.3469,0.2705,2.3495,0.0287,
17.899223,-0.3974,0.6655,5.2925,0.2705,2.3495,0.0287,
17.909187,-0.3974,0.6655,5.2925,0.3778,0.1823,0.3897,
17.962592,-0.3974,0.6655,5.2925,0.3778,0.1823,0.3897,
17.963364,2.7567,0.7239,-1.2827,0.3778,0.1823,0.3897,
17.975199,2.7567,0.7239,-1.2827,0.4892,-1.5744,1.4193,
18.028521,2.7567,0.7239,-1.2827,0.4892,-1.5744,1.4193,
18.030346,0.5723,0.3906,-3.0751,0.4892,-1.5744,1.4193,
18.040606,0.5723,0.3906,-3.0751,0.5693,1.3847,-1.8590,
18.094313,0.5723,0.3906,-3.0751,0.5693,1.3847,-1.8590,
18.095128,-2.4721,-0.0692,-2.2694,0.5693,1.3847,-1.8590,
18.105939,-2.4721,-0.0692,-2.2694,2.1330,0.4238,-0.2935,
18.161437,-2.4721,-0.0692,-2.2694,2.1330,0.4238,-0.2935,
18.162496,1.8916,-0.0061,-1.5498,2.1330,0.4238,-0.2935,
18.171848,1.8916,-0.0061,-1.5498,0.5663,0.8981,-0.2981,
18.224743,1.8916,-0.0061,-1.5498,0.5663,0.8981,-0.2981,
18.226408,1.5715,-1.8107,1.2917,0.5663,0.8981,-0.2981,
18.236962,1.5715,-1.8107,1.2917,1.3662,0.3152,-0.3755,
18.290571,1.5715,-1.8107,1.2917,1.3662,0.3152,-0.3755,
18.291358,1.5563,-2.8722,0.0011,1.3662,0.3152,-0.3755,
18.303821,1.5563,-2.8722,0.0011,2.1533,1.6298,-0.6384,
18.355512,1.5563,-2.8722,0.0011,2.1533,1.6298,-0.6384,
18.356125,1.8793,-0.7745,2.0610,2.1533,1.6298,-0.6384,
18.367453,1.8793,-0.7745,2.0610,1.4419,0.3254,-0.5261,
18.420061,1.8793,-0.7745,2.0610,1.4419,0.3254,-0.5261,
18.420700,2.3644,-0.0987,0.5320,1.4419,0.3254,-0.5261,
18.432550,2.3644,-0.0987,0.5320,-0.4646,0.8128,-0.0308,
18.486847,2.3644,-0.0987,0.5320,-0.4646,0.8128,-0.0308,
18.488820,4.3070,1.2785,-0.0708,-0.4646,0.8128,-0.0308,
18.498641,4.3070,1.2785,-0.0708,-1.7579,2.2797,0.9204,
18.554105,4.3070,1.2785,-0.0708,-1.7579,2.2797,0.9204,
18.555767,0.9143,1.3841,-1.3120,-1.7579,2.2797,0.9204,
18.563717,0.9143,1.3841,-1.3120,-0.9911,1.1542,1.3065,
18.617532,0.9143,1.3841,-1.3120,-0.9911,1.1542,1.3065,
18.618179,0.7459,1.9163,-4.4448,-0.9911,1.1542,1.3065,
18.629936,0.7459,1.9163,-4.4448,-0.8780,1.1654,1.0172,
18.684892,0.7459,1.9163,-4.4448,-0.8780,1.1654,1.0172,
18.686976,-2.2175,-1.0704,-3.4100,-0.8780,1.1654,1.0172,
18.696748,-2.2175,-1.0704,-3.4100,-0.5111,1.2927,0.5892,
18.750165,-2.2175,-1.0704,-3.4100,-0.5111,1.2927,0.5892,
18.752092,-2.2405,-0.7286,-3.1095,-0.5111,1.2927,0.5892,
18.761561,-2.2405,-0.7286,-3.1095,1.0502,1.5296,0.7115,
18.816543,-2.2405,-0.7286,-3.1095,1.0502,1.5296,0.7115,
18.818339,-0.8964,-1.9430,-1.2798,1.0502,1.5296,0.7115,
18.826569,-0.8964,-1.9430,-1.2798,0.9322,0.4285,0.2596,
18.879156,-0.8964,-1.9430,-1.2798,0.9322,0.4285,0.2596,
18.880593,0.9235,1.4924,4.8699,0.9322,0.4285,0.2596,
18.890857,0.9235,1.4924,4.8699,1.2772,2.3443,-0.2883,
18.945517,0.9235,1.4924,4.8699,1.2772,2.3443,-0.2883,
18.946930,1.7429,0.1094,-0.7625,1.2772,2.3443,-0.2883,
18.956309,1.7429,0.1094,-0.7625,0.6897,-0.7645,0.4533,
19.013000,1.7429,0.1094,-0.7625,0.6897,-0.7645,0.4533,
19.016151,3.1499,1.9822,-3.6575,0.6897,-0.7645,0.4533,
19.022017,3.1499,1.9822,-3.6575,-0.5524,-0.6883,-0.4925,
19.076185,3.1499,1.9822,-3.6575,-0.5524,-0.6883,-0.4925,
19.078078,-1.9121,-0.3373,-0.9305,-0.5524,-0.6883,-0.4925,
19.087713,-1.9121,-0.3373,-0.9305,0.2301,-1.2368,0.0116,
19.141460,-1.9121,-0.3373,-0.9305,0.2301,-1.2368,0.0116,
19.142538,-0.0442,-0.8071,-0.6695,0.2301,-1.2368,0.0116,
19.154060,-0.0442,-0.8071,-0.6695,2.0472,1.0519,-0.5542,
19.207668,-0.0442,-0.8071,-0.6695,2.0472,1.0519,-0.5542,
19.209630,0.3055,-0.9196,0.7377,2.0472,1.0519,-0.5542,
19.218901,0.3055,-0.9196,0.7377,2.0803,1.2747,-0.5076,
19.273612,0.3055,-0.9196,0.7377,2.0803,1.2747,-0.5076,
19.275402,0.0561,-1.5603,0.5479,2.0803,1.2747,-0.5076,
19.284941,0.0561,-1.5603,0.5479,1.3683,0.0406,-0.4012,
19.338222,0.0561,-1.5603,0.5479,1.3683,0.0406,-0.4012,
19.340379,1.9080,-0.8685,1.2420,1.3683,0.0406,-0.4012,
19.349291,1.9080,-0.8685,1.2420,0.7834,-0.5486,-0.4348,
19.404172,1.9080,-0.8685,1.2420,0.7834,-0.5486,-0.4348,
19.406317,2.7362,-0.9362,0.2733,0.7834,-0.5486,-0.4348,
19.415634,2.7362,-0.9362,0.2733,0.7026,0.4574,-0.4256,
19.469204,2.7362,-0.9362,0.2733,0.7026,0.4574,-0.4256,
19.470235,4.9935,1.3742,2.0524,0.7026,0.4574,-0.4256,
19.480608,4.9935,1.3742,2.0524,0.3358,0.6913,0.1788,
19.533708,4.9935,1.3742,2.0524,0.3358,0.6913,0.1788,
19.535142,2.5179,0.8639,0.7458,0.3358,0.6913,0.1788,
19.546506,2.5179,0.8639,0.7458,-1.7054,1.8550,0.6255,
19.600137,2.5179,0.8639,0.7458,-1.7054,1.8550,0.6255,
19.601798,0.0137,2.3274,-0.6712,-1.7054,1.8550,0.6255,
19.610804,0.0137,2.3274,-0.6712,-1.4203,0.2851,1.2498,
19.665766,0.0137,2.3274,-0.6712,-1.4203,0.2851,1.2498,
19.667635,-0.4849,2.3104,-3.5609,-1.4203,0.2851,1.2498,
19.677747,-0.4849,2.3104,-3.5609,-1.5942,1.3647,0.5632,
19.731879,-0.4849,2.3104,-3.5609,-1.5942,1.3647,0.5632,
19.734449,-3.4764,-1.4952,-3.0828,-1.5942,1.3647,0.5632,
19.742308,-3.4764,-1.4952,-3.0828,-1.6171,0.2569,0.0774,
19.800305,-3.4764,-1.4952,-3.0828,-1.6171,0.2569,0.0774,
19.803410,-3.6127,-1.5908,-2.5754,-1.6171,0.2569,0.0774,
19.809355,-3.6127,-1.5908,-2.5754,-0.2929,1.0353,0.5826,
19.863637,-3.6127,-1.5908,-2.5754,-0.2929,1.0353,0.5826,
19.866100,-1.9920,-2.1220,-1.2431,-0.2929,1.0353,0.5826,
19.875422,-1.9920,-2.1220,-1.2431,0.7708,0.7085,0.0666,
19.927545,-1.9920,-2.1220,-1.2431,0.7708,0.7085,0.0666,
19.929323,2.4677,1.1610,6.6308,0.7708,0.7085,0.0666,
19.940151,2.4677,1.1610,6.6308,0.1961,0.2608,0.3149,
19.992959,2.4677,1.1610,6.6308,0.1961,0.2608,0.3149,
19.995099,1.9744,0.9751,4.0411,0.1961,0.2608,0.3149,
20.004200,1.9744,0.9751,4.0411,1.0243,-0.9497,0.6901,
20.057473,1.9744,0.9751,4.0411,1.0243,-0.9497,0.6901,
20.059293,0.3765,1.5234,-1.8935,1.0243,-0.9497,0.6901,
20.069587,0.3765,1.5234,-1.8935,1.3870,-2.0217,-0.7395,
20.125757,0.3765,1.5234,-1.8935,1.3870,-2.0217,-0.7395,
20.127875,-3.9343,-0.8000,-4.1851,1.3870,-2.0217,-0.7395,
20.135098,-3.9343,-0.8000,-4.1851,0.3625,-0.7404,-0.9453,
20.190821,-3.9343,-0.8000,-4.1851,0.3625,-0.7404,-0.9453,
20.192924,-1.8719,-0.2229,-2.5103,0.3625,-0.7404,-0.9453,
20.202098,-1.8719,-0.2229,-2.5103,0.9754,-0.2637,-0.2132,
20.255052,-1.8719,-0.2229,-2.5103,0.9754,-0.2637,-0.2132,
20.255854,1.0374,-1.0004,-0.7796,0.9754,-0.2637,-0.2132,
20.266319,1.0374,-1.0004,-0.7796,0.8425,0.1042,-0.6979,
20.320494,1.0374,-1.0004,-0.7796,0.8425,0.1042,-0.6979,
20.321281,1.3324,-1.1374,1.3802,0.8425,0.1042,-0.6979,
20.331576,1.3324,-1.1374,1.3802,0.1297,-1.4893,-0.3593,
20.386474,1.3324,-1.1374,1.3802,0.1297,-1.4893,-0.3593,
20.387481,0.0927,-1.2470,0.3546,0.1297,-1.4893,-0.3593,
20.397050,0.0927,-1.2470,0.3546,1.2039,0.2969,-0.4559,
20.450498,0.0927,-1.2470,0.3546,1.2039,0.2969,-0.4559,
20.451604,1.0173,0.2874,3.3600,1.2039,0.2969,-0.4559,
20.462742,1.0173,0.2874,3.3600,0.8560,-0.7650,-0.4548,
20.516852,1.0173,0.2874,3.3600,0.8560,-0.7650,-0.4548,
20.518136,4.5373,0.3843,1.8140,0.8560,-0.7650,-0.4548,
20.528822,4.5373,0.3843,1.8140,-0.8630,-0.4736,0.2819,
20.581753,4.5373,0.3843,1.8140,-0.8630,-0.4736,0.2819,
20.582875,3.1017,0.2440,0.5074,-0.8630,-0.4736,0.2819,
20.593642,3.1017,0.2440,0.5074,-2.5893,0.2607,0.8838,
20.647520,3.1017,0.2440,0.5074,-2.5893,0.2607,0.8838,
20.649958,1.0827,0.9806,-0.4533,-2.5893,0.2607,0.8838,
20.659450,1.0827,0.9806,-0.4533,-0.7940,2.5800,1.4438,
20.713118,1.0827,0.9806,-0.4533,-0.7940,2.5800,1.4438,
20.714214,1.7468,2.9068,-2.3276,-0.7940,2.5800,1.4438,
20.726243,1.7468,2.9068,-2.3276,-0.4662,1.7652,0.5324,
20.778703,1.7468,2.9068,-2.3276,-0.4662,1.7652,0.5324,
20.779819,-2.4649,-0.1589,-2.7521,-0.4662,1.7652,0.5324,
20.790842,-2.4649,-0.1589,-2.7521,-0.9574,0.3697,0.1130,
20.844016,-2.4649,-0.1589,-2.7521,-0.9574,0.3697,0.1130,
20.845832,-4.6052,-0.6787,-4.1045,-0.9574,0.3697,0.1130,
20.855856,-4.6052,-0.6787,-4.1045,-0.1391,1.2483,0.4278,
20.909491,-4.6052,-0.6787,-4.1045,-0.1391,1.2483,0.4278,
20.911009,-3.7279,-2.9697,-3.3098,-0.1391,1.2483,0.4278,
20.920851,-3.7279,-2.9697,-3.3098,-0.2865,1.5792,0.0780,
20.974964,-3.7279,-2.9697,-3.3098,-0.2865,1.5792,0.0780,
20.976396,1.5863,-0.0656,5.9389,-0.2865,1.5792,0.0780,
20.987614,1.5863,-0.0656,5.9389,1.4158,1.7585,0.4021,
21.041474,1.5863,-0.0656,5.9389,1.4158,1.7585,0.4021,
21.043847,1.1950,4.1687,5.9348,1.4158,1.7585,0.4021,
21.051948,1.1950,4.1687,5.9348,0.1132,-1.3086,0.1150,
21.106227,1.1950,4.1687,5.9348,0.1132,-1.3086,0.1150,
21.107847,0.5007,0.7412,0.5428,0.1132,-1.3086,0.1150,
21.116978,0.5007,0.7412,0.5428,0.7770,-1.9742,-0.3228,
21.171314,0.5007,0.7412,0.5428,0.7770,-1.9742,-0.3228,
21.173367,-0.3493,-0.8997,-2.9785,0.7770,-1.9742,-0.3228,
21.182566,-0.3493,-0.8997,-2.9785,0.6888,-0.5492,-0.9652,
21.236186,-0.3493,-0.8997,-2.9785,0.6888,-0.5492,-0.9652,
21.237276,-0.2921,-1.3450,-3.9664,0.6888,-0.5492,-0.9652,
21.247713,-0.2921,-1.3450,-3.9664,1.5623,1.7268,-0.5041,
21.303751,-0.2921,-1.3450,-3.9664,1.5623,1.7268,-0.5041,
21.305507,0.3935,-2.1134,-0.8286,1.5623,1.7268,-0.5041,
21.315389,0.3935,-2.1134,-0.8286,2.3476,0.3593,-0.3004,
21.367956,0.3935,-2.1134,-0.8286,2.3476,0.3593,-0.3004,
21.370034,-0.6260,-0.4719,0.2868,2.3476,0.3593,-0.3004,
21.379354,-0.6260,-0.4719,0.2868,0.9566,-1.1666,0.0307,
21.434554,-0.6260,-0.4719,0.2868,0.9566,-1.1666,0.0307,
21.436116,0.6952,-0.8247,0.8536,0.9566,-1.1666,0.0307,
21.445397,0.6952,-0.8247,0.8536,0.5680,-0.7648,-0.1526,
21.500084,0.6952,-0.8247,0.8536,0.5680,-0.7648,-0.1526,
21.502066,0.6076,0.0996,1.6934,0.5680,-0.7648,-0.1526,
21.512458,0.6076,0.0996,1.6934,1.0241,-0.7413,-0.1907,
21.564972,0.6076,0.0996,1.6934,1.0241,-0.7413,-0.1907,
21.567018,2.3598,0.5677,1.0875,1.0241,-0.7413,-0.1907,
21.577157,2.3598,0.5677,1.0875,-0.2900,-0.4314,0.0710,
21.630738,2.3598,0.5677,1.0875,-0.2900,-0.4314,0.0710,
21.632646,6.1341,2.6234,2.5034,-0.2900,-0.4314,0.0710,
21.641729,6.1341,2.6234,2.5034,-2.0546,-0.4055,0.5626,
21.695264,6.1341,2.6234,2.5034,-2.0546,-0.4055,0.5626,
21.696940,0.5168,0.5834,-1.0498,-2.0546,-0.4055,0.5626,
21.706634,0.5168,0.5834,-1.0498,-1.6377,2.0020,1.1530,
21.761453,0.5168,0.5834,-1.0498,-1.6377,2.0020,1.1530,
21.763197,2.6913,4.4904,-3.1825,-1.6377,2.0020,1.1530,
21.772601,2.6913,4.4904,-3.1825,-0.6683,1.8176,0.4126,
21.826584,2.6913,4.4904,-3.1825,-0.6683,1.8176,0.4126,
21.828219,-2.0816,-1.0965,-3.1272,-0.6683,1.8176,0.4126,
21.837592,-2.0816,-1.0965,-3.1272,-1.5430,1.2966,-0.1956,
21.891563,-2.0816,-1.0965,-3.1272,-1.5430,1.2966,-0.1956,
21.892970,-4.4760,-2.4197,-3.4469,-1.5430,1.2966,-0.1956,
21.903920,-4.4760,-2.4197,-3.4469,-1.4186,-0.1191,0.0799,
21.957619,-4.4760,-2.4197,-3.4469,-1.4186,-0.1191,0.0799,
21.959374,-4.2699,-3.4038,-3.2468,-1.4186,-0.1191,0.0799,
21.968786,-4.2699,-3.4038,-3.2468,0.2622,1.1961,0.3848,
22.024036,-4.2699,-3.4038,-3.2468,0.2622,1.1961,0.3848,
22.025832,2.3605,2.2054,8.7464,0.2622,1.1961,0.3848,
22.035160,2.3605,2.2054,8.7464,0.2275,1.8085,0.9862,
22.088693,2.3605,2.2054,8.7464,0.2275,1.8085,0.9862,
22.090674,-1.0876,2.2073,4.3831,0.2275,1.8085,0.9862,
22.099207,-1.0876,2.2073,4.3831,0.8551,-0.6784,0.1852,
22.153984,-1.0876,2.2073,4.3831,0.8551,-0.6784,0.1852,
22.154969,0.4256,0.0054,-0.8199,0.8551,-0.6784,0.1852,
22.166132,0.4256,0.0054,-0.8199,1.2478,-3.0688,-0.1678,
22.218889,0.4256,0.0054,-0.8199,1.2478,-3.0688,-0.1678,
22.220536,-1.9692,-2.1558,-4.9225,1.2478,-3.0688,-0.1678,
22.231024,-1.9692,-2.1558,-4.9225,0.9720,-0.9313,-1.3378,
22.286198,-1.9692,-2.1558,-4.9225,0.9720,-0.9313,-1.3378,
22.287812,-0.5098,-0.0626,-2.4599,0.9720,-0.9313,-1.3378,
22.296154,-0.5098,-0.0626,-2.4599,1.4319,0.3908,-0.4036,
22.350839,-0.5098,-0.0626,-2.4599,1.4319,0.3908,-0.4036,
22.353041,1.8980,-1.7065,0.7809,1.4319,0.3908,-0.4036,
22.362312,1.8980,-1.7065,0.7809,0.3592,-0.5197,-0.4458,
22.414857,1.8980,-1.7065,0.7809,0.3592,-0.5197,-0.4458,
22.416334,1.2904,-1.5113,0.3605,0.3592,-0.5197,-0.4458,
22.427668,1.2904,-1.5113,0.3605,0.8364,-0.2714,-0.1999,
22.481886,1.2904,-1.5113,0.3605,0.8364,-0.2714,-0.1999,
22.483431,0.9110,-0.7045,1.4859,0.8364,-0.2714,-0.1999,
22.492831,0.9110,-0.7045,1.4859,1.5828,-0.0580,-0.4323,
22.546744,0.9110,-0.7045,1.4859,1.5828,-0.0580,-0.4323,
22.548372,2.0315,-0.2890,2.3579,1.5828,-0.0580,-0.4323,
22.557781,2.0315,-0.2890,2.3579,0.3735,-0.7471,-0.1321,
22.613445,2.0315,-0.2890,2.3579,0.3735,-0.7471,-0.1321,
22.615208,4.8488,2.2329,1.5091,0.3735,-0.7471,-0.1321,
22.624112,4.8488,2.2329,1.5091,-0.9551,0.3303,0.7231,
22.679017,4.8488,2.2329,1.5091,-0.9551,0.3303,0.7231,
22.680629,1.0552,1.2058,0.1511,-0.9551,0.3303,0.7231,
22.689281,1.0552,1.2058,0.1511,-2.0285,2.1373,0.8648,
22.744639,1.0552,1.2058,0.1511,-2.0285,2.1373,0.8648,
22.746567,2.5323,4.1814,-2.5860,-2.0285,2.1373,0.8648,
22.754456,2.5323,4.1814,-2.5860,-0.4710,1.9048,0.6623,
22.808290,2.5323,4.1814,-2.5860,-0.4710,1.9048,0.6623,
22.809678,-1.4860,1.2953,-3.4193,-0.4710,1.9048,0.6623,
22.820070,-1.4860,1.2953,-3.4193,-2.2914,0.9459,0.0333,
22.873483,-1.4860,1.2953,-3.4193,-2.2914,0.9459,0.0333,
22.875156,-3.7847,-2.8997,-2.9205,-2.2914,0.9459,0.0333,
22.885197,-3.7847,-2.8997,-2.9205,-1.8960,-0.1161,-0.1701,
22.939157,-3.7847,-2.8997,-2.9205,-1.8960,-0.1161,-0.1701,
22.940095,-3.9955,-3.2918,-2.4654,-1.8960,-0.1161,-0.1701,
22.953590,-3.9955,-3.2918,-2.4654,0.3485,1.3796,0.2691,
23.004423,-3.9955,-3.2918,-2.4654,0.3485,1.3796,0.2691,
23.005974,-1.8256,-1.7297,-0.3093,0.3485,1.3796,0.2691,
23.016656,-1.8256,-1.7297,-0.3093,1.1368,1.4601,0.2037,
23.071234,-1.8256,-1.7297,-0.3093,1.1368,1.4601,0.2037,
23.074157,3.8776,4.7294,8.6052,1.1368,1.4601,0.2037,
23.083460,3.8776,4.7294,8.6052,0.2581,1.7950,0.5429,
23.135187,3.8776,4.7294,8.6052,0.2581,1.7950,0.5429,
23.136558,-1.6155,-2.8839,1.2959,0.2581,1.7950,0.5429,
23.147882,-1.6155,-2.8839,1.2959,0.3656,-1.3095,0.6254,
23.202600,-1.6155,-2.8839,1.2959,0.3656,-1.3095,0.6254,
23.204167,-0.1444,2.5126,-4.0950,0.3656,-1.3095,0.6254,
23.212729,-0.1444,2.5126,-4.0950,0.8555,-2.0450,-0.8628,
23.267661,-0.1444,2.5126,-4.0950,0.8555,-2.0450,-0.8628,
23.269396,-1.4298,1.0387,-4.8333,0.8555,-2.0450,-0.8628,
23.278819,-1.4298,1.0387,-4.8333,0.1701,-0.8560,-0.3662,
23.332675,-1.4298,1.0387,-4.8333,0.1701,-0.8560,-0.3662,
23.334232,-0.1047,-2.2140,-3.0805,0.1701,-0.8560,-0.3662,
23.344135,-0.1047,-2.2140,-3.0805,1.4067,0.4410,-0.2692,
23.398490,-0.1047,-2.2140,-3.0805,1.4067,0.4410,-0.2692,
23.400121,1.3840,-1.7111,1.2588,1.4067,0.4410,-0.2692,
23.410384,1.3840,-1.7111,1.2588,1.5272,-1.4019,-0.4520,
23.464739,1.3840,-1.7111,1.2588,1.5272,-1.4019,-0.4520,
23.466677,1.3676,-0.9444,-0.1141,1.5272,-1.4019,-0.4520,
23.474910,1.3676,-0.9444,-0.1141,-0.0924,-1.3344,-0.0551,
23.529324,1.3676,-0.9444,-0.1141,-0.0924,-1.3344,-0.0551,
23.531060,1.3931,-0.9862,1.5477,-0.0924,-1.3344,-0.0551,
23.539877,1.3931,-0.9862,1.5477,1.0753,-0.4693,-0.5241,
23.594761,1.3931,-0.9862,1.5477,1.0753,-0.4693,-0.5241,
23.596265,1.5208,-0.4848,3.6287,1.0753,-0.4693,-0.5241,
23.608694,1.5208,-0.4848,3.6287,1.2277,-0.3963,-0.7155,
23.660565,1.5208,-0.4848,3.6287,1.2277,-0.3963,-0.7155,
23.661784,4.4089,0.4242,1.5453,1.2277,-0.3963,-0.7155,
23.671868,4.4089,0.4242,1.5453,-0.3375,1.0111,-0.0533,
23.725530,4.4089,0.4242,1.5453,-0.3375,1.0111,-0.0533,
23.727158,3.1537,0.6565,-0.2363,-0.3375,1.0111,-0.0533,
23.737911,3.1537,0.6565,-0.2363,-2.3202,1.8132,0.5605,
23.791644,3.1537,0.6565,-0.2363,-2.3202,1.8132,0.5605,
23.793372,2.7619,2.4829,-2.0244,-2.3202,1.8132,0.5605,
23.802603,2.7619,2.4829,-2.0244,-1.0313,1.4989,1.5094,
23.857907,2.7619,2.4829,-2.0244,-1.0313,1.4989,1.5094,
23.859481,1.0709,3.6906,-4.0268,-1.0313,1.4989,1.5094,
23.869403,1.0709,3.6906,-4.0268,-2.4390,1.2332,0.6435,
23.922514,1.0709,3.6906,-4.0268,-2.4390,1.2332,0.6435,
23.923972,-2.8473,-1.6438,-3.2967,-2.4390,1.2332,0.6435,
23.933807,-2.8473,-1.6438,-3.2967,-1.4630,1.4314,0.1410,
23.988364,-2.8473,-1.6438,-3.2967,-1.4630,1.4314,0.1410,
23.990165,-3.7160,-2.7377,-2.4425,-1.4630,1.4314,0.1410,
23.998823,-3.7160,-2.7377,-2.4425,0.4557,1.6432,1.0661,
24.052436,-3.7160,-2.7377,-2.4425,0.4557,1.6432,1.0661,
24.054175,-2.5571,-3.4143,-1.7170,0.4557,1.6432,1.0661,
24.064205,-2.5571,-3.4143,-1.7170,1.3981,0.8555,0.2314,
24.119270,-2.5571,-3.4143,-1.7170,1.3981,0.8555,0.2314,
24.120385,1.1001,3.8389,3.4316,1.3981,0.8555,0.2314,
24.130744,1.1001,3.8389,3.4316,1.3923,2.6505,0.1477,
24.183745,1.1001,3.8389,3.4316,1.3923,2.6505,0.1477,
24.185587,-0.3678,1.0773,5.7255,1.3923,2.6505,0.1477,
24.197229,-0.3678,1.0773,5.7255,-0.3853,-3.2434,0.6209,
24.248537,-0.3678,1.0773,5.7255,-0.3853,-3.2434,0.6209,
24.249406,4.1713,0.4979,-5.2640,-0.3853,-3.2434,0.6209,
24.260552,4.1713,0.4979,-5.2640,1.7459,0.0845,-0.3048,
24.314563,4.1713,0.4979,-5.2640,1.7459,0.0845,-0.3048,
24.315285,-0.9249,0.2997,-4.3054,1.7459,0.0845,-0.3048,
24.325491,-0.9249,0.2997,-4.3054,0.3655,0.5528,-1.1961,
24.380799,-0.9249,0.2997,-4.3054,0.3655,0.5528,-1.1961,
24.381778,0.0107,-0.8829,-3.8877,0.3655,0.5528,-1.1961,
24.391707,0.0107,-0.8829,-3.8877,1.5327,0.0498,0.0906,
24.445986,0.0107,-0.8829,-3.8877,1.5327,0.0498,0.0906,
24.447174,-0.1147,-2.0288,-0.9700,1.5327,0.0498,0.0906,
24.458900,-0.1147,-2.0288,-0.9700,2.1321,0.7353,-0.3983,
24.511617,-0.1147,-2.0288,-0.9700,2.1321,0.7353,-0.3983,
24.512343,-0.8835,-0.0044,2.1421,2.1321,0.7353,-0.3983,
24.524422,-0.8835,-0.0044,2.1421,1.1576,0.0125,-0.2298,
24.579206,-0.8835,-0.0044,2.1421,1.1576,0.0125,-0.2298,
24.580379,1.7948,-1.8042,0.1536,1.1576,0.0125,-0.2298,
24.588079,1.7948,-1.8042,0.1536,1.4006,0.4786,-0.5941,
24.641988,1.7948,-1.8042,0.1536,1.4006,0.4786,-0.5941,
24.642889,1.7837,-0.9807,3.0767,1.4006,0.4786,-0.5941,
24.653834,1.7837,-0.9807,3.0767,1.1176,-0.5831,-0.3089,
24.708034,1.7837,-0.9807,3.0767,1.1176,-0.5831,-0.3089,
24.709018,2.6753,0.5963,1.5427,1.1176,-0.5831,-0.3089,
24.720287,2.6753,0.5963,1.5427,-0.6390,0.3209,-0.1165,
24.772900,2.6753,0.5963,1.5427,-0.6390,0.3209,-0.1165,
24.773807,5.4946,1.7803,0.4910,-0.6390,0.3209,-0.1165,
24.783898,5.4946,1.7803,0.4910,-2.1006,1.1642,0.6955,
24.837676,5.4946,1.7803,0.4910,-2.1006,1.1642,0.6955,
24.838404,0.9218,1.0654,-1.1380,-2.1006,1.1642,0.6955,
24.849302,0.9218,1.0654,-1.1380,-1.5960,2.5791,1.6947,
24.904927,0.9218,1.0654,-1.1380,-1.5960,2.5791,1.6947,
24.905976,2.0272,3.4063,-3.6534,-1.5960,2.5791,1.6947,
24.915423,2.0272,3.4063,-3.6534,-0.4342,0.9835,1.1284,
24.969509,2.0272,3.4063,-3.6534,-0.4342,0.9835,1.1284,
24.970121,-2.1007,-0.6410,-3.4371,-0.4342,0.9835,1.1284,
24.980926,-2.1007,-0.6410,-3.4371,-1.3650,0.9441,0.8412,
25.036304,-2.1007,-0.6410,-3.4371,-1.3650,0.9441,0.8412,
25.036942,-2.6089,-1.0929,-2.7067,-1.3650,0.9441,0.8412,
25.047468,-2.6089,-1.0929,-2.7067,0.3228,2.6829,1.0435,
25.099781,-2.6089,-1.0929,-2.7067,0.3228,2.6829,1.0435,
25.100411,-2.5532,-2.2149,-2.4772,0.3228,2.6829,1.0435,
25.112602,-2.5532,-2.2149,-2.4772,1.0030,1.5849,0.0053,
25.165016,-2.5532,-2.2149,-2.4772,1.0030,1.5849,0.0053,
25.166281,-2.3342,0.1615,1.7728,1.0030,1.5849,0.0053,
25.177526,-2.3342,0.1615,1.7728,1.0515,1.6229,-0.0576,
25.231698,-2.3342,0.1615,1.7728,1.0515,1.6229,-0.0576,
25.232805,1.3632,2.6070,6.9492,1.0515,1.6229,-0.0576,
25.242965,1.3632,2.6070,6.9492,-0.0281,-1.0629,0.4346,
25.297322,1.3632,2.6070,6.9492,-0.0281,-1.0629,0.4346,
25.298357,2.5646,1.0552,-1.2629,-0.0281,-1.0629,0.4346,
25.308109,2.5646,1.0552,-1.2629,1.0664,-1.4248,0.0861,
25.362432,2.5646,1.0552,-1.2629,1.0664,-1.4248,0.0861,
25.363018,-1.8091,0.6435,-4.4445,1.0664,-1.4248,0.0861,
25.372799,-1.8091,0.6435,-4.4445,0.4395,-0.3968,-0.6984,
25.427767,-1.8091,0.6435,-4.4445,0.4395,-0.3968,-0.6984,
25.428329,-0.2030,-0.0336,-3.0817,0.4395,-0.3968,-0.6984,
25.439645,-0.2030,-0.0336,-3.0817,1.1875,0.1458,-0.2515,
25.492960,-0.2030,-0.0336,-3.0817,1.1875,0.1458,-0.2515,
25.494718,-0.1240,-1.1256,-0.8154,1.1875,0.1458,-0.2515,
25.506564,-0.1240,-1.1256,-0.8154,1.3897,0.1468,-0.4452,
25.560108,-0.1240,-1.1256,-0.8154,1.3897,0.1468,-0.4452,
25.561015,0.2687,-0.6517,0.4545,1.3897,0.1468,-0.4452,
25.572138,0.2687,-0.6517,0.4545,0.8071,-0.5660,-0.2080,
25.625782,0.2687,-0.6517,0.4545,0.8071,-0.5660,-0.2080,
25.626614,0.4866,-1.7189,0.9841,0.8071,-0.5660,-0.2080,
25.636729,0.4866,-1.7189,0.9841,1.2318,-0.2827,-0.5574,
25.690727,0.4866,-1.7189,0.9841,1.2318,-0.2827,-0.5574,
25.691521,0.8409,-0.2640,1.5006,1.2318,-0.2827,-0.5574,
25.702986,0.8409,-0.2640,1.5006,1.1461,-0.4189,-0.4468,
25.755416,0.8409,-0.2640,1.5006,1.1461,-0.4189,-0.4468,
25.756983,1.7372,-0.5653,1.4812,1.1461,-0.4189,-0.4468,
25.766460,1.7372,-0.5653,1.4812,-0.2385,-0.6388,-0.1565,
25.822230,1.7372,-0.5653,1.4812,-0.2385,-0.6388,-0.1565,
25.824137,4.3987,0.7728,2.6616,-0.2385,-0.6388,-0.1565,
25.832845,4.3987,0.7728,2.6616,-0.3905,-0.6196,0.3230,
25.886574,4.3987,0.7728,2.6616,-0.3905,-0.6196,0.3230,
25.888657,2.0688,1.7272,-0.3998,-0.3905,-0.6196,0.3230,
25.898890,2.0688,1.7272,-0.3998,-2.4375,2.0229,0.8415,
25.953730,2.0688,1.7272,-0.3998,-2.4375,2.0229,0.8415,
25.954454,1.2217,1.5823,-0.5857,-2.4375,2.0229,0.8415,
25.964391,1.2217,1.5823,-0.5857,-0.8769,1.7090,1.3004,
26.018947,1.2217,1.5823,-0.5857,-0.8769,1.7090,1.3004,
26.019606,0.8877,2.3035,-3.1493,-0.8769,1.7090,1.3004,
26.029398,0.8877,2.3035,-3.1493,-1.7620,0.9239,1.0232,
26.081606,0.8877,2.3035,-3.1493,-1.7620,0.9239,1.0232,
26.082240,-2.8649,-0.8443,-2.8863,-1.7620,0.9239,1.0232,
26.094681,-2.8649,-0.8443,-2.8863,-0.8205,1.1347,0.6556,
26.148679,-2.8649,-0.8443,-2.8863,-0.8205,1.1347,0.6556,
26.149255,-2.9765,-1.2002,-2.2106,-0.8205,1.1347,0.6556,
26.160703,-2.9765,-1.2002,-2.2106,0.5435,1.7399,1.1067,
26.213542,-2.9765,-1.2002,-2.2106,0.5435,1.7399,1.1067,
26.214208,-3.0973,-3.0946,-2.6431,0.5435,1.7399,1.1067,
26.226105,-3.0973,-3.0946,-2.6431,1.1771,0.7914,-0.1730,
26.278296,-3.0973,-3.0946,-2.6431,1.1771,0.7914,-0.1730,
26.279156,-0.7693,1.0748,3.8896,1.1771,0.7914,-0.1730,
26.289607,-0.7693,1.0748,3.8896,1.2960,1.2196,-0.3395,
26.344323,-0.7693,1.0748,3.8896,1.2960,1.2196,-0.3395,
26.346510,1.6015,3.2898,6.1613,1.2960,1.2196,-0.3395,
26.356502,1.6015,3.2898,6.1613,-0.2935,-2.0478,0.7341,
26.410570,1.6015,3.2898,6.1613,-0.2935,-2.0478,0.7341,
26.411580,2.9301,0.4564,-3.4261,-0.2935,-2.0478,0.7341,
26.422532,2.9301,0.4564,-3.4261,1.4033,-0.2596,-0.9331,
26.476173,2.9301,0.4564,-3.4261,1.4033,-0.2596,-0.9331,
26.476729,-2.2666,0.7881,-3.0007,1.4033,-0.2596,-0.9331,
26.488029,-2.2666,0.7881,-3.0007,0.9763,-0.3896,-0.7995,
26.539558,-2.2666,0.7881,-3.0007,0.9763,-0.3896,-0.7995,
26.540220,-1.6701,-0.1189,-2.8903,0.9763,-0.3896,-0.7995,
26.551675,-1.6701,-0.1189,-2.8903,0.8410,-0.5050,-0.1671,
26.606513,-1.6701,-0.1189,-2.8903,0.8410,-0.5050,-0.1671,
26.608028,-0.7262,-1.2010,-1.3234,0.8410,-0.5050,-0.1671,
26.617804,-0.7262,-1.2010,-1.3234,1.1332,-0.6649,-0.3658,
26.673227,-0.7262,-1.2010,-1.3234,1.1332,-0.6649,-0.3658,
26.673740,0.7958,-0.7387,2.0394,1.1332,-0.6649,-0.3658,
26.683917,0.7958,-0.7387,2.0394,-0.0628,-1.4369,-0.1518,
26.737427,0.7958,-0.7387,2.0394,-0.0628,-1.4369,-0.1518,
26.737967,0.5919,-1.6306,0.9524,-0.0628,-1.4369,-0.1518,
26.748387,0.5919,-1.6306,0.9524,0.5750,-0.5895,-0.5660,
26.804139,0.5919,-1.6306,0.9524,0.5750,-0.5895,-0.5660,
26.805848,0.8379,-0.4485,1.9877,0.5750,-0.5895,-0.5660,
26.814306,0.8379,-0.4485,1.9877,1.4985,0.0719,-0.6254,
26.869620,0.8379,-0.4485,1.9877,1.4985,0.0719,-0.6254,
26.871157,2.4989,-0.1660,-0.0014,1.4985,0.0719,-0.6254,
26.881430,2.4989,-0.1660,-0.0014,0.4551,0.7162,-0.2188,
26.933877,2.4989,-0.1660,-0.0014,0.4551,0.7162,-0.2188,
26.935644,5.0056,1.4072,2.6500,0.4551,0.7162,-0.2188,
26.946040,5.0056,1.4072,2.6500,-0.5040,-1.0800,0.5394,
26.999782,5.0056,1.4072,2.6500,-0.5040,-1.0800,0.5394,
27.001000,1.1658,2.0305,0.4652,-0.5040,-1.0800,0.5394,
27.011961,1.1658,2.0305,0.4652,-2.9587,0.9169,1.1283,
27.065433,1.1658,2.0305,0.4652,-2.9587,0.9169,1.1283,
27.067355,-0.1410,2.2591,-0.3984,-2.9587,0.9169,1.1283,
27.075335,-0.1410,2.2591,-0.3984,-1.2747,0.8262,1.4383,
27.130469,-0.1410,2.2591,-0.3984,-1.2747,0.8262,1.4383,
27.132704,-0.6450,3.7868,-2.2144,-1.2747,0.8262,1.4383,
27.141369,-0.6450,3.7868,-2.2144,-1.7724,1.7379,0.2848,
27.195663,-0.6450,3.7868,-2.2144,-1.7724,1.7379,0.2848,
27.196934,-3.4739,-1.8008,-2.8348,-1.7724,1.7379,0.2848,
27.206703,-3.4739,-1.8008,-2.8348,-1.4691,0.4264,0.0434,
27.261711,-3.4739,-1.8008,-2.8348,-1.4691,0.4264,0.0434,
27.263554,-3.6328,-2.7073,-3.1330,-1.4691,0.4264,0.0434,
27.274163,-3.6328,-2.7073,-3.1330,0.2555,1.5420,0.5247,
27.328037,-3.6328,-2.7073,-3.1330,0.2555,1.5420,0.5247,
27.328801,-2.6116,-3.5273,-1.8252,0.2555,1.5420,0.5247,
27.338935,-2.6116,-3.5273,-1.8252,0.9977,1.0553,0.0941,
27.393929,-2.6116,-3.5273,-1.8252,0.9977,1.0553,0.0941,
27.394711,3.4640,3.0336,7.9657,0.9977,1.0553,0.0941,
27.407073,3.4640,3.0336,7.9657,0.5020,2.0495,0.5211,
27.459249,3.4640,3.0336,7.9657,0.5020,2.0495,0.5211,
27.461131,-0.3691,0.2943,2.5470,0.5020,2.0495,0.5211,
27.469480,-0.3691,0.2943,2.5470,0.4238,-1.3748,0.2256,
27.524078,-0.3691,0.2943,2.5470,0.4238,-1.3748,0.2256,
27.525938,-0.0710,3.4436,-4.6576,0.4238,-1.3748,0.2256,
27.535899,-0.0710,3.4436,-4.6576,0.5286,-1.7756,-0.4308,
27.589917,-0.0710,3.4436,-4.6576,0.5286,-1.7756,-0.4308,
27.590565,-1.1940,0.3138,-5.0201,0.5286,-1.7756,-0.4308,
27.600794,-1.1940,0.3138,-5.0201,0.5450,0.1132,-0.6063,
27.653708,-1.1940,0.3138,-5.0201,0.5450,0.1132,-0.6063,
27.654491,-0.1747,-0.4388,-2.1630,0.5450,0.1132,-0.6063,
27.666155,-0.1747,-0.4388,-2.1630,1.7842,0.7413,-0.2468,
27.720857,-0.1747,-0.4388,-2.1630,1.7842,0.7413,-0.2468,
27.723999,0.1160,-0.4440,0.9038,1.7842,0.7413,-0.2468,
27.731869,0.1160,-0.4440,0.9038,0.5534,-1.3920,-0.3132,
27.785428,0.1160,-0.4440,0.9038,0.5534,-1.3920,-0.3132,
27.787258,0.8774,-2.4783,1.1304,0.5534,-1.3920,-0.3132,
27.796974,0.8774,-2.4783,1.1304,1.2642,-0.0753,-0.5985,
27.851904,0.8774,-2.4783,1.1304,1.2642,-0.0753,-0.5985,
27.854904,1.1457,-1.2254,1.1589,1.2642,-0.0753,-0.5985,
27.863548,1.1457,-1.2254,1.1589,1.5169,0.6098,-0.6119,
27.915399,1.1457,-1.2254,1.1589,1.5169,0.6098,-0.6119,
27.917587,1.3085,-1.3919,1.9946,1.5169,0.6098,-0.6119,
27.927570,1.3085,-1.3919,1.9946,1.2178,-0.2563,-0.5310,
27.981750,1.3085,-1.3919,1.9946,1.2178,-0.2563,-0.5310,
27.982455,2.8729,0.3276,0.7846,1.2178,-0.2563,-0.5310,
27.992674,2.8729,0.3276,0.7846,0.0090,0.3044,0.0779,
28.046591,2.8729,0.3276,0.7846,0.0090,0.3044,0.0779,
28.047240,5.2071,2.6346,0.8280,0.0090,0.3044,0.0779,
28.058114,5.2071,2.6346,0.8280,-1.5985,0.7873,0.7491,
28.111781,5.2071,2.6346,0.8280,-1.5985,0.7873,0.7491,
28.112371,0.1965,0.5890,-1.0774,-1.5985,0.7873,0.7491,
28.123314,0.1965,0.5890,-1.0774,-2.0152,2.7455,1.4197,
28.177421,0.1965,0.5890,-1.0774,-2.0152,2.7455,1.4197,
28.178085,2.1153,4.8146,-3.9116,-2.0152,2.7455,1.4197,
28.189743,2.1153,4.8146,-3.9116,-0.7016,1.2960,0.8835,
28.242991,2.1153,4.8146,-3.9116,-0.7016,1.2960,0.8835,
28.244035,-1.6305,0.0215,-3.5262,-0.7016,1.2960,0.8835,
28.255122,-1.6305,0.0215,-3.5262,-1.7344,1.3966,0.0547,
28.310224,-1.6305,0.0215,-3.5262,-1.7344,1.3966,0.0547,
28.310732,-3.9110,-2.0777,-3.1727,-1.7344,1.3966,0.0547,
28.321361,-3.9110,-2.0777,-3.1727,-0.4661,1.2500,0.3291,
28.375763,-3.9110,-2.0777,-3.1727,-0.4661,1.2500,0.3291,
28.376403,-2.9093,-3.3171,-2.6057,-0.4661,1.2500,0.3291,
28.387380,-2.9093,-3.3171,-2.6057,1.0629,0.7811,0.4468,
28.439321,-2.9093,-3.3171,-2.6057,1.0629,0.7811,0.4468,
28.440419,-0.0503,-0.3460,2.3193,1.0629,0.7811,0.4468,
28.451319,-0.0503,-0.3460,2.3193,1.2242,2.0769,0.3684,
28.505597,-0.0503,-0.3460,2.3193,1.2242,2.0769,0.3684,
28.506577,1.0441,3.6818,6.5577,1.2242,2.0769,0.3684,
28.517851,1.0441,3.6818,6.5577,0.1747,-0.4467,0.1477,
28.571948,1.0441,3.6818,6.5577,0.1747,-0.4467,0.1477,
28.574184,-1.0857,-1.6206,-1.7768,0.1747,-0.4467,0.1477,
28.584263,-1.0857,-1.6206,-1.7768,1.3395,-1.3844,0.3428,
28.635738,-1.0857,-1.6206,-1.7768,1.3395,-1.3844,0.3428,
28.637528,1.3073,3.8948,-3.2930,1.3395,-1.3844,0.3428,
28.648403,1.3073,3.8948,-3.2930,-0.1779,-1.3509,-0.5258,
28.702390,1.3073,3.8948,-3.2930,-0.1779,-1.3509,-0.5258,
28.703378,-1.4551,-1.1362,-3.8723,-0.1779,-1.3509,-0.5258,
28.714240,-1.4551,-1.1362,-3.8723,1.2848,0.5276,-0.3613,
28.768718,-1.4551,-1.1362,-3.8723,1.2848,0.5276,-0.3613,
28.769427,0.5950,-0.7553,-1.9419,1.2848,0.5276,-0.3613,
28.779813,0.5950,-0.7553,-1.9419,2.4062,1.6254,-0.4094,
28.832896,0.5950,-0.7553,-1.9419,2.4062,1.6254,-0.4094,
28.833477,-1.5746,-0.5086,0.9363,2.4062,1.6254,-0.4094,
28.844970,-1.5746,-0.5086,0.9363,0.9846,-0.7106,-0.1381,
28.898111,-1.5746,-0.5086,0.9363,0.9846,-0.7106,-0.1381,
28.898622,0.8064,-1.2979,0.2725,0.9846,-0.7106,-0.1381,
28.911063,0.8064,-1.2979,0.2725,0.6707,-0.6015,-0.3819,
28.967383,0.8064,-1.2979,0.2725,0.6707,-0.6015,-0.3819,
28.968461,1.5386,-0.5281,1.6189,0.6707,-0.6015,-0.3819,
28.975193,1.5386,-0.5281,1.6189,0.7190,-0.8415,-0.4038,
29.029596,1.5386,-0.5281,1.6189,0.7190,-0.8415,-0.4038,
29.030909,0.8480,-1.9285,2.2266,0.7190,-0.8415,-0.4038,
29.040322,0.8480,-1.9285,2.2266,0.5928,-0.3083,-0.4076,
29.095451,0.8480,-1.9285,2.2266,0.5928,-0.3083,-0.4076,
29.096391,3.8119,0.8482,1.6457,0.5928,-0.3083,-0.4076,
29.106955,3.8119,0.8482,1.6457,0.4713,0.7477,0.1116,
29.160590,3.8119,0.8482,1.6457,0.4713,0.7477,0.1116,
29.161548,4.5380,2.7769,0.0359,0.4713,0.7477,0.1116,
29.171519,4.5380,2.7769,0.0359,-1.1321,0.7323,0.7969,
29.225285,4.5380,2.7769,0.0359,-1.1321,0.7323,0.7969,
29.225916,-0.9890,0.6050,0.1821,-1.1321,0.7323,0.7969,
29.236971,-0.9890,0.6050,0.1821,-2.4134,1.2405,1.0663,
29.292065,-0.9890,0.6050,0.1821,-2.4134,1.2405,1.0663,
29.292687,0.7095,3.7405,-3.5046,-2.4134,1.2405,1.0663,
29.302886,0.7095,3.7405,-3.5046,-1.2570,1.1072,1.0522,
29.355939,0.7095,3.7405,-3.5046,-1.2570,1.1072,1.0522,
29.356608,-1.7998,0.2168,-2.3886,-1.2570,1.1072,1.0522,
29.368386,-1.7998,0.2168,-2.3886,-1.9306,1.0372,0.2353,
29.421883,-1.7998,0.2168,-2.3886,-1.9306,1.0372,0.2353,
29.423230,-3.7570,-0.9827,-2.0643,-1.9306,1.0372,0.2353,
29.433676,-3.7570,-0.9827,-2.0643,-0.5124,0.9195,0.7028,
29.488098,-3.7570,-0.9827,-2.0643,-0.5124,0.9195,0.7028,
29.488928,-2.1618,-2.5079,-2.0737,-0.5124,0.9195,0.7028,
29.498638,-2.1618,-2.5079,-2.0737,0.9024,0.9505,0.6015,
29.552765,-2.1618,-2.5079,-2.0737,0.9024,0.9505,0.6015,
29.553889,-1.6816,-2.5876,-0.9608,0.9024,0.9505,0.6015,
29.564509,-1.6816,-2.5876,-0.9608,1.2448,1.4001,-0.0362,
29.618658,-1.6816,-2.5876,-0.9608,1.2448,1.4001,-0.0362,
29.619529,5.3241,2.6967,7.2672,1.2448,1.4001,-0.0362,
29.631541,5.3241,2.6967,7.2672,1.0785,1.6222,0.3958,
29.683837,5.3241,2.6967,7.2672,1.0785,1.6222,0.3958,
29.684474,-0.6414,1.1782,-1.1928,1.0785,1.6222,0.3958,
29.696442,-0.6414,1.1782,-1.1928,0.3152,-0.1645,-0.6457,
29.749941,-0.6414,1.1782,-1.1928,0.3152,-0.1645,-0.6457,
29.750640,-3.6854,0.8030,-3.0873,0.3152,-0.1645,-0.6457,
29.760167,-3.6854,0.8030,-3.0873,0.2706,-1.7637,-0.2246,
29.816279,-3.6854,0.8030,-3.0873,0.2706,-1.7637,-0.2246,
29.817243,-0.9708,2.1026,-4.5220,0.2706,-1.7637,-0.2246,
29.829357,-0.9708,2.1026,-4.5220,1.1041,-0.9954,-0.0400,
29.880262,-0.9708,2.1026,-4.5220,1.1041,-0.9954,-0.0400,
29.881036,0.2724,-0.1870,-1.5943,1.1041,-0.9954,-0.0400,
29.892869,0.2724,-0.1870,-1.5943,0.3965,0.2920,-0.2769,
29.947666,0.2724,-0.1870,-1.5943,0.3965,0.2920,-0.2769,
29.948430,0.0866,-1.4026,0.5808,0.3965,0.2920,-0.2769,
29.959036,0.0866,-1.4026,0.5808,1.0194,-1.6257,-0.5325,
30.011936,0.0866,-1.4026,0.5808,1.0194,-1.6257,-0.5325,
30.012682,1.0751,-1.6792,1.2432,1.0194,-1.6257,-0.5325,
30.023758,1.0751,-1.6792,1.2432,1.2602,0.1124,-0.6694,
30.078520,1.0751,-1.6792,1.2432,1.2602,0.1124,-0.6694,
30.079423,1.6534,-1.2364,0.6200,1.2602,0.1124,-0.6694,
30.089703,1.6534,-1.2364,0.6200,1.3599,0.4983,-0.7465,
30.142377,1.6534,-1.2364,0.6200,1.3599,0.4983,-0.7465,
30.144675,1.6922,-1.7752,2.5755,1.3599,0.4983,-0.7465,
30.154040,1.6922,-1.7752,2.5755,1.2017,-0.5063,-0.5026,
30.208358,1.6922,-1.7752,2.5755,1.2017,-0.5063,-0.5026,
30.211322,3.9491,0.2092,0.6184,1.2017,-0.5063,-0.5026,
30.220026,3.9491,0.2092,0.6184,0.0661,0.7526,0.1468,
30.273179,3.9491,0.2092,0.6184,0.0661,0.7526,0.1468,
30.274747,2.7267,3.2468,1.4555,0.0661,0.7526,0.1468,
30.284394,2.7267,3.2468,1.4555,-1.1399,0.7521,0.8013,
30.339490,2.7267,3.2468,1.4555,-1.1399,0.7521,0.8013,
30.341328,-0.1239,2.2495,-0.4633,-1.1399,0.7521,0.8013,
30.349807,-0.1239,2.2495,-0.4633,-2.3425,1.8749,0.9821,
30.403696,-0.1239,2.2495,-0.4633,-2.3425,1.8749,0.9821,
30.404679,0.8195,3.6868,-3.3490,-2.3425,1.8749,0.9821,
30.415784,0.8195,3.6868,-3.3490,-1.0869,0.7002,0.8140,
30.469382,0.8195,3.6868,-3.3490,-1.0869,0.7002,0.8140,
30.470963,-2.3811,-0.6194,-3.0030,-1.0869,0.7002,0.8140,
30.481265,-2.3811,-0.6194,-3.0030,-1.8463,0.6507,0.2758,
30.536365,-2.3811,-0.6194,-3.0030,-1.8463,0.6507,0.2758,
30.538445,-4.6415,-2.0128,-3.4181,-1.8463,0.6507,0.2758,
30.547194,-4.6415,-2.0128,-3.4181,-0.7347,0.2170,0.4661,
30.601504,-4.6415,-2.0128,-3.4181,-0.7347,0.2170,0.4661,
30.603336,-3.0992,-1.8352,-2.7268,-0.7347,0.2170,0.4661,
30.613541,-3.0992,-1.8352,-2.7268,0.4578,0.4720,0.6582,
30.665756,-3.0992,-1.8352,-2.7268,0.4578,0.4720,0.6582,
30.666718,0.7103,-0.0808,2.2743,0.4578,0.4720,0.6582,
30.678496,0.7103,-0.0808,2.2743,-0.1593,-0.4389,0.5557,
30.731524,0.7103,-0.0808,2.2743,-0.1593,-0.4389,0.5557,
30.733023,3.7479,-0.2388,3.5743,-0.1593,-0.4389,0.5557,
30.743514,3.7479,-0.2388,3.5743,0.3949,0.1949,-0.0652,
30.797320,3.7479,-0.2388,3.5743,0.3949,0.1949,-0.0652,
30.798933,1.4867,0.2527,-1.2878,0.3949,0.1949,-0.0652,
30.808945,1.4867,0.2527,-1.2878,1.9010,0.3433,-0.5351,
30.863119,1.4867,0.2527,-1.2878,1.9010,0.3433,-0.5351,
30.864800,-2.0154,3.4354,-2.3205,1.9010,0.3433,-0.5351,
30.874481,-2.0154,3.4354,-2.3205,-0.0093,-0.0425,-0.6347,
30.929174,-2.0154,3.4354,-2.3205,-0.0093,-0.0425,-0.6347,
30.931131,-0.7114,-0.5521,-1.7667,-0.0093,-0.0425,-0.6347,
30.941501,-0.7114,-0.5521,-1.7667,1.7914,0.0557,-0.4325,
30.993641,-0.7114,-0.5521,-1.7667,1.7914,0.0557,-0.4325,
30.995354,0.1658,-0.6990,-0.7725,1.7914,0.0557,-0.4325,
31.005601,0.1658,-0.6990,-0.7725,1.3806,0.1216,-0.5976,
31.059467,0.1658,-0.6990,-0.7725,1.3806,0.1216,-0.5976,
31.061985,-0.3886,-1.4081,-0.1581,1.3806,0.1216,-0.5976,
31.070974,-0.3886,-1.4081,-0.1581,0.9259,-0.2456,-0.4661,
31.124203,-0.3886,-1.4081,-0.1581,0.9259,-0.2456,-0.4661,
31.126363,0.4105,-1.2844,0.7503,0.9259,-0.2456,-0.4661,
31.136158,0.4105,-1.2844,0.7503,0.8236,-0.7671,-0.4745,
31.189657,0.4105,-1.2844,0.7503,0.8236,-0.7671,-0.4745,
31.190927,1.1157,-0.1084,2.0215,0.8236,-0.7671,-0.4745,
31.200978,1.1157,-0.1084,2.0215,0.4146,-1.5004,-0.3616,
31.256272,1.1157,-0.1084,2.0215,0.4146,-1.5004,-0.3616,
31.258208,2.3706,-0.6198,-0.2010,0.4146,-1.5004,-0.3616,
31.266726,2.3706,-0.6198,-0.2010,-0.1352,0.3563,-0.2182,
31.320647,2.3706,-0.6198,-0.2010,-0.1352,0.3563,-0.2182,
31.322720,4.6751,2.3292,0.7538,-0.1352,0.3563,-0.2182,
31.332137,4.6751,2.3292,0.7538,-1.7275,-0.3780,0.7845,
31.386365,4.6751,2.3292,0.7538,-1.7275,-0.3780,0.7845,
31.387479,-0.4237,-0.0023,-1.2657,-1.7275,-0.3780,0.7845,
31.397649,-0.4237,-0.0023,-1.2657,-2.5664,2.1929,1.2824,
31.452627,-0.4237,-0.0023,-1.2657,-2.5664,2.1929,1.2824,
31.454354,1.5531,1.2114,-2.3515,-2.5664,2.1929,1.2824,
31.463205,1.5531,1.2114,-2.3515,-0.1898,1.5718,0.9612,
31.518227,1.5531,1.2114,-2.3515,-0.1898,1.5718,0.9612,
31.519936,-0.6715,-0.7439,-2.6281,-0.1898,1.5718,0.9612,
31.529714,-0.6715,-0.7439,-2.6281,-0.5443,1.4429,0.9206,
31.583389,-0.6715,-0.7439,-2.6281,-0.5443,1.4429,0.9206,
31.585740,-1.1525,-1.7534,-0.6289,-0.5443,1.4429,0.9206,
31.594656,-1.1525,-1.7534,-0.6289,1.8088,1.5001,1.1553,
31.648228,-1.1525,-1.7534,-0.6289,1.8088,1.5001,1.1553,
31.650035,2.0088,-0.9078,-2.1325,1.8088,1.5001,1.1553,
31.660775,2.0088,-0.9078,-2.1325,2.6055,2.5400,-0.3398,
31.713814,2.0088,-0.9078,-2.1325,2.6055,2.5400,-0.3398,
31.715980,-2.1170,-1.0942,-1.3437,2.6055,2.5400,-0.3398,
31.728051,-2.1170,-1.0942,-1.3437,1.5382,3.8733,-0.8551,
31.780108,-2.1170,-1.0942,-1.3437,1.5382,3.8733,-0.8551,
31.782221,-2.7382,2.6601,2.0270,1.5382,3.8733,-0.8551,
31.792071,-2.7382,2.6601,2.0270,0.4711,1.0429,0.3664,
31.845797,-2.7382,2.6601,2.0270,0.4711,1.0429,0.3664,
31.847300,2.9349,1.9851,-2.5398,0.4711,1.0429,0.3664,
31.856599,2.9349,1.9851,-2.5398,0.8378,-1.3806,0.5037,
31.910416,2.9349,1.9851,-2.5398,0.8378,-1.3806,0.5037,
31.912043,-1.4607,-0.6663,-2.3627,0.8378,-1.3806,0.5037,
31.921727,-1.4607,-0.6663,-2.3627,0.3230,-0.1113,-0.3039,
31.976032,-1.4607,-0.6663,-2.3627,0.3230,-0.1113,-0.3039,
31.977970,-1.0691,0.5090,-1.6407,0.3230,-0.1113,-0.3039,
31.987024,-1.0691,0.5090,-1.6407,1.3547,-0.3974,-0.0009,
32.041392,-1.0691,0.5090,-1.6407,1.3547,-0.3974,-0.0009,
32.043102,-0.5428,-1.2046,-1.3330,1.3547,-0.3974,-0.0009,
32.053740,-0.5428,-1.2046,-1.3330,1.2492,0.4042,-0.1611,
32.107069,-0.5428,-1.2046,-1.3330,1.2492,0.4042,-0.1611,
32.108693,1.0085,-0.8901,1.6281,1.2492,0.4042,-0.1611,
32.117961,1.0085,-0.8901,1.6281,0.3088,-0.7294,0.0027,
32.173649,1.0085,-0.8901,1.6281,0.3088,-0.7294,0.0027,
32.175364,0.9235,-1.5947,0.1316,0.3088,-0.7294,0.0027,
32.184374,0.9235,-1.5947,0.1316,0.7246,0.1038,-0.2488,
32.239254,0.9235,-1.5947,0.1316,0.7246,0.1038,-0.2488,
32.240017,1.4057,0.3013,1.2923,0.7246,0.1038,-0.2488,
32.248922,1.4057,0.3013,1.2923,1.2306,-0.3021,-0.3509,
32.303624,1.4057,0.3013,1.2923,1.2306,-0.3021,-0.3509,
32.304810,2.7625,0.1108,0.8888,1.2306,-0.3021,-0.3509,
32.314485,2.7625,0.1108,0.8888,-0.1177,-0.2787,-0.0397,
32.368845,2.7625,0.1108,0.8888,-0.1177,-0.2787,-0.0397,
32.370002,5.4371,1.0466,2.3341,-0.1177,-0.2787,-0.0397,
32.379703,5.4371,1.0466,2.3341,-1.4372,-1.0061,0.7016,
32.435866,5.4371,1.0466,2.3341,-1.4372,-1.0061,0.7016,
32.437621,-0.1279,0.8927,0.0471,-1.4372,-1.0061,0.7016,
32.445560,-0.1279,0.8927,0.0471,-1.9980,2.2350,1.2217,
32.498799,-0.1279,0.8927,0.0471,-1.9980,2.2350,1.2217,
32.499426,1.2046,3.4808,-1.6203,-1.9980,2.2350,1.2217,
32.511878,1.2046,3.4808,-1.6203,0.0234,1.3940,0.8395,
32.565410,1.2046,3.4808,-1.6203,0.0234,1.3940,0.8395,
32.567116,-1.1306,1.9770,-4.0374,0.0234,1.3940,0.8395,
32.578074,-1.1306,1.9770,-4.0374,-1.6255,1.6641,0.1115,
32.631163,-1.1306,1.9770,-4.0374,-1.6255,1.6641,0.1115,
32.632230,-3.9175,-1.6689,-3.1774,-1.6255,1.6641,0.1115,
32.644573,-3.9175,-1.6689,-3.1774,-2.2865,-0.3888,-0.2900,
32.697650,-3.9175,-1.6689,-3.1774,-2.2865,-0.3888,-0.2900,
32.698719,-4.1787,-2.7221,-1.7019,-2.2865,-0.3888,-0.2900,
32.708363,-4.1787,-2.7221,-1.7019,0.0560,0.5420,0.1407,
32.762676,-4.1787,-2.7221,-1.7019,0.0560,0.5420,0.1407,
32.763679,-2.0594,-2.3367,-0.3369,0.0560,0.5420,0.1407,
32.773949,-2.0594,-2.3367,-0.3369,1.4441,0.1886,0.2069,
32.827188,-2.0594,-2.3367,-0.3369,1.4441,0.1886,0.2069,
32.828869,3.5368,3.3351,4.8844,1.4441,0.1886,0.2069,
32.839626,3.5368,3.3351,4.8844,-0.6115,0.6640,1.0372,
32.893432,3.5368,3.3351,4.8844,-0.6115,0.6640,1.0372,
32.895130,2.0390,-0.0146,4.8538,-0.6115,0.6640,1.0372,
32.905051,2.0390,-0.0146,4.8538,1.0099,-1.6217,0.0276,
32.959495,2.0390,-0.0146,4.8538,1.0099,-1.6217,0.0276,
32.960749,-0.0489,0.9098,-2.3263,1.0099,-1.6217,0.0276,
32.970643,-0.0489,0.9098,-2.3263,1.4714,-0.6396,-0.6585,
33.022987,-0.0489,0.9098,-2.3263,1.4714,-0.6396,-0.6585,
33.024300,-3.5109,-1.6796,-3.8827,1.4714,-0.6396,-0.6585,
33.035698,-3.5109,-1.6796,-3.8827,0.9774,-0.7133,-0.7439,
33.090976,-3.5109,-1.6796,-3.8827,0.9774,-0.7133,-0.7439,
33.091825,-1.7829,0.9786,-1.8902,0.9774,-0.7133,-0.7439,
33.100117,-1.7829,0.9786,-1.8902,1.4088,-0.2147,-0.4508,
33.155388,-1.7829,0.9786,-1.8902,1.4088,-0.2147,-0.4508,
33.157140,-0.6717,-1.3126,1.1964,1.4088,-0.2147,-0.4508,
33.165700,-0.6717,-1.3126,1.1964,0.0623,-0.5953,-0.3057,
33.219280,-0.6717,-1.3126,1.1964,0.0623,-0.5953,-0.3057,
33.219949,0.4368,-1.0872,0.7686,0.0623,-0.5953,-0.3057,
33.231628,0.4368,-1.0872,0.7686,0.4661,-1.2724,-0.2654,
33.284927,0.4368,-1.0872,0.7686,0.4661,-1.2724,-0.2654,
33.286142,0.2449,-1.4832,1.6572,0.4661,-1.2724,-0.2654,
33.296610,0.2449,-1.4832,1.6572,0.6197,-0.9730,-0.4394,
33.350428,0.2449,-1.4832,1.6572,0.6197,-0.9730,-0.4394,
33.351697,2.6683,-0.1052,0.7429,0.6197,-0.9730,-0.4394,
33.361686,2.6683,-0.1052,0.7429,0.5446,-0.1811,-0.3488,
33.416753,2.6683,-0.1052,0.7429,0.5446,-0.1811,-0.3488,
33.418641,4.7983,2.2014,1.4667,0.5446,-0.1811,-0.3488,
33.428059,4.7983,2.2014,1.4667,-0.7054,-0.6929,1.0797,
33.482072,4.7983,2.2014,1.4667,-0.7054,-0.6929,1.0797,
33.483694,-0.3424,3.2050,1.2374,-0.7054,-0.6929,1.0797,
33.493569,-0.3424,3.2050,1.2374,-3.5433,-0.4088,1.6816,
33.547037,-0.3424,3.2050,1.2374,-3.5433,-0.4088,1.6816,
33.548803,-0.1376,7.5582,-0.8679,-3.5433,-0.4088,1.6816,
33.559581,-0.1376,7.5582,-0.8679,-1.3095,0.3485,0.7866,
33.612757,-0.1376,7.5582,-0.8679,-1.3095,0.3485,0.7866,
33.614199,-3.4653,1.2791,-2.5908,-1.3095,0.3485,0.7866,
33.623766,-3.4653,1.2791,-2.5908,-2.0275,1.6338,-0.3386,
33.677273,-3.4653,1.2791,-2.5908,-2.0275,1.6338,-0.3386,
33.678621,-4.2586,-3.2863,-2.4642,-2.0275,1.6338,-0.3386,
33.688922,-4.2586,-3.2863,-2.4642,-2.2297,-0.7283,-0.7248,
33.744298,-4.2586,-3.2863,-2.4642,-2.2297,-0.7283,-0.7248,
33.746703,-3.7676,-3.3588,-2.3964,-2.2297,-0.7283,-0.7248,
33.754398,-3.7676,-3.3588,-2.3964,-0.1344,0.8728,-0.4203,
33.809038,-3.7676,-3.3588,-2.3964,-0.1344,0.8728,-0.4203,
33.810154,-2.1559,-3.7143,-0.2596,-0.1344,0.8728,-0.4203,
33.820713,-2.1559,-3.7143,-0.2596,1.4659,-0.2353,0.5145,
33.875773,-2.1559,-3.7143,-0.2596,1.4659,-0.2353,0.5145,
33.876879,6.4592,2.7230,7.6830,1.4659,-0.2353,0.5145,
33.887016,6.4592,2.7230,7.6830,-0.4000,1.0747,1.0904,
33.941509,6.4592,2.7230,7.6830,-0.4000,1.0747,1.0904,
33.943139,0.1202,1.6405,2.9836,-0.4000,1.0747,1.0904,
33.952862,0.1202,1.6405,2.9836,-0.0489,0.5461,-0.3913,
34.007542,0.1202,1.6405,2.9836,-0.0489,0.5461,-0.3913,
34.009697,-2.8636,-0.1017,-2.6510,-0.0489,0.5461,-0.3913,
34.016833,-2.8636,-0.1017,-2.6510,0.9024,-1.8966,-0.9468,
34.072193,-2.8636,-0.1017,-2.6510,0.9024,-1.8966,-0.9468,
34.074036,-1.3352,2.4263,-5.5651,0.9024,-1.8966,-0.9468,
34.082744,-1.3352,2.4263,-5.5651,1.8751,-1.6128,-0.6550,
34.136344,-1.3352,2.4263,-5.5651,1.8751,-1.6128,-0.6550,
34.138160,-0.7770,1.0126,-2.2682,1.8751,-1.6128,-0.6550,
34.147843,-0.7770,1.0126,-2.2682,0.6878,-1.6116,-0.3363,
34.202534,-0.7770,1.0126,-2.2682,0.6878,-1.6116,-0.3363,
34.204274,1.3001,-1.9033,1.3998,0.6878,-1.6116,-0.3363,
34.213769,1.3001,-1.9033,1.3998,-0.0774,-1.8833,-0.4571,
34.268040,1.3001,-1.9033,1.3998,-0.0774,-1.8833,-0.4571,
34.269883,1.8443,-2.3355,0.9459,-0.0774,-1.8833,-0.4571,
34.279306,1.8443,-2.3355,0.9459,1.0994,-0.3082,-0.7847,
34.332012,1.8443,-2.3355,0.9459,1.0994,-0.3082,-0.7847,
34.332782,1.5033,-0.7077,2.5948,1.0994,-0.3082,-0.7847,
34.344834,1.5033,-0.7077,2.5948,1.0212,0.0673,-0.7307,
34.398651,1.5033,-0.7077,2.5948,1.0212,0.0673,-0.7307,
34.400205,3.4964,-1.5299,1.5884,1.0212,0.0673,-0.7307,
34.410096,3.4964,-1.5299,1.5884,-0.2207,-0.9288,-0.5466,
34.464101,3.4964,-1.5299,1.5884,-0.2207,-0.9288,-0.5466,
34.466013,2.5285,2.4573,0.7961,-0.2207,-0.9288,-0.5466,
34.476956,2.5285,2.4573,0.7961,-1.6435,2.0401,1.0374,
34.529748,2.5285,2.4573,0.7961,-1.6435,2.0401,1.0374,
34.531208,0.9640,1.3517,-0.7789,-1.6435,2.0401,1.0374,
34.540984,0.9640,1.3517,-0.7789,-1.3315,2.0290,1.2462,
34.594548,0.9640,1.3517,-0.7789,-1.3315,2.0290,1.2462,
34.595935,2.5829,5.1302,-5.7575,-1.3315,2.0290,1.2462,
34.606300,2.5829,5.1302,-5.7575,-1.6547,0.8470,0.8176,
34.659310,2.5829,5.1302,-5.7575,-1.6547,0.8470,0.8176,
34.660347,-1.9903,-1.4598,-3.1191,-1.6547,0.8470,0.8176,
34.671923,-1.9903,-1.4598,-3.1191,-2.1602,1.1500,0.2772,
34.724910,-1.9903,-1.4598,-3.1191,-2.1602,1.1500,0.2772,
34.726021,-2.7306,-1.7836,-0.8142,-2.1602,1.1500,0.2772,
34.736481,-2.7306,-1.7836,-0.8142,0.7735,1.4597,1.2000,
34.790201,-2.7306,-1.7836,-0.8142,0.7735,1.4597,1.2000,
34.791261,-1.8000,-2.8193,-2.5075,0.7735,1.4597,1.2000,
34.802114,-1.8000,-2.8193,-2.5075,2.0940,1.0050,1.0708,
34.856460,-1.8000,-2.8193,-2.5075,2.0940,1.0050,1.0708,
34.857608,2.0742,0.6965,3.8223,2.0940,1.0050,1.0708,
34.868383,2.0742,0.6965,3.8223,1.1023,2.9219,0.6041,
34.923174,2.0742,0.6965,3.8223,1.1023,2.9219,0.6041,
34.924578,0.4138,0.0899,2.4441,1.1023,2.9219,0.6041,
34.933399,0.4138,0.0899,2.4441,1.2637,2.2810,-0.2738,
34.988520,0.4138,0.0899,2.4441,1.2637,2.2810,-0.2738,
34.990946,0.9242,4.0635,-1.2583,1.2637,2.2810,-0.2738,
34.999070,0.9242,4.0635,-1.2583,0.5125,-3.2603,1.0090,
35.053194,0.9242,4.0635,-1.2583,0.5125,-3.2603,1.0090,
35.054796,-0.5904,-1.2757,-5.6664,0.5125,-3.2603,1.0090,
35.064685,-0.5904,-1.2757,-5.6664,0.5316,0.9968,-1.3149,
35.119673,-0.5904,-1.2757,-5.6664,0.5316,0.9968,-1.3149,
35.121331,-0.0072,0.5514,-3.8948,0.5316,0.9968,-1.3149,
35.130467,-0.0072,0.5514,-3.8948,2.0601,1.2682,-0.1324,
35.184343,-0.0072,0.5514,-3.8948,2.0601,1.2682,-0.1324,
35.186199,1.4651,-0.9540,0.7523,2.0601,1.2682,-0.1324,
35.195651,1.4651,-0.9540,0.7523,0.7489,0.2286,-0.2166,
35.248720,1.4651,-0.9540,0.7523,0.7489,0.2286,-0.2166,
35.249759,0.5360,-2.0657,0.4302,0.7489,0.2286,-0.2166,
35.261587,0.5360,-2.0657,0.4302,1.5311,0.0886,-0.3459,
35.315789,0.5360,-2.0657,0.4302,1.5311,0.0886,-0.3459,
35.318408,0.6128,-0.5464,0.7919,1.5311,0.0886,-0.3459,
35.328295,0.6128,-0.5464,0.7919,1.1808,0.7515,-0.4956,
35.380330,0.6128,-0.5464,0.7919,1.1808,0.7515,-0.4956,
35.381542,2.2194,-1.0228,2.1368,1.1808,0.7515,-0.4956,
35.393312,2.2194,-1.0228,2.1368,-0.3638,-0.8560,-0.2503,
35.446507,2.2194,-1.0228,2.1368,-0.3638,-0.8560,-0.2503,
35.447682,3.0489,-1.1074,0.5549,-0.3638,-0.8560,-0.2503,
35.457965,3.0489,-1.1074,0.5549,0.2059,1.5091,-0.2851,
35.512050,3.0489,-1.1074,0.5549,0.2059,1.5091,-0.2851,
35.513623,4.3933,0.9426,0.8341,0.2059,1.5091,-0.2851,
35.523954,4.3933,0.9426,0.8341,-1.6880,2.8138,0.5284,
35.576421,4.3933,0.9426,0.8341,-1.6880,2.8138,0.5284,
35.577596,2.6961,1.4767,-2.8358,-1.6880,2.8138,0.5284,
35.588766,2.6961,1.4767,-2.8358,-0.2715,2.5528,1.2613,
35.642694,2.6961,1.4767,-2.8358,-0.2715,2.5528,1.2613,
35.644715,2.0103,2.8032,-5.7066,-0.2715,2.5528,1.2613,
35.654134,2.0103,2.8032,-5.7066,-1.3153,0.9890,1.3602,
35.708529,2.0103,2.8032,-5.7066,-1.3153,0.9890,1.3602,
35.709949,-1.5090,-1.5736,-3.3917,-1.3153,0.9890,1.3602,
35.719148,-1.5090,-1.5736,-3.3917,-1.3827,1.6012,0.9980,
35.773282,-1.5090,-1.5736,-3.3917,-1.3827,1.6012,0.9980,
35.775543,-2.0136,-1.6044,-1.0493,-1.3827,1.6012,0.9980,
35.785289,-2.0136,-1.6044,-1.0493,1.9050,2.1012,0.7159,
35.839935,-2.0136,-1.6044,-1.0493,1.9050,2.1012,0.7159,
35.841694,-2.8217,-1.9543,-3.4637,1.9050,2.1012,0.7159,
35.851929,-2.8217,-1.9543,-3.4637,1.8741,1.1912,-0.1243,
35.906687,-2.8217,-1.9543,-3.4637,1.8741,1.1912,-0.1243,
35.908782,1.0737,3.7888,7.8194,1.8741,1.1912,-0.1243,
35.916614,1.0737,3.7888,7.8194,-0.0513,1.3596,0.4262,
35.969633,1.0737,3.7888,7.8194,-0.0513,1.3596,0.4262,
35.970750,-1.1658,-2.0848,0.7333,-0.0513,1.3596,0.4262,
35.981785,-1.1658,-2.0848,0.7333,0.3760,-2.7316,1.1090,
36.036256,-1.1658,-2.0848,0.7333,0.3760,-2.7316,1.1090,
36.038108,4.1828,0.8449,-5.5666,0.3760,-2.7316,1.1090,
36.046526,4.1828,0.8449,-5.5666,-0.1914,0.2706,-0.2115,
36.101324,4.1828,0.8449,-5.5666,-0.1914,0.2706,-0.2115,
36.103160,-2.0841,2.1615,-0.6785,-0.1914,0.2706,-0.2115,
36.112949,-2.0841,2.1615,-0.6785,0.2624,-0.6874,-0.4049,
36.166758,-2.0841,2.1615,-0.6785,0.2624,-0.6874,-0.4049,
36.168552,-0.3219,-0.1400,-1.5953,0.2624,-0.6874,-0.4049,
36.177415,-0.3219,-0.1400,-1.5953,1.3974,0.3945,-0.3567,
36.232348,-0.3219,-0.1400,-1.5953,1.3974,0.3945,-0.3567,
36.233649,1.5581,-1.4325,0.4714,1.3974,0.3945,-0.3567,
36.243237,1.5581,-1.4325,0.4714,1.8053,0.3603,-0.6416,
36.297592,1.5581,-1.4325,0.4714,1.8053,0.3603,-0.6416,
36.298704,1.1871,-2.1810,0.7544,1.8053,0.3603,-0.6416,
36.308844,1.1871,-2.1810,0.7544,1.9644,0.4899,-0.5330,
36.362919,1.1871,-2.1810,0.7544,1.9644,0.4899,-0.5330,
36.363674,0.9487,-1.3631,1.0353,1.9644,0.4899,-0.5330,
36.374936,0.9487,-1.3631,1.0353,1.8040,0.3821,-0.6700,
36.428527,0.9487,-1.3631,1.0353,1.8040,0.3821,-0.6700,
36.429985,2.2121,-0.0690,1.7741,1.8040,0.3821,-0.6700,
36.439744,2.2121,-0.0690,1.7741,0.7666,-0.0892,-0.4934,
36.494260,2.2121,-0.0690,1.7741,0.7666,-0.0892,-0.4934,
36.495736,5.4134,0.2962,1.6512,0.7666,-0.0892,-0.4934,
36.505625,5.4134,0.2962,1.6512,-0.2757,0.6802,0.0565,
36.559337,5.4134,0.2962,1.6512,-0.2757,0.6802,0.0565,
36.560370,1.9187,-0.5009,1.2747,-0.2757,0.6802,0.0565,
36.571149,1.9187,-0.5009,1.2747,-2.7364,1.1287,1.0763,
36.626757,1.9187,-0.5009,1.2747,-2.7364,1.1287,1.0763,
36.628597,1.9703,2.9126,-1.3207,-2.7364,1.1287,1.0763,
36.636076,1.9703,2.9126,-1.3207,-0.7214,1.6987,1.5362,
36.692986,1.9703,2.9126,-1.3207,-0.7214,1.6987,1.5362,
36.695701,0.8620,2.6888,-3.3883,-0.7214,1.6987,1.5362,
36.703460,0.8620,2.6888,-3.3883,-0.5661,2.8471,0.4884,
36.755810,0.8620,2.6888,-3.3883,-0.5661,2.8471,0.4884,
36.758106,-2.8858,-1.3628,-3.1680,-0.5661,2.8471,0.4884,
36.766850,-2.8858,-1.3628,-3.1680,-0.7960,0.6245,-0.1901,
36.822316,-2.8858,-1.3628,-3.1680,-0.7960,0.6245,-0.1901,
36.824183,-5.5677,-1.7840,-4.1165,-0.7960,0.6245,-0.1901,
36.833783,-5.5677,-1.7840,-4.1165,-0.0884,0.4772,0.1683,
36.886979,-5.5677,-1.7840,-4.1165,-0.0884,0.4772,0.1683,
36.889203,-3.6968,-1.0065,-2.8848,-0.0884,0.4772,0.1683,
36.898211,-3.6968,-1.0065,-2.8848,-0.9513,3.6791,-0.1231,
36.952332,-3.6968,-1.0065,-2.8848,-0.9513,3.6791,-0.1231,
36.954275,0.3250,1.5323,8.9459,-0.9513,3.6791,-0.1231,
36.964117,0.3250,1.5323,8.9459,0.7827,-1.7303,0.6726,
37.017788,0.3250,1.5323,8.9459,0.7827,-1.7303,0.6726,
37.018713,0.9923,2.1745,-1.0918,0.7827,-1.7303,0.6726,
37.030522,0.9923,2.1745,-1.0918,0.4782,-1.0350,1.7943,
37.083765,0.9923,2.1745,-1.0918,0.4782,-1.0350,1.7943,
37.085535,0.7250,-2.0121,-4.9307,0.4782,-1.0350,1.7943,
37.094217,0.7250,-2.0121,-4.9307,1.5273,-0.7676,-1.6273,
37.148617,0.7250,-2.0121,-4.9307,1.5273,-0.7676,-1.6273,
37.150363,-1.2990,0.5532,-2.7191,1.5273,-0.7676,-1.6273,
37.160564,-1.2990,0.5532,-2.7191,0.9878,0.5597,-0.0180,
37.213862,-1.2990,0.5532,-2.7191,0.9878,0.5597,-0.0180,
37.215453,0.0033,0.1649,0.0083,0.9878,0.5597,-0.0180,
37.226766,0.0033,0.1649,0.0083,0.8853,-2.2113,-0.3106,
37.278910,0.0033,0.1649,0.0083,0.8853,-2.2113,-0.3106,
37.280022,-0.2196,-2.0655,0.2382,0.8853,-2.2113,-0.3106,
37.291320,-0.2196,-2.0655,0.2382,0.8867,-1.1706,-0.6506,
37.345735,-0.2196,-2.0655,0.2382,0.8867,-1.1706,-0.6506,
37.347044,0.7696,-1.3152,0.4235,0.8867,-1.1706,-0.6506,
37.356270,0.7696,-1.3152,0.4235,0.9785,0.0542,-0.6776,
37.410424,0.7696,-1.3152,0.4235,0.9785,0.0542,-0.6776,
37.411989,0.5943,-0.0405,1.7638,0.9785,0.0542,-0.6776,
37.423424,0.5943,-0.0405,1.7638,1.2970,-0.0327,-0.4068,
37.476472,0.5943,-0.0405,1.7638,1.2970,-0.0327,-0.4068,
37.477937,2.1956,0.1658,0.2600,1.2970,-0.0327,-0.4068,
37.489174,2.1956,0.1658,0.2600,0.0670,-0.7030,-0.1497,
37.542625,2.1956,0.1658,0.2600,0.0670,-0.7030,-0.1497,
37.543913,5.4501,2.2341,1.7291,0.0670,-0.7030,-0.1497,
37.553985,5.4501,2.2341,1.7291,-1.9196,-1.4795,0.7842,
37.608469,5.4501,2.2341,1.7291,-1.9196,-1.4795,0.7842,
37.610269,-0.9093,-0.2227,0.0827,-1.9196,-1.4795,0.7842,
37.619600,-0.9093,-0.2227,0.0827,-2.4493,1.8297,1.6400,
37.673182,-0.9093,-0.2227,0.0827,-2.4493,1.8297,1.6400,
37.674987,3.3447,4.7697,-1.7551,-2.4493,1.8297,1.6400,
37.683861,3.3447,4.7697,-1.7551,-0.7324,1.3596,1.0834,
37.739068,3.3447,4.7697,-1.7551,-0.7324,1.3596,1.0834,
37.740684,-1.3786,0.4610,-2.5346,-0.7324,1.3596,1.0834,
37.749752,-1.3786,0.4610,-2.5346,-1.8153,0.8984,0.0490,
37.804892,-1.3786,0.4610,-2.5346,-1.8153,0.8984,0.0490,
37.807113,-4.2960,-2.6180,-3.0512,-1.8153,0.8984,0.0490,
37.816076,-4.2960,-2.6180,-3.0512,-0.7329,0.7741,0.1834,
37.870045,-4.2960,-2.6180,-3.0512,-0.7329,0.7741,0.1834,
37.871677,-3.9173,-3.4458,-2.6943,-0.7329,0.7741,0.1834,
37.881738,-3.9173,-3.4458,-2.6943,0.6784,0.9730,0.2689,
37.936363,-3.9173,-3.4458,-2.6943,0.6784,0.9730,0.2689,
37.937832,2.2058,0.9501,5.3705,0.6784,0.9730,0.2689,
37.946894,2.2058,0.9501,5.3705,0.4731,2.5229,0.9308,
38.000332,2.2058,0.9501,5.3705,0.4731,2.5229,0.9308,
38.002317,2.3982,1.4940,3.5893,0.4731,2.5229,0.9308,
38.011908,2.3982,1.4940,3.5893,0.3815,0.6132,0.1776,
38.065663,2.3982,1.4940,3.5893,0.3815,0.6132,0.1776,
38.066768,-0.5708,2.3737,-0.5811,0.3815,0.6132,0.1776,
38.079423,-0.5708,2.3737,-0.5811,0.2944,-0.7857,-0.4148,
38.131284,-0.5708,2.3737,-0.5811,0.2944,-0.7857,-0.4148,
38.132403,-2.6739,1.9556,-4.8029,0.2944,-0.7857,-0.4148,
38.143226,-2.6739,1.9556,-4.8029,1.3618,-2.4456,-0.6271,
38.195666,-2.6739,1.9556,-4.8029,1.3618,-2.4456,-0.6271,
38.196271,-1.6529,-0.4253,-3.8466,1.3618,-2.4456,-0.6271,
38.208164,-1.6529,-0.4253,-3.8466,1.0944,-0.2030,-0.4975,
38.262121,-1.6529,-0.4253,-3.8466,1.0944,-0.2030,-0.4975,
38.263623,0.1654,-2.0638,0.8890,1.0944,-0.2030,-0.4975,
38.273510,0.1654,-2.0638,0.8890,1.5180,-0.6226,-0.5289,
38.327817,0.1654,-2.0638,0.8890,1.5180,-0.6226,-0.5289,
38.329969,1.1387,-0.9425,0.7299,1.5180,-0.6226,-0.5289,
38.338810,1.1387,-0.9425,0.7299,0.4936,-1.6884,-0.3972,
38.392654,1.1387,-0.9425,0.7299,0.4936,-1.6884,-0.3972,
38.394229,0.7083,-1.6851,0.8694,0.4936,-1.6884,-0.3972,
38.403563,0.7083,-1.6851,0.8694,0.9613,-0.1469,-0.6420,
38.458202,0.7083,-1.6851,0.8694,0.9613,-0.1469,-0.6420,
38.459569,2.0617,-0.9087,3.1877,0.9613,-0.1469,-0.6420,
38.469896,2.0617,-0.9087,3.1877,0.9169,-1.0739,-0.5247,
38.524165,2.0617,-0.9087,3.1877,0.9169,-1.0739,-0.5247,
38.526302,4.3581,0.1142,0.4550,0.9169,-1.0739,-0.5247,
38.535917,4.3581,0.1142,0.4550,-0.4462,0.3604,0.1541,
38.590716,4.3581,0.1142,0.4550,-0.4462,0.3604,0.1541,
38.592344,4.3790,1.3945,0.9856,-0.4462,0.3604,0.1541,
38.600560,4.3790,1.3945,0.9856,-2.0137,0.4612,0.9033,
38.655758,4.3790,1.3945,0.9856,-2.0137,0.4612,0.9033,
38.657541,0.4430,1.8572,-0.6881,-2.0137,0.4612,0.9033,
38.666937,0.4430,1.8572,-0.6881,-1.2298,2.1344,1.7324,
38.721354,0.4430,1.8572,-0.6881,-1.2298,2.1344,1.7324,
38.722453,1.9015,5.3289,-4.1680,-1.2298,2.1344,1.7324,
38.732115,1.9015,5.3289,-4.1680,-0.7836,2.1649,0.2563,
38.786920,1.9015,5.3289,-4.1680,-0.7836,2.1649,0.2563,
38.788413,-3.0057,-1.1918,-2.7626,-0.7836,2.1649,0.2563,
38.797651,-3.0057,-1.1918,-2.7626,-1.7194,1.0311,-0.4316,
38.851226,-3.0057,-1.1918,-2.7626,-1.7194,1.0311,-0.4316,
38.852327,-5.1423,-3.4020,-2.9112,-1.7194,1.0311,-0.4316,
38.863441,-5.1423,-3.4020,-2.9112,-0.7080,0.7871,0.0170,
38.915962,-5.1423,-3.4020,-2.9112,-0.7080,0.7871,0.0170,
38.917581,-3.5500,-3.2850,-2.4317,-0.7080,0.7871,0.0170,
38.928688,-3.5500,-3.2850,-2.4317,1.0195,1.0237,0.1834,
38.982041,-3.5500,-3.2850,-2.4317,1.0195,1.0237,0.1834,
38.983433,0.4520,0.3136,2.8241,1.0195,1.0237,0.1834,
38.993421,0.4520,0.3136,2.8241,0.5206,2.3497,0.5811,
39.048146,0.4520,0.3136,2.8241,0.5206,2.3497,0.5811,
39.050179,1.7134,3.4148,6.3549,0.5206,2.3497,0.5811,
39.059508,1.7134,3.4148,6.3549,-0.4687,-0.4980,0.3442,
39.112211,1.7134,3.4148,6.3549,-0.4687,-0.4980,0.3442,
39.112703,0.9000,3.0967,-0.4212,-0.4687,-0.4980,0.3442,
39.124537,0.9000,3.0967,-0.4212,-0.1633,0.1043,0.4200,
39.179446,0.9000,3.0967,-0.4212,-0.1633,0.1043,0.4200,
39.181510,-1.8431,-1.7257,-3.9357,-0.1633,0.1043,0.4200,
39.191028,-1.8431,-1.7257,-3.9357,1.8627,-3.6342,-1.7391,
39.244694,-1.8431,-1.7257,-3.9357,1.8627,-3.6342,-1.7391,
39.246575,-1.2968,3.0800,-5.7057,1.8627,-3.6342,-1.7391,
39.256191,-1.2968,3.0800,-5.7057,1.1538,-0.8952,-0.1008,
39.309210,-1.2968,3.0800,-5.7057,1.1538,-0.8952,-0.1008,
39.310228,1.0160,-1.8296,-0.2937,1.1538,-0.8952,-0.1008,
39.321690,1.0160,-1.8296,-0.2937,0.4334,-0.9174,-0.4479,
39.376136,1.0160,-1.8296,-0.2937,0.4334,-0.9174,-0.4479,
39.377937,1.3308,-0.8496,0.0818,0.4334,-0.9174,-0.4479,
39.387726,1.3308,-0.8496,0.0818,1.2642,-0.6666,-0.5895,
39.440132,1.3308,-0.8496,0.0818,1.2642,-0.6666,-0.5895,
39.442428,0.3835,-2.5671,1.3338,1.2642,-0.6666,-0.5895,
39.451645,0.3835,-2.5671,1.3338,1.9108,0.6823,-0.7353,
39.506346,0.3835,-2.5671,1.3338,1.9108,0.6823,-0.7353,
39.507954,0.7467,0.7425,2.9461,1.9108,0.6823,-0.7353,
39.516989,0.7467,0.7425,2.9461,0.6301,-0.9235,-0.1599,
39.573940,0.7467,0.7425,2.9461,0.6301,-0.9235,-0.1599,
39.575561,2.7133,-0.9754,0.4685,0.6301,-0.9235,-0.1599,
39.584504,2.7133,-0.9754,0.4685,-1.0189,-0.3407,0.0735,
39.637243,2.7133,-0.9754,0.4685,-1.0189,-0.3407,0.0735,
39.638826,7.1619,1.8798,1.3799,-1.0189,-0.3407,0.0735,
39.649167,7.1619,1.8798,1.3799,-0.6562,-0.2976,0.6829,
39.702107,7.1619,1.8798,1.3799,-0.6562,-0.2976,0.6829,
39.703304,0.5794,0.3069,-0.4202,-0.6562,-0.2976,0.6829,
39.713050,0.5794,0.3069,-0.4202,-1.2778,3.9418,0.8810,
39.767850,0.5794,0.3069,-0.4202,-1.2778,3.9418,0.8810,
39.768962,0.7173,3.3355,-2.3190,-1.2778,3.9418,0.8810,
39.779216,0.7173,3.3355,-2.3190,0.2285,0.5087,0.8908,
39.833595,0.7173,3.3355,-2.3190,0.2285,0.5087,0.8908,
39.835242,-2.5882,0.7573,-4.0987,0.2285,0.5087,0.8908,
39.845199,-2.5882,0.7573,-4.0987,-2.2877,0.6726,0.2369,
39.899784,-2.5882,0.7573,-4.0987,-2.2877,0.6726,0.2369,
39.901513,-3.8151,-2.9064,-3.3299,-2.2877,0.6726,0.2369,
39.911583,-3.8151,-2.9064,-3.3299,-1.5408,1.3587,0.2341,
39.963863,-3.8151,-2.9064,-3.3299,-1.5408,1.3587,0.2341,
39.965967,-2.7119,-2.4774,-1.6741,-1.5408,1.3587,0.2341,
39.976099,-2.7119,-2.4774,-1.6741,0.5609,2.0982,0.2344,
40.029948,-2.7119,-2.4774,-1.6741,0.5609,2.0982,0.2344,
40.031263,-1.0883,-1.5440,2.3313,0.5609,2.0982,0.2344,
40.041490,-1.0883,-1.5440,2.3313,1.2898,0.3955,0.3885,
40.095408,-1.0883,-1.5440,2.3313,1.2898,0.3955,0.3885,
40.096535,3.8372,4.2206,7.8228,1.2898,0.3955,0.3885,
40.106845,3.8372,4.2206,7.8228,-0.3155,0.7494,0.8453,
40.160395,3.8372,4.2206,7.8228,-0.3155,0.7494,0.8453,
40.162834,-0.0076,1.7742,-0.2038,-0.3155,0.7494,0.8453,
40.172067,-0.0076,1.7742,-0.2038,-0.3807,-0.5516,0.4563,
40.225222,-0.0076,1.7742,-0.2038,-0.3807,-0.5516,0.4563,
40.225796,-1.7945,-0.8149,-3.8359,-0.3807,-0.5516,0.4563,
40.237828,-1.7945,-0.8149,-3.8359,1.3546,-1.9610,-0.9331,
40.292199,-1.7945,-0.8149,-3.8359,1.3546,-1.9610,-0.9331,
40.293954,-0.1737,3.3739,-6.4364,1.3546,-1.9610,-0.9331,
40.303742,-0.1737,3.3739,-6.4364,1.3725,0.3541,-0.4658,
40.358123,-0.1737,3.3739,-6.4364,1.3725,0.3541,-0.4658,
40.361847,-0.0012,-1.1126,0.0045,1.3725,0.3541,-0.4658,
40.369697,-0.0012,-1.1126,0.0045,0.1286,-0.2402,-0.2688,
40.424055,-0.0012,-1.1126,0.0045,0.1286,-0.2402,-0.2688,
40.426667,-0.3411,-1.5873,1.6948,0.1286,-0.2402,-0.2688,
40.433337,-0.3411,-1.5873,1.6948,1.2834,-2.2413,-0.5501,
40.487975,-0.3411,-1.5873,1.6948,1.2834,-2.2413,-0.5501,
40.490303,0.7104,-1.6298,0.9811,1.2834,-2.2413,-0.5501,
40.499702,0.7104,-1.6298,0.9811,1.2063,0.3726,-0.8347,
40.555154,0.7104,-1.6298,0.9811,1.2063,0.3726,-0.8347,
40.557617,2.2411,-0.7754,1.5606,1.2063,0.3726,-0.8347,
40.566527,2.2411,-0.7754,1.5606,1.0003,-0.3557,-0.3453,
40.620672,2.2411,-0.7754,1.5606,1.0003,-0.3557,-0.3453,
40.622383,1.9051,-1.2690,0.7400,1.0003,-0.3557,-0.3453,
40.630553,1.9051,-1.2690,0.7400,0.0524,0.0151,-0.1489,
40.685463,1.9051,-1.2690,0.7400,0.0524,0.0151,-0.1489,
40.687000,5.8614,1.4522,2.2730,0.0524,0.0151,-0.1489,
40.697249,5.8614,1.4522,2.2730,-0.7813,-0.6871,0.6674,
40.749741,5.8614,1.4522,2.2730,-0.7813,-0.6871,0.6674,
40.750785,1.8201,0.8000,-0.3898,-0.7813,-0.6871,0.6674,
40.762741,1.8201,0.8000,-0.3898,-2.4024,2.3615,0.7909,
40.816868,1.8201,0.8000,-0.3898,-2.4024,2.3615,0.7909,
40.818788,0.9625,1.9687,-0.6166,-2.4024,2.3615,0.7909,
40.827411,0.9625,1.9687,-0.6166,-0.0147,0.5359,1.2277,
40.881383,0.9625,1.9687,-0.6166,-0.0147,0.5359,1.2277,
40.882660,-0.2978,1.2712,-3.5471,-0.0147,0.5359,1.2277,
40.892881,-0.2978,1.2712,-3.5471,-1.2142,1.4004,0.6863,
40.947840,-0.2978,1.2712,-3.5471,-1.2142,1.4004,0.6863,
40.949444,-3.2480,-2.5333,-2.8068,-1.2142,1.4004,0.6863,
40.960899,-3.2480,-2.5333,-2.8068,-0.3838,1.8804,0.2899,
41.014240,-3.2480,-2.5333,-2.8068,-0.3838,1.8804,0.2899,
41.015685,-2.4277,-1.2576,-1.9524,-0.3838,1.8804,0.2899,
41.024502,-2.4277,-1.2576,-1.9524,0.7744,0.9862,0.7637,
41.078451,-2.4277,-1.2576,-1.9524,0.7744,0.9862,0.7637,
41.079928,-1.5520,-1.1205,-1.7528,0.7744,0.9862,0.7637,
41.089403,-1.5520,-1.1205,-1.7528,0.1923,2.1950,0.2095,
41.143546,-1.5520,-1.1205,-1.7528,0.1923,2.1950,0.2095,
41.144822,2.6420,0.9249,6.9355,0.1923,2.1950,0.2095,
41.157574,2.6420,0.9249,6.9355,0.7547,0.9493,0.3540,
41.209240,2.6420,0.9249,6.9355,0.7547,0.9493,0.3540,
41.211008,1.6729,-0.2847,-0.4717,0.7547,0.9493,0.3540,
41.220768,1.6729,-0.2847,-0.4717,0.4261,-0.1573,0.8121,
41.276182,1.6729,-0.2847,-0.4717,0.4261,-0.1573,0.8121,
41.278485,0.6392,1.6002,-2.6702,0.4261,-0.1573,0.8121,
41.286772,0.6392,1.6002,-2.6702,0.6445,-1.2756,-0.7860,
41.339047,0.6392,1.6002,-2.6702,0.6445,-1.2756,-0.7860,
41.340757,-2.3552,1.0618,-5.0783,0.6445,-1.2756,-0.7860,
41.351617,-2.3552,1.0618,-5.0783,1.0592,-0.0116,-0.4795,
41.405459,-2.3552,1.0618,-5.0783,1.0592,-0.0116,-0.4795,
41.407223,-1.1401,-0.0442,-2.7839,1.0592,-0.0116,-0.4795,
41.416324,-1.1401,-0.0442,-2.7839,1.5948,-0.0625,-0.2715,
41.471090,-1.1401,-0.0442,-2.7839,1.5948,-0.0625,-0.2715,
41.472856,-0.5882,-0.8262,0.7338,1.5948,-0.0625,-0.2715,
41.482683,-0.5882,-0.8262,0.7338,0.2744,-0.2578,-0.6355,
41.535805,-0.5882,-0.8262,0.7338,0.2744,-0.2578,-0.6355,
41.537022,1.2820,-1.4993,0.9176,0.2744,-0.2578,-0.6355,
41.548005,1.2820,-1.4993,0.9176,1.0171,-1.1245,-0.5527,
41.600813,1.2820,-1.4993,0.9176,1.0171,-1.1245,-0.5527,
41.602699,2.4630,-1.9017,1.2154,1.0171,-1.1245,-0.5527,
41.612361,2.4630,-1.9017,1.2154,0.9844,0.4276,-0.8094,
41.667455,2.4630,-1.9017,1.2154,0.9844,0.4276,-0.8094,
41.668604,2.5945,-2.1003,2.4834,0.9844,0.4276,-0.8094,
41.678475,2.5945,-2.1003,2.4834,1.0875,-0.0606,-0.6631,
41.733041,2.5945,-2.1003,2.4834,1.0875,-0.0606,-0.6631,
41.734355,3.5593,0.5627,0.8251,1.0875,-0.0606,-0.6631,
41.743885,3.5593,0.5627,0.8251,0.5001,1.8754,-0.1110,
41.798553,3.5593,0.5627,0.8251,0.5001,1.8754,-0.1110,
41.799756,4.3735,1.3612,-0.1183,0.5001,1.8754,-0.1110,
41.809296,4.3735,1.3612,-0.1183,-1.6878,1.9900,0.4667,
41.864329,4.3735,1.3612,-0.1183,-1.6878,1.9900,0.4667,
41.866332,1.0665,-0.1000,-1.5836,-1.6878,1.9900,0.4667,
41.876043,1.0665,-0.1000,-1.5836,-1.0574,2.9230,1.3882,
41.929701,1.0665,-0.1000,-1.5836,-1.0574,2.9230,1.3882,
41.931250,3.2108,4.4636,-5.4630,-1.0574,2.9230,1.3882,
41.940873,3.2108,4.4636,-5.4630,-1.5530,1.3619,1.1067,
41.994703,3.2108,4.4636,-5.4630,-1.5530,1.3619,1.1067,
41.996407,-1.1669,0.1372,-3.2421,-1.5530,1.3619,1.1067,
42.006826,-1.1669,0.1372,-3.2421,-1.8677,2.0658,0.4985,
42.059381,-1.1669,0.1372,-3.2421,-1.8677,2.0658,0.4985,
42.060385,-3.1127,-1.0939,-1.6460,-1.8677,2.0658,0.4985,
42.071700,-3.1127,-1.0939,-1.6460,0.5974,1.5589,1.0263,
42.124767,-3.1127,-1.0939,-1.6460,0.5974,1.5589,1.0263,
42.125854,-2.9693,-2.5387,-3.1058,0.5974,1.5589,1.0263,
42.137828,-2.9693,-2.5387,-3.1058,1.2666,1.2562,0.5121,
42.192141,-2.9693,-2.5387,-3.1058,1.2666,1.2562,0.5121,
42.194341,-0.1622,0.3916,3.2907,1.2666,1.2562,0.5121,
42.203403,-0.1622,0.3916,3.2907,1.3416,2.6799,-0.1222,
42.256497,-0.1622,0.3916,3.2907,1.3416,2.6799,-0.1222,
42.257948,0.8897,3.7187,7.2915,1.3416,2.6799,-0.1222,
42.268626,0.8897,3.7187,7.2915,0.0693,-0.4456,0.6858,
42.322682,0.8897,3.7187,7.2915,0.0693,-0.4456,0.6858,
42.324392,2.0116,-3.2327,-3.2821,0.0693,-0.4456,0.6858,
42.333954,2.0116,-3.2327,-3.2821,1.4865,-0.2324,0.3743,
42.386802,2.0116,-3.2327,-3.2821,1.4865,-0.2324,0.3743,
42.388731,0.6372,1.5294,-3.2115,1.4865,-0.2324,0.3743,
42.398718,0.6372,1.5294,-3.2115,1.4867,-0.1332,-1.3914,
42.453644,0.6372,1.5294,-3.2115,1.4867,-0.1332,-1.3914,
42.455140,-1.1962,-0.4250,-2.5412,1.4867,-0.1332,-1.3914,
42.465161,-1.1962,-0.4250,-2.5412,1.2735,-0.5215,0.4722,
42.518806,-1.1962,-0.4250,-2.5412,1.2735,-0.5215,0.4722,
42.520519,-0.4196,-1.7175,-1.3588,1.2735,-0.5215,0.4722,
42.529512,-0.4196,-1.7175,-1.3588,1.6275,-0.4679,-0.1810,
42.584125,-0.4196,-1.7175,-1.3588,1.6275,-0.4679,-0.1810,
42.586135,-0.9242,-0.3530,0.6619,1.6275,-0.4679,-0.1810,
42.594821,-0.9242,-0.3530,0.6619,1.2932,0.0205,-0.2587,
42.650420,-0.9242,-0.3530,0.6619,1.2932,0.0205,-0.2587,
42.651978,0.9449,-1.0253,1.3385,1.2932,0.0205,-0.2587,
42.661314,0.9449,-1.0253,1.3385,0.8132,-0.5783,-0.3600,
42.715947,0.9449,-1.0253,1.3385,0.8132,-0.5783,-0.3600,
42.719247,0.9933,-0.7425,2.5661,0.8132,-0.5783,-0.3600,
42.727138,0.9933,-0.7425,2.5661,0.7572,-0.8688,-0.3164,
42.780638,0.9933,-0.7425,2.5661,0.7572,-0.8688,-0.3164,
42.782405,3.0092,0.2715,0.0570,0.7572,-0.8688,-0.3164,
42.792874,3.0092,0.2715,0.0570,-0.6309,-0.2732,-0.0273,
42.845090,3.0092,0.2715,0.0570,-0.6309,-0.2732,-0.0273,
42.846559,6.3755,1.5668,2.3218,-0.6309,-0.2732,-0.0273,
42.857173,6.3755,1.5668,2.3218,-1.7249,-0.4458,0.7121,
42.912176,6.3755,1.5668,2.3218,-1.7249,-0.4458,0.7121,
42.914318,0.0170,1.4097,-0.4670,-1.7249,-0.4458,0.7121,
42.923395,0.0170,1.4097,-0.4670,-1.6087,2.0882,1.4974,
42.976072,0.0170,1.4097,-0.4670,-1.6087,2.0882,1.4974,
42.976724,2.6387,7.0396,-3.8441,-1.6087,2.0882,1.4974,
42.988679,2.6387,7.0396,-3.8441,-0.7033,2.4922,0.1695,
43.042736,2.6387,7.0396,-3.8441,-0.7033,2.4922,0.1695,
43.044441,-2.3664,-0.1676,-2.8907,-0.7033,2.4922,0.1695,
43.054456,-2.3664,-0.1676,-2.8907,-1.8021,1.2703,-0.2521,
43.107672,-2.3664,-0.1676,-2.8907,-1.8021,1.2703,-0.2521,
43.109502,-3.5674,-2.7095,-3.6176,-1.8021,1.2703,-0.2521,
43.119252,-3.5674,-2.7095,-3.6176,-1.3460,0.4746,-0.0241,
43.172907,-3.5674,-2.7095,-3.6176,-1.3460,0.4746,-0.0241,
43.174116,-3.4642,-3.4865,-4.5937,-1.3460,0.4746,-0.0241,
43.183738,-3.4642,-3.4865,-4.5937,0.5690,1.7735,0.2240,
43.239474,-3.4642,-3.4865,-4.5937,0.5690,1.7735,0.2240,
43.241429,-2.7968,-2.3181,-2.4697,0.5690,1.7735,0.2240,
43.250070,-2.7968,-2.3181,-2.4697,0.1396,1.4459,0.6981,
43.303976,-2.7968,-2.3181,-2.4697,0.1396,1.4459,0.6981,
43.306209,2.5052,3.1479,8.7853,0.1396,1.4459,0.6981,
43.315032,2.5052,3.1479,8.7853,0.6726,2.0896,0.4830,
43.369182,2.5052,3.1479,8.7853,0.6726,2.0896,0.4830,
43.370738,-2.8214,-1.3196,0.7775,0.6726,2.0896,0.4830,
43.380741,-2.8214,-1.3196,0.7775,-0.0605,-1.6558,0.0339,
43.435566,-2.8214,-1.3196,0.7775,-0.0605,-1.6558,0.0339,
43.437032,-0.3696,4.3041,-0.5010,-0.0605,-1.6558,0.0339,
43.446196,-0.3696,4.3041,-0.5010,0.9920,-3.1356,0.2078,
43.501462,-0.3696,4.3041,-0.5010,0.9920,-3.1356,0.2078,
43.503079,-1.0818,2.3806,-4.6876,0.9920,-3.1356,0.2078,
43.513005,-1.0818,2.3806,-4.6876,0.2709,-1.6452,-0.7159,
43.565730,-1.0818,2.3806,-4.6876,0.2709,-1.6452,-0.7159,
43.567454,-0.0868,-1.2743,-4.0803,0.2709,-1.6452,-0.7159,
43.577134,-0.0868,-1.2743,-4.0803,1.5272,0.6874,-0.2185,
43.630559,-0.0868,-1.2743,-4.0803,1.5272,0.6874,-0.2185,
43.632223,0.7914,-0.9448,2.2317,1.5272,0.6874,-0.2185,
43.642331,0.7914,-0.9448,2.2317,0.5722,-2.9050,-0.5472,
43.695712,0.7914,-0.9448,2.2317,0.5722,-2.9050,-0.5472,
43.697370,0.7594,-2.1984,0.7753,0.5722,-2.9050,-0.5472,
43.707695,0.7594,-2.1984,0.7753,-0.0916,-2.7043,-0.2390,
43.762500,0.7594,-2.1984,0.7753,-0.0916,-2.7043,-0.2390,
43.763801,1.5125,-1.6570,1.6255,-0.0916,-2.7043,-0.2390,
43.774461,1.5125,-1.6570,1.6255,1.1542,0.4774,-0.6782,
43.827330,1.5125,-1.6570,1.6255,1.1542,0.4774,-0.6782,
43.828785,0.4128,-1.2803,2.2471,1.1542,0.4774,-0.6782,
43.838660,0.4128,-1.2803,2.2471,1.8473,1.5307,-0.5328,
43.892533,0.4128,-1.2803,2.2471,1.8473,1.5307,-0.5328,
43.894140,3.0125,0.3567,-0.2260,1.8473,1.5307,-0.5328,
43.904259,3.0125,0.3567,-0.2260,0.4907,0.8514,-0.1110,
43.957712,3.0125,0.3567,-0.2260,0.4907,0.8514,-0.1110,
43.959126,4.0772,1.9955,1.1123,0.4907,0.8514,-0.1110,
43.969781,4.0772,1.9955,1.1123,-2.1504,-2.5123,0.9024,
44.023533,4.0772,1.9955,1.1123,-2.1504,-2.5123,0.9024,
44.025288,0.6546,0.6891,1.6843,-2.1504,-2.5123,0.9024,
44.035588,0.6546,0.6891,1.6843,-2.5062,0.5235,1.6251,
44.088679,0.6546,0.6891,1.6843,-2.5062,0.5235,1.6251,
44.089852,1.2552,3.1956,-0.7181,-2.5062,0.5235,1.6251,
44.101374,1.2552,3.1956,-0.7181,-0.1628,2.4201,1.3441,
44.153985,1.2552,3.1956,-0.7181,-0.1628,2.4201,1.3441,
44.155076,-0.5965,2.5321,-2.2424,-0.1628,2.4201,1.3441,
44.166198,-0.5965,2.5321,-2.2424,-1.1289,1.8379,0.1578,
44.220142,-0.5965,2.5321,-2.2424,-1.1289,1.8379,0.1578,
44.221244,-3.4783,-1.1815,-3.1405,-1.1289,1.8379,0.1578,
44.231171,-3.4783,-1.1815,-3.1405,-1.2362,0.7437,0.2485,
44.285522,-3.4783,-1.1815,-3.1405,-1.2362,0.7437,0.2485,
44.287025,-3.0865,-2.6425,-3.5129,-1.2362,0.7437,0.2485,
44.297568,-3.0865,-2.6425,-3.5129,0.5406,2.1028,0.4468,
44.350912,-3.0865,-2.6425,-3.5129,0.5406,2.1028,0.4468,
44.352361,-2.1224,-3.4513,-2.6157,0.5406,2.1028,0.4468,
44.362718,-2.1224,-3.4513,-2.6157,0.9719,1.3671,0.3071,
44.416790,-2.1224,-3.4513,-2.6157,0.9719,1.3671,0.3071,
44.418518,4.1423,2.8222,8.0856,0.9719,1.3671,0.3071,
44.427808,4.1423,2.8222,8.0856,0.8758,2.1823,0.6254,
44.481492,4.1423,2.8222,8.0856,0.8758,2.1823,0.6254,
44.482478,-0.8410,0.6671,3.6313,0.8758,2.1823,0.6254,
44.493383,-0.8410,0.6671,3.6313,1.0777,-0.3540,-0.2712,
44.547237,-0.8410,0.6671,3.6313,1.0777,-0.3540,-0.2712,
44.548337,-0.6685,4.1619,-6.1546,1.0777,-0.3540,-0.2712,
44.558815,-0.6685,4.1619,-6.1546,0.6374,-1.7982,-0.2576,
44.612851,-0.6685,4.1619,-6.1546,0.6374,-1.7982,-0.2576,
44.613968,-1.7616,-1.0923,-4.7028,0.6374,-1.7982,-0.2576,
44.624235,-1.7616,-1.0923,-4.7028,0.3274,-0.6652,-0.3616,
44.678259,-1.7616,-1.0923,-4.7028,0.3274,-0.6652,-0.3616,
44.679365,-0.6361,-0.8816,-2.7323,0.3274,-0.6652,-0.3616,
44.691165,-0.6361,-0.8816,-2.7323,1.5863,0.2063,-0.2920,
44.745451,-0.6361,-0.8816,-2.7323,1.5863,0.2063,-0.2920,
44.746940,0.9977,-0.7434,1.0021,1.5863,0.2063,-0.2920,
44.755717,0.9977,-0.7434,1.0021,0.3018,-1.0447,-0.1452,
44.808544,0.9977,-0.7434,1.0021,0.3018,-1.0447,-0.1452,
44.809268,1.1723,-1.2607,1.1257,0.3018,-1.0447,-0.1452,
44.820855,1.1723,-1.2607,1.1257,0.3563,-1.8152,-0.3300,
44.874343,1.1723,-1.2607,1.1257,0.3563,-1.8152,-0.3300,
44.875823,0.4256,-0.6088,1.6296,0.3563,-1.8152,-0.3300,
44.886566,0.4256,-0.6088,1.6296,1.3405,0.4801,-0.4661,
44.940820,0.4256,-0.6088,1.6296,1.3405,0.4801,-0.4661,
44.942545,1.0926,-0.6260,1.0630,1.3405,0.4801,-0.4661,
44.952136,1.0926,-0.6260,1.0630,1.3306,-0.0185,-0.4893,
45.004900,1.0926,-0.6260,1.0630,1.3306,-0.0185,-0.4893,
45.006515,3.2351,0.2882,1.8189,1.3306,-0.0185,-0.4893,
45.018153,3.2351,0.2882,1.8189,-0.1491,-0.5779,0.2078,
45.070914,3.2351,0.2882,1.8189,-0.1491,-0.5779,0.2078,
45.071942,6.7772,1.4889,0.0531,-0.1491,-0.5779,0.2078,
45.083091,6.7772,1.4889,0.0531,-1.4774,0.1139,0.7139,
45.136628,6.7772,1.4889,0.0531,-1.4774,0.1139,0.7139,
45.138374,0.7154,-0.2763,0.3544,-1.4774,0.1139,0.7139,
45.148284,0.7154,-0.2763,0.3544,-1.6165,2.6341,1.1148,
45.201738,0.7154,-0.2763,0.3544,-1.6165,2.6341,1.1148,
45.203331,1.4928,3.2049,-3.4119,-1.6165,2.6341,1.1148,
45.213804,1.4928,3.2049,-3.4119,-0.5547,1.4296,0.9835,
45.267793,1.4928,3.2049,-3.4119,-0.5547,1.4296,0.9835,
45.269441,-0.9410,1.2433,-3.1333,-0.5547,1.4296,0.9835,
45.279288,-0.9410,1.2433,-3.1333,-1.2654,2.1484,0.7239,
45.332707,-0.9410,1.2433,-3.1333,-1.2654,2.1484,0.7239,
45.333877,-2.7670,-0.3856,-2.9326,-1.2654,2.1484,0.7239,
45.344536,-2.7670,-0.3856,-2.9326,-0.3473,1.8060,1.0261,
45.399053,-2.7670,-0.3856,-2.9326,-0.3473,1.8060,1.0261,
45.400056,-1.8821,-1.0693,-2.7033,-0.3473,1.8060,1.0261,
45.409842,-1.8821,-1.0693,-2.7033,0.5147,1.3363,1.0527,
45.465208,-1.8821,-1.0693,-2.7033,0.5147,1.3363,1.0527,
45.466287,-3.4290,-3.4156,-3.3822,0.5147,1.3363,1.0527,
45.475983,-3.4290,-3.4156,-3.3822,0.7540,1.6466,-0.6115,
45.529976,-3.4290,-3.4156,-3.3822,0.7540,1.6466,-0.6115,
45.531562,1.4943,3.7921,8.8625,0.7540,1.6466,-0.6115,
45.541635,1.4943,3.7921,8.8625,1.0498,1.2546,-0.1749,
45.594850,1.4943,3.7921,8.8625,1.0498,1.2546,-0.1749,
45.596512,-1.0080,-0.2448,1.1420,1.0498,1.2546,-0.1749,
45.606053,-1.0080,-0.2448,1.1420,0.3974,-1.0357,0.4751,
45.662060,-1.0080,-0.2448,1.1420,0.3974,-1.0357,0.4751,
45.663896,1.2686,1.4115,-4.4065,0.3974,-1.0357,0.4751,
45.672214,1.2686,1.4115,-4.4065,0.3877,-3.3723,0.0324,
45.727978,1.2686,1.4115,-4.4065,0.3877,-3.3723,0.0324,
45.729806,-0.0257,1.3539,-2.9808,0.3877,-3.3723,0.0324,
45.737429,-0.0257,1.3539,-2.9808,-0.1640,-0.3738,-1.1729,
45.791141,-0.0257,1.3539,-2.9808,-0.1640,-0.3738,-1.1729,
45.792163,0.4373,-1.2692,1.0231,-0.1640,-0.3738,-1.1729,
45.802532,0.4373,-1.2692,1.0231,1.4516,0.0848,-0.5397,
45.856252,0.4373,-1.2692,1.0231,1.4516,0.0848,-0.5397,
45.857399,0.6062,-1.2187,-0.5274,1.4516,0.0848,-0.5397,
45.868515,0.6062,-1.2187,-0.5274,1.9881,1.5600,-0.6063,
45.921731,0.6062,-1.2187,-0.5274,1.9881,1.5600,-0.6063,
45.922286,0.0941,-2.2330,0.3152,1.9881,1.5600,-0.6063,
45.934183,0.0941,-2.2330,0.3152,2.0226,0.9442,-0.3427,
45.988230,0.0941,-2.2330,0.3152,2.0226,0.9442,-0.3427,
45.989304,0.2134,-1.2821,0.4006,2.0226,0.9442,-0.3427,
46.000779,0.2134,-1.2821,0.4006,1.5516,-0.0835,-0.3192,
46.053780,0.2134,-1.2821,0.4006,1.5516,-0.0835,-0.3192,
46.055122,0.7550,-0.3449,4.7548,1.5516,-0.0835,-0.3192,
46.064511,0.7550,-0.3449,4.7548,-0.1761,-2.3541,-0.0623,
46.119555,0.7550,-0.3449,4.7548,-0.1761,-2.3541,-0.0623,
46.121836,4.8488,1.6094,0.3834,-0.1761,-2.3541,-0.0623,
46.130592,4.8488,1.6094,0.3834,-1.2811,0.3769,0.4339,
46.185574,4.8488,1.6094,0.3834,-1.2811,0.3769,0.4339,
46.187252,2.8666,0.1394,0.2282,-1.2811,0.3769,0.4339,
46.196558,2.8666,0.1394,0.2282,-2.4632,2.1121,1.0870,
46.251939,2.8666,0.1394,0.2282,-2.4632,2.1121,1.0870,
46.253824,1.3385,3.8728,-1.1837,-2.4632,2.1121,1.0870,
46.262314,1.3385,3.8728,-1.1837,-0.6961,1.1089,1.5452,
46.316921,1.3385,3.8728,-1.1837,-0.6961,1.1089,1.5452,
46.319317,-0.4894,4.0675,-4.5632,-0.6961,1.1089,1.5452,
46.327989,-0.4894,4.0675,-4.5632,-1.6799,2.0554,0.2906,
46.382999,-0.4894,4.0675,-4.5632,-1.6799,2.0554,0.2906,
46.384642,-3.9189,-1.8138,-3.3882,-1.6799,2.0554,0.2906,
46.393886,-3.9189,-1.8138,-3.3882,-1.9316,0.4468,-0.3969,
46.446699,-3.9189,-1.8138,-3.3882,-1.9316,0.4468,-0.3969,
46.448580,-4.6852,-2.9372,-2.5610,-1.9316,0.4468,-0.3969,
46.458612,-4.6852,-2.9372,-2.5610,0.1677,1.0058,0.5296,
46.513515,-4.6852,-2.9372,-2.5610,0.1677,1.0058,0.5296,
46.515018,-2.8700,-4.6904,-2.3483,0.1677,1.0058,0.5296,
46.523187,-2.8700,-4.6904,-2.3483,1.4891,0.4710,0.0687,
46.578561,-2.8700,-4.6904,-2.3483,1.4891,0.4710,0.0687,
46.580121,5.3472,3.3649,10.5241,1.4891,0.4710,0.0687,
46.589913,5.3472,3.3649,10.5241,0.2579,1.5806,1.0973,
46.642439,5.3472,3.3649,10.5241,0.2579,1.5806,1.0973,
46.643597,1.1619,2.3106,2.1199,0.2579,1.5806,1.0973,
46.656563,1.1619,2.3106,2.1199,0.4684,-0.7457,-0.0751,
46.707668,1.1619,2.3106,2.1199,0.4684,-0.7457,-0.0751,
46.708650,-2.5335,1.8484,-4.5709,0.4684,-0.7457,-0.0751,
46.719584,-2.5335,1.8484,-4.5709,0.8399,-3.0985,-0.4461,
46.774144,-2.5335,1.8484,-4.5709,0.8399,-3.0985,-0.4461,
46.775593,-1.7030,1.0814,-4.4429,0.8399,-3.0985,-0.4461,
46.785461,-1.7030,1.0814,-4.4429,0.3619,0.0770,-0.5374,
46.839829,-1.7030,1.0814,-4.4429,0.3619,0.0770,-0.5374,
46.840386,0.0856,0.4051,-0.1796,0.3619,0.0770,-0.5374,
46.850442,0.0856,0.4051,-0.1796,0.1614,0.2233,-0.2749,
46.906205,0.0856,0.4051,-0.1796,0.1614,0.2233,-0.2749,
46.907060,0.7547,-1.1979,0.2932,0.1614,0.2233,-0.2749,
46.918813,0.7547,-1.1979,0.2932,1.3981,-0.5105,-0.6961,
46.969908,0.7547,-1.1979,0.2932,1.3981,-0.5105,-0.6961,
46.970553,0.8865,-2.5432,1.4594,1.3981,-0.5105,-0.6961,
46.983102,0.8865,-2.5432,1.4594,1.4778,0.6251,-0.9158,
47.037001,0.8865,-2.5432,1.4594,1.4778,0.6251,-0.9158,
47.037666,1.1854,-1.9140,0.1610,1.4778,0.6251,-0.9158,
47.048633,1.1854,-1.9140,0.1610,1.5085,0.7136,-0.8596,
47.102562,1.1854,-1.9140,0.1610,1.5085,0.7136,-0.8596,
47.103226,1.3461,-1.9622,-0.3425,1.5085,0.7136,-0.8596,
47.113323,1.3461,-1.9622,-0.3425,1.1693,0.6962,-0.7369,
47.168558,1.3461,-1.9622,-0.3425,1.1693,0.6962,-0.7369,
47.169451,2.6581,0.1135,1.6197,1.1693,0.6962,-0.7369,
47.178215,2.6581,0.1135,1.6197,0.4821,-0.9348,0.0490,
47.232816,2.6581,0.1135,1.6197,0.4821,-0.9348,0.0490,
47.234006,4.8372,2.1577,-0.5096,0.4821,-0.9348,0.0490,
