
time,ax,ay,az,wx,wy,wz,
0.026921,0.0000,0.0000,0.0000,-0.0023,0.0983,-0.0150,
0.034255,0.0000,0.0000,0.0000,-0.0023,0.0983,-0.0150,
0.090936,0.0000,0.0000,0.0000,0.0214,0.0547,-0.0081,
0.099219,0.0000,0.0000,0.0000,0.0214,0.0547,-0.0081,
0.156605,0.0000,0.0000,0.0000,0.0264,0.0698,0.0102,
0.164888,0.0000,0.0000,0.0000,0.0264,0.0698,0.0102,
0.221747,0.0000,0.0000,0.0000,0.0168,0.0690,0.0021,
0.230382,0.0000,0.0000,0.0000,0.0168,0.0690,0.0021,
0.287976,0.0000,0.0000,0.0000,0.0244,0.0195,0.0006,
0.295517,0.0000,0.0000,0.0000,0.0244,0.0195,0.0006,
0.353362,0.0000,0.0000,0.0000,0.0386,-0.0255,0.0154,
0.361052,0.0000,0.0000,0.0000,0.0386,-0.0255,0.0154,
0.418440,0.0000,0.0000,0.0000,0.0938,-0.0111,-0.0383,
0.427638,0.0000,0.0000,0.0000,0.0938,-0.0111,-0.0383,
0.476890,0.0668,-0.1809,0.1156,0.0938,-0.0111,-0.0383,
0.483954,0.0668,-0.1809,0.1156,0.2042,0.1008,-0.2433,
0.493006,0.0668,-0.1809,0.1156,0.2042,0.1008,-0.2433,
0.542939,0.0769,-0.8010,0.1538,0.2042,0.1008,-0.2433,
0.550040,0.0769,-0.8010,0.1538,0.4203,0.0217,-0.6622,
0.557469,0.0769,-0.8010,0.1538,0.4203,0.0217,-0.6622,
0.607131,0.6034,-1.6402,0.0029,0.4203,0.0217,-0.6622,
0.615009,0.6034,-1.6402,0.0029,0.5524,-0.2639,-1.3227,
0.624813,0.6034,-1.6402,0.0029,0.5524,-0.2639,-1.3227,
0.673364,0.3711,-2.6272,0.6723,0.5524,-0.2639,-1.3227,
0.679675,0.3711,-2.6272,0.6723,0.8244,-0.4953,-2.1892,
0.688859,0.3711,-2.6272,0.6723,0.8244,-0.4953,-2.1892,
0.739272,-1.0035,-2.0070,0.6610,0.8244,-0.4953,-2.1892,
0.745661,-1.0035,-2.0070,0.6610,1.4267,-0.1348,-2.4464,
0.811398,-1.0035,-2.0070,0.6610,2.4271,0.4226,-1.3934,
0.819614,-1.0035,-2.0070,0.6610,2.4271,0.4226,-1.3934,
0.820358,-2.9106,0.8675,-0.5770,2.4271,0.4226,-1.3934,
0.876494,-2.9106,0.8675,-0.5770,3.2183,1.0628,-0.0713,
0.884820,-2.9106,0.8675,-0.5770,3.2183,1.0628,-0.0713,
0.901582,-0.3288,0.0321,1.9832,3.2183,1.0628,-0.0713,
0.942809,-0.3288,0.0321,1.9832,1.5145,-0.1830,-0.4331,
0.950697,-0.3288,0.0321,1.9832,1.5145,-0.1830,-0.4331,
0.967334,1.5615,0.9800,-2.4698,1.5145,-0.1830,-0.4331,
1.008248,1.5615,0.9800,-2.4698,-0.5579,-1.3810,-0.3245,
1.015927,1.5615,0.9800,-2.4698,-0.5579,-1.3810,-0.3245,
1.033271,-0.6807,-1.6262,0.2647,-0.5579,-1.3810,-0.3245,
1.074244,-0.6807,-1.6262,0.2647,-0.3523,-2.8132,0.1660,
1.082068,-0.6807,-1.6262,0.2647,-0.3523,-2.8132,0.1660,
1.098833,0.0384,1.0741,-4.6573,-0.3523,-2.8132,0.1660,
1.139767,0.0384,1.0741,-4.6573,-1.2891,1.1840,0.0437,
1.147610,0.0384,1.0741,-4.6573,-1.2891,1.1840,0.0437,
1.164614,1.4323,0.4602,1.5631,-1.2891,1.1840,0.0437,
1.204321,1.4323,0.4602,1.5631,-0.0058,1.2101,0.0426,
1.212810,1.4323,0.4602,1.5631,-0.0058,1.2101,0.0426,
1.229442,0.4199,0.2468,-0.5520,-0.0058,1.2101,0.0426,
1.270221,0.4199,0.2468,-0.5520,0.7335,1.5716,0.1026,
1.278031,0.4199,0.2468,-0.5520,0.7335,1.5716,0.1026,
1.294671,-0.5715,0.5000,-0.2790,0.7335,1.5716,0.1026,
1.335731,-0.5715,0.5000,-0.2790,0.5965,0.5151,0.8111,
1.343981,-0.5715,0.5000,-0.2790,0.5965,0.5151,0.8111,
1.360062,0.1595,1.1534,-0.4917,0.5965,0.5151,0.8111,
1.400757,0.1595,1.1534,-0.4917,0.0929,0.9213,1.4198,
1.408801,0.1595,1.1534,-0.4917,0.0929,0.9213,1.4198,
1.426055,1.2728,-0.6267,-1.1757,0.0929,0.9213,1.4198,
1.466164,1.2728,-0.6267,-1.1757,0.3427,0.7410,0.4665,
1.474796,1.2728,-0.6267,-1.1757,0.3427,0.7410,0.4665,
1.492596,2.7093,-1.9496,-1.5093,0.3427,0.7410,0.4665,
1.533378,2.7093,-1.9496,-1.5093,0.5731,0.5498,-0.5156,
1.540817,2.7093,-1.9496,-1.5093,0.5731,0.5498,-0.5156,
1.558078,1.1469,-1.4600,-1.4815,0.5731,0.5498,-0.5156,
1.597492,1.1469,-1.4600,-1.4815,1.0461,1.2669,-1.1706,
1.605746,1.1469,-1.4600,-1.4815,1.0461,1.2669,-1.1706,
1.622436,1.4809,-0.9723,0.0481,1.0461,1.2669,-1.1706,
1.663074,1.4809,-0.9723,0.0481,2.2552,3.3976,-1.3085,
1.671715,1.4809,-0.9723,0.0481,2.2552,3.3976,-1.3085,
1.687942,1.2477,-0.5267,-1.2217,2.2552,3.3976,-1.3085,
1.728496,1.2477,-0.5267,-1.2217,0.6345,1.7837,-0.4081,
1.736397,1.2477,-0.5267,-1.2217,0.6345,1.7837,-0.4081,
1.752998,0.8094,0.1250,-2.6124,0.6345,1.7837,-0.4081,
1.793578,0.8094,0.1250,-2.6124,-0.2361,-0.0136,-0.0043,
1.802195,0.8094,0.1250,-2.6124,-0.2361,-0.0136,-0.0043,
1.818516,-2.2706,-0.8565,-1.2336,-0.2361,-0.0136,-0.0043,
1.859587,-2.2706,-0.8565,-1.2336,-0.0370,0.0965,-0.1825,
1.867243,-2.2706,-0.8565,-1.2336,-0.0370,0.0965,-0.1825,
1.884461,-2.6995,1.0483,1.0754,-0.0370,0.0965,-0.1825,
1.924931,-2.6995,1.0483,1.0754,0.7246,0.8091,-0.4197,
1.933214,-2.6995,1.0483,1.0754,0.7246,0.8091,-0.4197,
1.950310,0.0122,1.3237,1.1861,0.7246,0.8091,-0.4197,
1.990152,0.0122,1.3237,1.1861,0.3216,1.1602,-0.3734,
1.999633,0.0122,1.3237,1.1861,0.3216,1.1602,-0.3734,
2.015173,-0.1023,-0.9737,-0.8211,0.3216,1.1602,-0.3734,
2.055339,-0.1023,-0.9737,-0.8211,0.1232,0.5785,-0.5023,
2.065256,-0.1023,-0.9737,-0.8211,0.1232,0.5785,-0.5023,
2.081650,-1.2601,-0.1317,1.6618,0.1232,0.5785,-0.5023,
2.121029,-1.2601,-0.1317,1.6618,0.5008,0.7190,-0.3054,
2.129594,-1.2601,-0.1317,1.6618,0.5008,0.7190,-0.3054,
2.146065,-0.6174,-0.3127,1.0218,0.5008,0.7190,-0.3054,
2.186350,-0.6174,-0.3127,1.0218,0.1607,0.5304,-0.1924,
2.194472,-0.6174,-0.3127,1.0218,0.1607,0.5304,-0.1924,
2.211209,-0.4942,-0.6626,0.8823,0.1607,0.5304,-0.1924,
2.252146,-0.4942,-0.6626,0.8823,0.1393,0.3868,0.1208,
2.260264,-0.4942,-0.6626,0.8823,0.1393,0.3868,0.1208,
2.276965,1.3808,0.8644,1.6504,0.1393,0.3868,0.1208,
2.317482,1.3808,0.8644,1.6504,0.1871,0.3655,0.2579,
2.326286,1.3808,0.8644,1.6504,0.1871,0.3655,0.2579,
2.343403,1.9191,1.4856,2.1409,0.1871,0.3655,0.2579,
2.383171,1.9191,1.4856,2.1409,0.2860,-0.1819,0.6226,
2.392639,1.9191,1.4856,2.1409,0.2860,-0.1819,0.6226,
2.409015,0.4439,1.4246,0.5138,0.2860,-0.1819,0.6226,
2.448285,0.4439,1.4246,0.5138,0.9603,-0.5521,-0.2298,
2.457894,0.4439,1.4246,0.5138,0.9603,-0.5521,-0.2298,
2.473571,-3.2342,-1.8032,-1.2697,0.9603,-0.5521,-0.2298,
2.514444,-3.2342,-1.8032,-1.2697,0.6837,0.4893,-0.3824,
2.523220,-3.2342,-1.8032,-1.2697,0.6837,0.4893,-0.3824,
2.539926,-3.3483,-0.7226,-1.4065,0.6837,0.4893,-0.3824,
2.579796,-3.3483,-0.7226,-1.4065,0.3135,0.3464,0.1877,
2.588034,-3.3483,-0.7226,-1.4065,0.3135,0.3464,0.1877,
2.604993,0.8306,2.2976,0.8735,0.3135,0.3464,0.1877,
2.644363,0.8306,2.2976,0.8735,-0.3161,-0.8303,0.9788,
2.653355,0.8306,2.2976,0.8735,-0.3161,-0.8303,0.9788,
2.669758,0.9203,-1.7188,0.1905,-0.3161,-0.8303,0.9788,
2.710667,0.9203,-1.7188,0.1905,-0.1330,-0.1695,0.4290,
2.719329,0.9203,-1.7188,0.1905,-0.1330,-0.1695,0.4290,
2.736009,1.1990,-0.5747,0.4286,-0.1330,-0.1695,0.4290,
2.775981,1.1990,-0.5747,0.4286,0.5304,-0.2541,-0.1350,
2.784257,1.1990,-0.5747,0.4286,0.5304,-0.2541,-0.1350,
2.801110,0.4164,2.0495,0.8255,0.5304,-0.2541,-0.1350,
2.841637,0.4164,2.0495,0.8255,-0.4481,-0.6035,0.1161,
2.850848,0.4164,2.0495,0.8255,-0.4481,-0.6035,0.1161,
2.866763,-1.1737,0.7485,1.2513,-0.4481,-0.6035,0.1161,
2.907334,-1.1737,0.7485,1.2513,-1.0968,-0.4924,0.2868,
2.916175,-1.1737,0.7485,1.2513,-1.0968,-0.4924,0.2868,
2.931983,-2.3616,-0.3736,-0.4945,-1.0968,-0.4924,0.2868,
2.972581,-2.3616,-0.3736,-0.4945,0.0927,-0.1770,-0.2508,
2.982758,-2.3616,-0.3736,-0.4945,0.0927,-0.1770,-0.2508,
2.998302,-2.9451,2.7148,-2.4091,0.0927,-0.1770,-0.2508,
3.037329,-2.9451,2.7148,-2.4091,-0.7604,-0.0425,0.2143,
3.046226,-2.9451,2.7148,-2.4091,-0.7604,-0.0425,0.2143,
3.063033,0.3415,5.0885,1.3579,-0.7604,-0.0425,0.2143,
3.103119,0.3415,5.0885,1.3579,-2.0707,-1.6671,0.9745,
3.111483,0.3415,5.0885,1.3579,-2.0707,-1.6671,0.9745,
3.127504,0.2443,-2.6404,-0.1364,-2.0707,-1.6671,0.9745,
3.168028,0.2443,-2.6404,-0.1364,-1.3005,0.0907,0.2527,
3.177100,0.2443,-2.6404,-0.1364,-1.3005,0.0907,0.2527,
3.193524,-1.3296,-4.3552,-1.2841,-1.3005,0.0907,0.2527,
3.233927,-1.3296,-4.3552,-1.2841,0.0260,1.9320,-0.5637,
3.242147,-1.3296,-4.3552,-1.2841,0.0260,1.9320,-0.5637,
3.259327,1.8308,-0.4104,-1.7364,0.0260,1.9320,-0.5637,
3.299575,1.8308,-0.4104,-1.7364,-0.5386,-0.8978,0.2775,
3.307988,1.8308,-0.4104,-1.7364,-0.5386,-0.8978,0.2775,
3.324705,3.0342,2.5665,-2.1117,-0.5386,-0.8978,0.2775,
3.365631,3.0342,2.5665,-2.1117,-1.9103,-0.9607,0.5064,
3.373485,3.0342,2.5665,-2.1117,-1.9103,-0.9607,0.5064,
3.389981,-1.7161,-3.1259,0.2813,-1.9103,-0.9607,0.5064,
3.430554,-1.7161,-3.1259,0.2813,0.0095,-0.6054,-0.3231,
3.439995,-1.7161,-3.1259,0.2813,0.0095,-0.6054,-0.3231,
3.456276,-5.1678,-0.6751,-0.7380,0.0095,-0.6054,-0.3231,
3.496620,-5.1678,-0.6751,-0.7380,-0.6996,-0.4181,0.2460,
3.504253,-5.1678,-0.6751,-0.7380,-0.6996,-0.4181,0.2460,
3.521080,3.2401,4.3437,3.1697,-0.6996,-0.4181,0.2460,
3.562100,3.2401,4.3437,3.1697,0.0206,-0.0915,0.2506,
3.569669,3.2401,4.3437,3.1697,0.0206,-0.0915,0.2506,
3.586258,0.8149,-1.9613,-1.5346,0.0206,-0.0915,0.2506,
3.626607,0.8149,-1.9613,-1.5346,-0.0504,0.5820,-0.3407,
3.634927,0.8149,-1.9613,-1.5346,-0.0504,0.5820,-0.3407,
3.651992,-3.3320,-2.9325,-1.6408,-0.0504,0.5820,-0.3407,
3.692524,-3.3320,-2.9325,-1.6408,0.9520,-0.8705,-0.4015,
3.700680,-3.3320,-2.9325,-1.6408,0.9520,-0.8705,-0.4015,
3.717360,-1.0569,2.0768,-1.3592,0.9520,-0.8705,-0.4015,
3.757895,-1.0569,2.0768,-1.3592,0.6979,0.0380,0.6359,
3.766370,-1.0569,2.0768,-1.3592,0.6979,0.0380,0.6359,
3.783216,3.1069,-0.4278,-0.1675,0.6979,0.0380,0.6359,
3.826267,3.1069,-0.4278,-0.1675,0.1323,-1.1723,0.4201,
3.832196,3.1069,-0.4278,-0.1675,0.1323,-1.1723,0.4201,
3.848706,-0.5042,-2.5714,0.3368,0.1323,-1.1723,0.4201,
3.889230,-0.5042,-2.5714,0.3368,0.4568,-0.8059,-1.5522,
3.897165,-0.5042,-2.5714,0.3368,0.4568,-0.8059,-1.5522,
3.914510,0.9089,8.1205,1.7419,0.4568,-0.8059,-1.5522,
3.954908,0.9089,8.1205,1.7419,0.0666,-0.7266,0.1022,
3.962705,0.9089,8.1205,1.7419,0.0666,-0.7266,0.1022,
3.979900,0.0193,-0.0600,1.1733,0.0666,-0.7266,0.1022,
4.019977,0.0193,-0.0600,1.1733,0.8717,-0.7022,-0.2923,
4.028203,0.0193,-0.0600,1.1733,0.8717,-0.7022,-0.2923,
4.045125,-2.3487,-0.6407,1.7477,0.8717,-0.7022,-0.2923,
4.085306,-2.3487,-0.6407,1.7477,-0.3659,-1.1005,0.4635,
4.093423,-2.3487,-0.6407,1.7477,-0.3659,-1.1005,0.4635,
4.110010,-3.1281,-1.3720,2.4835,-0.3659,-1.1005,0.4635,
4.150679,-3.1281,-1.3720,2.4835,1.2587,-1.5459,0.5085,
4.158572,-3.1281,-1.3720,2.4835,1.2587,-1.5459,0.5085,
4.175743,-1.2505,1.5086,-0.7253,1.2587,-1.5459,0.5085,
4.216433,-1.2505,1.5086,-0.7253,2.3306,1.7686,1.0093,
4.224572,-1.2505,1.5086,-0.7253,2.3306,1.7686,1.0093,
4.241070,0.7150,-2.7274,-4.0144,2.3306,1.7686,1.0093,
4.282415,0.7150,-2.7274,-4.0144,0.5344,0.9142,0.1011,
4.290326,0.7150,-2.7274,-4.0144,0.5344,0.9142,0.1011,
4.306761,1.5460,0.1699,-0.4415,0.5344,0.9142,0.1011,
4.348184,1.5460,0.1699,-0.4415,-0.1417,-0.7031,0.1277,
4.356049,1.5460,0.1699,-0.4415,-0.1417,-0.7031,0.1277,
4.373037,0.4214,0.6100,-0.4713,-0.1417,-0.7031,0.1277,
4.413131,0.4214,0.6100,-0.4713,0.0489,1.0684,-0.0322,
4.421014,0.4214,0.6100,-0.4713,0.0489,1.0684,-0.0322,
4.438022,3.0604,0.2899,0.5962,0.0489,1.0684,-0.0322,
4.479637,3.0604,0.2899,0.5962,-1.1150,-0.0397,-0.3428,
4.487686,3.0604,0.2899,0.5962,-1.1150,-0.0397,-0.3428,
4.504034,0.7031,0.5879,0.9563,-1.1150,-0.0397,-0.3428,
4.544640,0.7031,0.5879,0.9563,-1.8389,-0.0790,-0.1623,
4.554314,0.7031,0.5879,0.9563,-1.8389,-0.0790,-0.1623,
4.568920,-1.4549,-1.3882,-0.9046,-1.8389,-0.0790,-0.1623,
4.609428,-1.4549,-1.3882,-0.9046,-0.6048,0.2398,-0.2741,
4.618169,-1.4549,-1.3882,-0.9046,-0.6048,0.2398,-0.2741,
4.634666,-2.1111,-0.1108,-3.2047,-0.6048,0.2398,-0.2741,
4.676280,-2.1111,-0.1108,-3.2047,-0.1445,0.2195,-0.0654,
4.684532,-2.1111,-0.1108,-3.2047,-0.1445,0.2195,-0.0654,
4.701485,-0.8186,0.5688,-1.0047,-0.1445,0.2195,-0.0654,
4.741253,-0.8186,0.5688,-1.0047,-0.8251,-0.5892,0.3862,
4.749882,-0.8186,0.5688,-1.0047,-0.8251,-0.5892,0.3862,
4.765925,-0.0376,-2.5250,0.6830,-0.8251,-0.5892,0.3862,
4.807641,-0.0376,-2.5250,0.6830,-0.6025,0.1170,-0.7495,
4.816998,-0.0376,-2.5250,0.6830,-0.6025,0.1170,-0.7495,
4.832498,-1.8492,-0.7372,2.2826,-0.6025,0.1170,-0.7495,
4.872107,-1.8492,-0.7372,2.2826,0.0481,0.7063,-0.2596,
4.880437,-1.8492,-0.7372,2.2826,0.0481,0.7063,-0.2596,
4.895840,-0.3840,0.2328,1.0517,0.0481,0.7063,-0.2596,
4.936991,-0.3840,0.2328,1.0517,0.1364,0.7109,0.1364,
4.945676,-0.3840,0.2328,1.0517,0.1364,0.7109,0.1364,
4.962259,3.5715,1.7153,-3.4185,0.1364,0.7109,0.1364,
5.002090,3.5715,1.7153,-3.4185,0.3204,1.2862,-0.9969,
5.010660,3.5715,1.7153,-3.4185,0.3204,1.2862,-0.9969,
5.027170,4.9770,2.2136,-2.3353,0.3204,1.2862,-0.9969,
5.068801,4.9770,2.2136,-2.3353,-1.0001,0.7535,-0.4945,
5.076960,4.9770,2.2136,-2.3353,-1.0001,0.7535,-0.4945,
5.093954,1.3244,-1.8432,-0.0500,-1.0001,0.7535,-0.4945,
5.134460,1.3244,-1.8432,-0.0500,0.2103,0.7850,-0.4487,
5.142682,1.3244,-1.8432,-0.0500,0.2103,0.7850,-0.4487,
5.158877,-2.3720,-4.6956,-1.2878,0.2103,0.7850,-0.4487,
5.198708,-2.3720,-4.6956,-1.2878,0.7098,-0.0967,-0.3749,
5.207380,-2.3720,-4.6956,-1.2878,0.7098,-0.0967,-0.3749,
5.225610,-5.0057,-4.4705,-3.1025,0.7098,-0.0967,-0.3749,
5.265252,-5.0057,-4.4705,-3.1025,-0.6923,0.0560,0.7592,
5.274876,-5.0057,-4.4705,-3.1025,-0.6923,0.0560,0.7592,
5.289871,2.3570,6.3087,4.8210,-0.6923,0.0560,0.7592,
5.330376,2.3570,6.3087,4.8210,0.9380,0.1657,0.5884,
5.337815,2.3570,6.3087,4.8210,0.9380,0.1657,0.5884,
5.355850,2.5506,1.8270,-0.1856,0.9380,0.1657,0.5884,
5.394977,2.5506,1.8270,-0.1856,0.0803,1.3897,-0.0057,
5.404011,2.5506,1.8270,-0.1856,0.0803,1.3897,-0.0057,
5.420938,-4.3317,-2.4855,-1.0660,0.0803,1.3897,-0.0057,
5.460931,-4.3317,-2.4855,-1.0660,-0.3415,-0.5452,0.1781,
5.470964,-4.3317,-2.4855,-1.0660,-0.3415,-0.5452,0.1781,
5.486106,-6.4806,-0.5907,0.9242,-0.3415,-0.5452,0.1781,
5.526103,-6.4806,-0.5907,0.9242,0.7613,-1.7445,0.7709,
5.534264,-6.4806,-0.5907,0.9242,0.7613,-1.7445,0.7709,
5.551835,-2.3174,1.2356,0.6766,0.7613,-1.7445,0.7709,
5.592224,-2.3174,1.2356,0.6766,2.5917,0.3832,1.6037,
5.600440,-2.3174,1.2356,0.6766,2.5917,0.3832,1.6037,
5.616967,4.6414,1.0556,-3.9219,2.5917,0.3832,1.6037,
5.658349,4.6414,1.0556,-3.9219,0.3960,-0.1217,1.4345,
5.667046,4.6414,1.0556,-3.9219,0.3960,-0.1217,1.4345,
5.682090,4.8374,-1.0593,0.0062,0.3960,-0.1217,1.4345,
5.723996,4.8374,-1.0593,0.0062,-1.5240,-1.3680,0.1498,
5.732728,4.8374,-1.0593,0.0062,-1.5240,-1.3680,0.1498,
5.748263,2.3429,-1.6644,1.7278,-1.5240,-1.3680,0.1498,
5.790179,2.3429,-1.6644,1.7278,-0.4146,-0.1570,-0.0548,
5.796833,2.3429,-1.6644,1.7278,-0.4146,-0.1570,-0.0548,
5.814109,3.0128,-1.1563,3.3513,-0.4146,-0.1570,-0.0548,
5.855406,3.0128,-1.1563,3.3513,0.4126,-0.2830,-1.2889,
5.863508,3.0128,-1.1563,3.3513,0.4126,-0.2830,-1.2889,
5.878652,-1.6526,-0.1923,-0.1106,0.4126,-0.2830,-1.2889,
5.922159,-1.6526,-0.1923,-0.1106,0.4760,0.7492,-0.9578,
5.928924,-1.6526,-0.1923,-0.1106,0.4760,0.7492,-0.9578,
5.943905,-4.0082,1.4567,-3.1992,0.4760,0.7492,-0.9578,
5.986116,-4.0082,1.4567,-3.1992,0.1084,0.3948,0.2630,
5.994308,-4.0082,1.4567,-3.1992,0.1084,0.3948,0.2630,
6.009414,-1.3461,1.4185,-0.9211,0.1084,0.3948,0.2630,
6.050879,-1.3461,1.4185,-0.9211,-1.0988,0.9827,0.4339,
6.058652,-1.3461,1.4185,-0.9211,-1.0988,0.9827,0.4339,
6.075286,-0.6564,-0.4345,1.6750,-1.0988,0.9827,0.4339,
6.117185,-0.6564,-0.4345,1.6750,-1.2976,0.2166,0.3296,
6.124694,-0.6564,-0.4345,1.6750,-1.2976,0.2166,0.3296,
6.141061,-1.3357,0.0097,3.3477,-1.2976,0.2166,0.3296,
6.182203,-1.3357,0.0097,3.3477,0.0768,-0.1738,1.0345,
6.190510,-1.3357,0.0097,3.3477,0.0768,-0.1738,1.0345,
6.206319,1.1291,0.2826,1.2791,0.0768,-0.1738,1.0345,
6.246722,1.1291,0.2826,1.2791,2.3049,-0.3395,0.3636,
6.255187,1.1291,0.2826,1.2791,2.3049,-0.3395,0.3636,
6.271926,3.0600,-2.4183,-3.7971,2.3049,-0.3395,0.3636,
6.313160,3.0600,-2.4183,-3.7971,1.0124,-0.0305,-0.6632,
6.321287,3.0600,-2.4183,-3.7971,1.0124,-0.0305,-0.6632,
6.337457,-0.4536,0.4418,-3.0030,1.0124,-0.0305,-0.6632,
6.377489,-0.4536,0.4418,-3.0030,-0.6466,-0.3653,0.4965,
6.386451,-0.4536,0.4418,-3.0030,-0.6466,-0.3653,0.4965,
6.402571,0.8269,-0.1966,-1.4923,-0.6466,-0.3653,0.4965,
6.444458,0.8269,-0.1966,-1.4923,-1.5168,0.3543,0.2298,
6.450976,0.8269,-0.1966,-1.4923,-1.5168,0.3543,0.2298,
6.468078,-0.7261,-4.5677,0.4954,-1.5168,0.3543,0.2298,
6.508926,-0.7261,-4.5677,0.4954,-1.3793,0.6965,-0.4801,
6.516755,-0.7261,-4.5677,0.4954,-1.3793,0.6965,-0.4801,
6.533461,-4.3274,-4.9891,2.9743,-1.3793,0.6965,-0.4801,
6.574412,-4.3274,-4.9891,2.9743,0.2233,-0.5634,-1.3636,
6.583806,-4.3274,-4.9891,2.9743,0.2233,-0.5634,-1.3636,
6.598655,3.0348,13.3811,2.7548,0.2233,-0.5634,-1.3636,
6.640308,3.0348,13.3811,2.7548,1.3462,1.3068,-0.3751,
6.649057,3.0348,13.3811,2.7548,1.3462,1.3068,-0.3751,
6.664567,-1.7644,-1.1115,-2.2564,1.3462,1.3068,-0.3751,
6.706444,-1.7644,-1.1115,-2.2564,-0.0954,1.4432,-0.8303,
6.712944,-1.7644,-1.1115,-2.2564,-0.0954,1.4432,-0.8303,
6.730162,1.9136,-2.0285,-3.5951,-0.0954,1.4432,-0.8303,
6.770704,1.9136,-2.0285,-3.5951,0.9471,-0.5851,-0.4646,
6.780709,1.9136,-2.0285,-3.5951,0.9471,-0.5851,-0.4646,
6.795327,4.0025,0.5816,-2.7638,0.9471,-0.5851,-0.4646,
6.836552,4.0025,0.5816,-2.7638,-1.5201,-2.9189,0.3192,
6.843983,4.0025,0.5816,-2.7638,-1.5201,-2.9189,0.3192,
6.859972,1.1804,-0.9313,0.9780,-1.5201,-2.9189,0.3192,
6.900833,1.1804,-0.9313,0.9780,-1.1643,-0.6107,0.0020,
6.909368,1.1804,-0.9313,0.9780,-1.1643,-0.6107,0.0020,
6.926192,0.1600,-1.2499,1.7653,-1.1643,-0.6107,0.0020,
6.967132,0.1600,-1.2499,1.7653,0.2868,0.6836,-0.4473,
6.974605,0.1600,-1.2499,1.7653,0.2868,0.6836,-0.4473,
6.991275,-0.6770,-0.4553,-1.7489,0.2868,0.6836,-0.4473,
7.032120,-0.6770,-0.4553,-1.7489,0.0757,-0.2752,-0.1765,
7.040823,-0.6770,-0.4553,-1.7489,0.0757,-0.2752,-0.1765,
7.057484,-1.7732,-1.3654,-1.2958,0.0757,-0.2752,-0.1765,
7.098211,-1.7732,-1.3654,-1.2958,0.7259,-0.6819,-0.2964,
7.107059,-1.7732,-1.3654,-1.2958,0.7259,-0.6819,-0.2964,
7.123759,-1.8938,0.6122,0.2960,0.7259,-0.6819,-0.2964,
7.163598,-1.8938,0.6122,0.2960,0.5424,-0.6891,-0.6976,
7.171943,-1.8938,0.6122,0.2960,0.5424,-0.6891,-0.6976,
7.188060,-1.6386,0.9825,1.5366,0.5424,-0.6891,-0.6976,
7.228258,-1.6386,0.9825,1.5366,-0.2873,0.2069,0.5299,
7.236332,-1.6386,0.9825,1.5366,-0.2873,0.2069,0.5299,
7.253547,0.2637,-2.2053,4.2016,-0.2873,0.2069,0.5299,
7.294317,0.2637,-2.2053,4.2016,0.5760,-0.0220,1.3714,
7.302476,0.2637,-2.2053,4.2016,0.5760,-0.0220,1.3714,
7.319581,1.9974,0.7879,-1.5167,0.5760,-0.0220,1.3714,
7.359280,1.9974,0.7879,-1.5167,1.6066,0.5986,-0.3685,
7.368387,1.9974,0.7879,-1.5167,1.6066,0.5986,-0.3685,
7.384640,0.9169,0.7276,-5.2101,1.6066,0.5986,-0.3685,
7.425369,0.9169,0.7276,-5.2101,0.1738,1.0452,0.2885,
7.433859,0.9169,0.7276,-5.2101,0.1738,1.0452,0.2885,
7.450072,1.1864,-0.1646,-2.3803,0.1738,1.0452,0.2885,
7.490612,1.1864,-0.1646,-2.3803,-0.3073,0.1607,0.4374,
7.499050,1.1864,-0.1646,-2.3803,-0.3073,0.1607,0.4374,
7.515559,1.2786,-2.5755,0.1014,-0.3073,0.1607,0.4374,
7.556181,1.2786,-2.5755,0.1014,0.8167,0.4265,-0.3625,
7.565939,1.2786,-2.5755,0.1014,0.8167,0.4265,-0.3625,
7.581347,2.1668,-0.3565,-0.3596,0.8167,0.4265,-0.3625,
7.621857,2.1668,-0.3565,-0.3596,0.5502,1.0301,-0.3251,
7.630056,2.1668,-0.3565,-0.3596,0.5502,1.0301,-0.3251,
7.646687,0.7483,-2.4515,-0.0708,0.5502,1.0301,-0.3251,
7.687634,0.7483,-2.4515,-0.0708,0.4042,0.2242,-0.5296,
7.695792,0.7483,-2.4515,-0.0708,0.4042,0.2242,-0.5296,
7.712209,-2.9085,-3.0516,0.2211,0.4042,0.2242,-0.5296,
7.752264,-2.9085,-3.0516,0.2211,0.4669,-0.4242,-1.3447,
7.760844,-2.9085,-3.0516,0.2211,0.4669,-0.4242,-1.3447,
7.776814,-4.6978,9.1306,-2.2144,0.4669,-0.4242,-1.3447,
7.818217,-4.6978,9.1306,-2.2144,-1.4959,-0.2390,0.6212,
7.826374,-4.6978,9.1306,-2.2144,-1.4959,-0.2390,0.6212,
7.843827,-3.1343,1.2450,2.5276,-1.4959,-0.2390,0.6212,
7.884637,-3.1343,1.2450,2.5276,-1.0409,0.1323,2.2068,
7.892688,-3.1343,1.2450,2.5276,-1.0409,0.1323,2.2068,
7.908607,-1.5794,-4.4299,0.4216,-1.0409,0.1323,2.2068,
7.948958,-1.5794,-4.4299,0.4216,0.8699,1.9296,0.9959,
7.957233,-1.5794,-4.4299,0.4216,0.8699,1.9296,0.9959,
7.974117,3.3958,-1.7323,1.0752,0.8699,1.9296,0.9959,
8.014433,3.3958,-1.7323,1.0752,2.0206,0.3858,-0.8282,
8.022650,3.3958,-1.7323,1.0752,2.0206,0.3858,-0.8282,
8.040899,3.2158,2.3385,-4.7471,2.0206,0.3858,-0.8282,
8.079437,3.2158,2.3385,-4.7471,1.3204,1.4248,-0.5383,
8.088466,3.2158,2.3385,-4.7471,1.3204,1.4248,-0.5383,
8.104570,2.4504,-0.8603,-3.0169,1.3204,1.4248,-0.5383,
8.144702,2.4504,-0.8603,-3.0169,0.2037,-0.0531,-0.2239,
8.153555,2.4504,-0.8603,-3.0169,0.2037,-0.0531,-0.2239,
8.170958,-0.1812,-2.0678,-1.1801,0.2037,-0.0531,-0.2239,
8.211742,-0.1812,-2.0678,-1.1801,0.9058,0.2981,-0.5867,
8.220407,-0.1812,-2.0678,-1.1801,0.9058,0.2981,-0.5867,
8.236216,-1.5522,-2.5241,-0.4443,0.9058,0.2981,-0.5867,
8.276886,-1.5522,-2.5241,-0.4443,1.1741,0.0438,-0.7883,
8.284411,-1.5522,-2.5241,-0.4443,1.1741,0.0438,-0.7883,
8.302318,-0.9114,-1.6931,-0.3118,1.1741,0.0438,-0.7883,
8.342404,-0.9114,-1.6931,-0.3118,0.2902,-0.9100,-0.5292,
8.351569,-0.9114,-1.6931,-0.3118,0.2902,-0.9100,-0.5292,
8.367317,-0.3656,0.9968,0.7497,0.2902,-0.9100,-0.5292,
8.407571,-0.3656,0.9968,0.7497,-1.0666,-0.6384,0.1863,
8.416130,-0.3656,0.9968,0.7497,-1.0666,-0.6384,0.1863,
8.433418,1.9869,-0.6414,1.9436,-1.0666,-0.6384,0.1863,
8.472365,1.9869,-0.6414,1.9436,-1.1684,-0.2411,0.1084,
8.481794,1.9869,-0.6414,1.9436,-1.1684,-0.2411,0.1084,
8.498056,2.4702,-1.4349,-0.7853,-1.1684,-0.2411,0.1084,
8.538173,2.4702,-1.4349,-0.7853,-2.6195,-0.6177,1.0325,
8.546568,2.4702,-1.4349,-0.7853,-2.6195,-0.6177,1.0325,
8.563857,4.5441,3.0620,-1.7526,-2.6195,-0.6177,1.0325,
8.603854,4.5441,3.0620,-1.7526,1.0887,0.4250,-0.3416,
8.613042,4.5441,3.0620,-1.7526,1.0887,0.4250,-0.3416,
8.628561,-1.3919,0.6054,0.7650,1.0887,0.4250,-0.3416,
8.669540,-1.3919,0.6054,0.7650,1.5623,1.7831,-0.4580,
8.678295,-1.3919,0.6054,0.7650,1.5623,1.7831,-0.4580,
8.694543,-1.6509,-1.3295,-0.7675,1.5623,1.7831,-0.4580,
8.734938,-1.6509,-1.3295,-0.7675,0.5933,0.9719,-0.1808,
8.742537,-1.6509,-1.3295,-0.7675,0.5933,0.9719,-0.1808,
8.759642,-1.1579,-1.5718,-2.2680,0.5933,0.9719,-0.1808,
8.800929,-1.1579,-1.5718,-2.2680,0.8285,0.6252,-0.7570,
8.808909,-1.1579,-1.5718,-2.2680,0.8285,0.6252,-0.7570,
8.826262,-1.7058,1.7504,-1.5103,0.8285,0.6252,-0.7570,
8.866857,-1.7058,1.7504,-1.5103,-0.4268,0.8027,-0.2292,
8.875683,-1.7058,1.7504,-1.5103,-0.4268,0.8027,-0.2292,
8.893631,-0.4341,0.6360,2.1945,-0.4268,0.8027,-0.2292,
8.932396,-0.4341,0.6360,2.1945,-0.4540,0.3432,0.3441,
8.942787,-0.4341,0.6360,2.1945,-0.4540,0.3432,0.3441,
8.958309,0.8467,-2.2911,1.9601,-0.4540,0.3432,0.3441,
8.996183,0.8467,-2.2911,1.9601,0.4823,0.7869,0.0290,
9.005568,0.8467,-2.2911,1.9601,0.4823,0.7869,0.0290,
9.022359,1.1493,-0.4686,2.1373,0.4823,0.7869,0.0290,
9.062134,1.1493,-0.4686,2.1373,0.5534,0.6640,-0.0261,
9.071707,1.1493,-0.4686,2.1373,0.5534,0.6640,-0.0261,
9.088171,-1.2365,-0.3508,0.8474,0.5534,0.6640,-0.0261,
9.127264,-1.2365,-0.3508,0.8474,0.9169,-0.4403,-0.6426,
9.136041,-1.2365,-0.3508,0.8474,0.9169,-0.4403,-0.6426,
9.152504,-1.7910,3.6702,-2.8599,0.9169,-0.4403,-0.6426,
9.193644,-1.7910,3.6702,-2.8599,0.4775,0.4785,0.5829,
9.202308,-1.7910,3.6702,-2.8599,0.4775,0.4785,0.5829,
9.219008,0.9990,0.3658,-3.4444,0.4775,0.4785,0.5829,
9.259621,0.9990,0.3658,-3.4444,-0.1310,0.2582,0.9395,
9.267893,0.9990,0.3658,-3.4444,-0.1310,0.2582,0.9395,
9.285207,1.6699,-3.3346,0.5761,-0.1310,0.2582,0.9395,
9.325466,1.6699,-3.3346,0.5761,-0.1280,-1.2995,0.1006,
9.333333,1.6699,-3.3346,0.5761,-0.1280,-1.2995,0.1006,
9.349783,-0.6238,-2.1113,0.4469,-0.1280,-1.2995,0.1006,
9.390204,-0.6238,-2.1113,0.4469,0.8390,0.4133,-0.5220,
9.398238,-0.6238,-2.1113,0.4469,0.8390,0.4133,-0.5220,
9.414299,-0.7783,-1.8634,-0.7241,0.8390,0.4133,-0.5220,
9.454670,-0.7783,-1.8634,-0.7241,1.2136,0.8047,-0.4898,
9.462943,-0.7783,-1.8634,-0.7241,1.2136,0.8047,-0.4898,
9.479591,2.6957,-0.6817,-1.4639,1.2136,0.8047,-0.4898,
9.519920,2.6957,-0.6817,-1.4639,-0.1820,-1.0151,-0.1975,
9.529040,2.6957,-0.6817,-1.4639,-0.1820,-1.0151,-0.1975,
9.547345,0.6717,1.6824,-0.1853,-0.1820,-1.0151,-0.1975,
9.585461,0.6717,1.6824,-0.1853,-1.1759,-0.3059,-0.0846,
9.594998,0.6717,1.6824,-0.1853,-1.1759,-0.3059,-0.0846,
9.610626,0.1679,-1.1374,1.4079,-1.1759,-0.3059,-0.0846,
9.650648,0.1679,-1.1374,1.4079,0.0582,-0.0279,-0.1052,
9.658861,0.1679,-1.1374,1.4079,0.0582,-0.0279,-0.1052,
9.675464,1.3634,-0.9663,0.0384,0.0582,-0.0279,-0.1052,
9.716411,1.3634,-0.9663,0.0384,-0.9108,-0.3766,0.4242,
9.725280,1.3634,-0.9663,0.0384,-0.9108,-0.3766,0.4242,
9.741432,1.2631,-0.8788,-0.1881,-0.9108,-0.3766,0.4242,
9.782586,1.2631,-0.8788,-0.1881,-0.4417,0.2098,0.3644,
9.790725,1.2631,-0.8788,-0.1881,-0.4417,0.2098,0.3644,
9.809956,0.3109,1.1964,-2.6762,-0.4417,0.2098,0.3644,
9.847301,0.3109,1.1964,-2.6762,0.0904,-0.0762,-0.7715,
9.855926,0.3109,1.1964,-2.6762,0.0904,-0.0762,-0.7715,
9.872828,-2.7978,0.8513,-1.6397,0.0904,-0.0762,-0.7715,
9.913836,-2.7978,0.8513,-1.6397,-0.2741,0.5017,0.0739,
9.921502,-2.7978,0.8513,-1.6397,-0.2741,0.5017,0.0739,
9.940450,1.4223,0.5364,1.5422,-0.2741,0.5017,0.0739,
9.978460,1.4223,0.5364,1.5422,0.1681,0.2964,-0.0712,
9.987939,1.4223,0.5364,1.5422,0.1681,0.2964,-0.0712,
10.005040,1.0392,-0.9820,1.0400,0.1681,0.2964,-0.0712,
10.045524,1.0392,-0.9820,1.0400,0.2999,0.3543,-0.5863,
10.053333,1.0392,-0.9820,1.0400,0.2999,0.3543,-0.5863,
10.068917,-1.2236,-1.3959,1.1793,0.2999,0.3543,-0.5863,
10.110189,-1.2236,-1.3959,1.1793,0.5647,0.8931,-0.1549,
10.118930,-1.2236,-1.3959,1.1793,0.5647,0.8931,-0.1549,
10.136362,0.1519,-1.2249,1.2760,0.5647,0.8931,-0.1549,
10.176449,0.1519,-1.2249,1.2760,0.3630,1.0643,-0.1552,
10.184315,0.1519,-1.2249,1.2760,0.3630,1.0643,-0.1552,
10.200252,0.9934,0.6597,2.2391,0.3630,1.0643,-0.1552,
10.241608,0.9934,0.6597,2.2391,0.4478,0.3622,-0.2311,
10.250088,0.9934,0.6597,2.2391,0.4478,0.3622,-0.2311,
10.266641,-1.4883,0.3326,1.1058,0.4478,0.3622,-0.2311,
10.306856,-1.4883,0.3326,1.1058,0.4348,0.3428,-0.0396,
10.315738,-1.4883,0.3326,1.1058,0.4348,0.3428,-0.0396,
10.333282,-0.1116,5.1479,-2.0371,0.4348,0.3428,-0.0396,
10.372225,-0.1116,5.1479,-2.0371,0.7518,0.2028,0.3105,
10.380130,-0.1116,5.1479,-2.0371,0.7518,0.2028,0.3105,
10.397264,-1.2201,-1.0202,-3.7403,0.7518,0.2028,0.3105,
10.437940,-1.2201,-1.0202,-3.7403,-0.2005,0.6287,0.8884,
10.445680,-1.2201,-1.0202,-3.7403,-0.2005,0.6287,0.8884,
10.461392,1.6729,-3.0257,-0.7737,-0.2005,0.6287,0.8884,
10.502182,1.6729,-3.0257,-0.7737,0.2964,-0.3348,-0.0771,
10.511413,1.6729,-3.0257,-0.7737,0.2964,-0.3348,-0.0771,
10.527715,0.9584,-3.5078,0.7862,0.2964,-0.3348,-0.0771,
10.570809,0.9584,-3.5078,0.7862,1.3263,0.5392,-0.7065,
10.575626,0.9584,-3.5078,0.7862,1.3263,0.5392,-0.7065,
10.592750,0.2269,-2.2208,-0.2615,1.3263,0.5392,-0.7065,
10.633196,0.2269,-2.2208,-0.2615,1.1745,0.3233,-0.7329,
10.641843,0.2269,-2.2208,-0.2615,1.1745,0.3233,-0.7329,
10.658157,0.1560,2.3063,-1.2188,1.1745,0.3233,-0.7329,
10.699441,0.1560,2.3063,-1.2188,-0.2773,-0.0331,-0.0353,
10.707413,0.1560,2.3063,-1.2188,-0.2773,-0.0331,-0.0353,
10.724419,1.2211,1.2169,-0.3178,-0.2773,-0.0331,-0.0353,
10.765379,1.2211,1.2169,-0.3178,-0.9771,-0.0228,0.1428,
10.773977,1.2211,1.2169,-0.3178,-0.9771,-0.0228,0.1428,
10.791012,1.3048,-0.0794,0.4421,-0.9771,-0.0228,0.1428,
10.830320,1.3048,-0.0794,0.4421,-0.7921,-0.1538,0.1223,
10.839287,1.3048,-0.0794,0.4421,-0.7921,-0.1538,0.1223,
10.854712,1.3474,-1.2710,0.2902,-0.7921,-0.1538,0.1223,
10.896226,1.3474,-1.2710,0.2902,-0.9030,-0.0504,0.2798,
10.904483,1.3474,-1.2710,0.2902,-0.9030,-0.0504,0.2798,
10.921455,1.3571,-1.9715,0.1760,-0.9030,-0.0504,0.2798,
10.961299,1.3571,-1.9715,0.1760,-0.5095,0.1451,0.0113,
10.969329,1.3571,-1.9715,0.1760,-0.5095,0.1451,0.0113,
10.986424,-0.1088,1.7146,-3.3922,-0.5095,0.1451,0.0113,
11.026446,-0.1088,1.7146,-3.3922,-0.4953,-0.4432,-0.8051,
11.035441,-0.1088,1.7146,-3.3922,-0.4953,-0.4432,-0.8051,
11.052692,-3.2594,3.0439,-1.1097,-0.4953,-0.4432,-0.8051,
11.092734,-3.2594,3.0439,-1.1097,-0.9441,-0.3775,0.7605,
11.100675,-3.2594,3.0439,-1.1097,-0.9441,-0.3775,0.7605,
11.117309,0.4031,-2.6374,0.6353,-0.9441,-0.3775,0.7605,
11.157006,0.4031,-2.6374,0.6353,0.2062,0.9583,0.2306,
11.166799,0.4031,-2.6374,0.6353,0.2062,0.9583,0.2306,
11.184415,1.5501,-3.3006,1.1130,0.2062,0.9583,0.2306,
11.223704,1.5501,-3.3006,1.1130,1.2819,0.9675,-1.0024,
11.232600,1.5501,-3.3006,1.1130,1.2819,0.9675,-1.0024,
11.248656,-0.9385,1.0685,0.9218,1.2819,0.9675,-1.0024,
11.288801,-0.9385,1.0685,0.9218,0.7098,0.8092,-0.4669,
11.296551,-0.9385,1.0685,0.9218,0.7098,0.8092,-0.4669,
11.314663,-0.7925,0.3256,0.7600,0.7098,0.8092,-0.4669,
11.354378,-0.7925,0.3256,0.7600,0.3227,0.8619,0.0675,
11.362787,-0.7925,0.3256,0.7600,0.3227,0.8619,0.0675,
11.378841,1.0328,-1.8813,1.8867,0.3227,0.8619,0.0675,
11.419993,1.0328,-1.8813,1.8867,0.7631,1.0489,0.0391,
11.428594,1.0328,-1.8813,1.8867,0.7631,1.0489,0.0391,
11.444677,1.0081,-0.8934,1.6913,0.7631,1.0489,0.0391,
11.485052,1.0081,-0.8934,1.6913,0.8063,1.1800,0.1242,
11.493465,1.0081,-0.8934,1.6913,0.8063,1.1800,0.1242,
11.509363,0.7379,3.3185,-0.5005,0.8063,1.1800,0.1242,
11.551529,0.7379,3.3185,-0.5005,1.6290,0.6701,-0.5502,
11.559895,0.7379,3.3185,-0.5005,1.6290,0.6701,-0.5502,
11.575804,-1.5176,0.5385,-4.9007,1.6290,0.6701,-0.5502,
11.615724,-1.5176,0.5385,-4.9007,0.4302,1.9375,0.4731,
11.623855,-1.5176,0.5385,-4.9007,0.4302,1.9375,0.4731,
11.640785,2.2391,-1.3706,-1.7987,0.4302,1.9375,0.4731,
11.682116,2.2391,-1.3706,-1.7987,0.0272,-0.4762,0.2500,
11.693336,2.2391,-1.3706,-1.7987,0.0272,-0.4762,0.2500,
11.706471,0.1944,-1.3855,0.6670,0.0272,-0.4762,0.2500,
11.747990,0.1944,-1.3855,0.6670,0.3624,-0.0173,0.0154,
11.755753,0.1944,-1.3855,0.6670,0.3624,-0.0173,0.0154,
11.773632,-1.3846,-1.4154,-0.0855,0.3624,-0.0173,0.0154,
11.812521,-1.3846,-1.4154,-0.0855,0.9840,0.8464,-0.0421,
11.822899,-1.3846,-1.4154,-0.0855,0.9840,0.8464,-0.0421,
11.838651,-0.0908,-0.8418,-0.7853,0.9840,0.8464,-0.0421,
11.878171,-0.0908,-0.8418,-0.7853,0.2941,-0.3601,0.0780,
11.885599,-0.0908,-0.8418,-0.7853,0.2941,-0.3601,0.0780,
11.905022,0.9956,-0.4786,-0.5430,0.2941,-0.3601,0.0780,
11.943690,0.9956,-0.4786,-0.5430,-0.0744,-0.4870,0.0096,
11.952086,0.9956,-0.4786,-0.5430,-0.0744,-0.4870,0.0096,
11.970173,1.7028,-0.9071,1.0247,-0.0744,-0.4870,0.0096,
12.008991,1.7028,-0.9071,1.0247,0.2448,-0.4963,-0.1417,
12.018303,1.7028,-0.9071,1.0247,0.2448,-0.4963,-0.1417,
12.034386,2.2900,0.1836,1.8232,0.2448,-0.4963,-0.1417,
12.073955,2.2900,0.1836,1.8232,-0.3451,-0.6842,-0.0530,
12.083067,2.2900,0.1836,1.8232,-0.3451,-0.6842,-0.0530,
12.098246,3.2856,0.1676,2.7513,-0.3451,-0.6842,-0.0530,
12.139685,3.2856,0.1676,2.7513,-0.7789,0.1512,0.0469,
12.148546,3.2856,0.1676,2.7513,-0.7789,0.1512,0.0469,
12.164412,0.3924,-1.7668,0.8070,-0.7789,0.1512,0.0469,
12.205978,0.3924,-1.7668,0.8070,0.0822,1.1558,-0.2552,
12.214571,0.3924,-1.7668,0.8070,0.0822,1.1558,-0.2552,
12.230361,-0.0031,2.1591,-2.2778,0.0822,1.1558,-0.2552,
12.270719,-0.0031,2.1591,-2.2778,1.7404,0.8641,-0.9409,
12.280510,-0.0031,2.1591,-2.2778,1.7404,0.8641,-0.9409,
12.295432,-0.5098,3.1513,-1.0575,1.7404,0.8641,-0.9409,
12.335448,-0.5098,3.1513,-1.0575,-0.5029,0.8580,0.8317,
12.344043,-0.5098,3.1513,-1.0575,-0.5029,0.8580,0.8317,
12.360964,0.2102,-4.1294,1.4284,-0.5029,0.8580,0.8317,
12.401321,0.2102,-4.1294,1.4284,-0.2589,0.8273,0.2369,
12.409554,0.2102,-4.1294,1.4284,-0.2589,0.8273,0.2369,
12.426275,-0.4163,-4.8737,2.1121,-0.2589,0.8273,0.2369,
12.466958,-0.4163,-4.8737,2.1121,2.3512,0.0347,-1.1910,
12.476508,-0.4163,-4.8737,2.1121,2.3512,0.0347,-1.1910,
12.492702,-3.6132,-1.4833,0.8276,2.3512,0.0347,-1.1910,
12.533386,-3.6132,-1.4833,0.8276,1.7017,0.1987,-1.3025,
12.540928,-3.6132,-1.4833,0.8276,1.7017,0.1987,-1.3025,
12.557031,-6.0993,5.9791,-1.0613,1.7017,0.1987,-1.3025,
12.598159,-6.0993,5.9791,-1.0613,0.6918,-1.2060,3.3630,
12.607158,-6.0993,5.9791,-1.0613,0.6918,-1.2060,3.3630,
12.623651,0.7346,-0.0690,-5.9454,0.6918,-1.2060,3.3630,
12.663928,0.7346,-0.0690,-5.9454,0.7443,4.1328,3.4711,
12.672218,0.7346,-0.0690,-5.9454,0.7443,4.1328,3.4711,
12.688426,9.4335,-6.3296,-0.0087,0.7443,4.1328,3.4711,
12.729937,9.4335,-6.3296,-0.0087,-2.3355,0.2888,-0.5327,
12.737418,9.4335,-6.3296,-0.0087,-2.3355,0.2888,-0.5327,
12.754748,3.4160,-2.5343,1.5039,-2.3355,0.2888,-0.5327,
12.793548,3.4160,-2.5343,1.5039,-0.4340,1.9998,-0.8984,
12.802107,3.4160,-2.5343,1.5039,-0.4340,1.9998,-0.8984,
12.820048,-0.6001,-1.9013,0.9136,-0.4340,1.9998,-0.8984,
12.860081,-0.6001,-1.9013,0.9136,2.3153,1.4754,-1.7174,
12.868233,-0.6001,-1.9013,0.9136,2.3153,1.4754,-1.7174,
12.884895,-2.6588,-2.9753,-1.4983,2.3153,1.4754,-1.7174,
12.925112,-2.6588,-2.9753,-1.4983,1.6573,-0.8789,-3.2286,
12.933026,-2.6588,-2.9753,-1.4983,1.6573,-0.8789,-3.2286,
12.950303,-5.9797,2.7866,-5.9631,1.6573,-0.8789,-3.2286,
12.991034,-5.9797,2.7866,-5.9631,-2.1990,-1.2117,-0.7518,
12.998769,-5.9797,2.7866,-5.9631,-2.1990,-1.2117,-0.7518,
13.016187,-4.7793,-0.2005,1.7361,-2.1990,-1.2117,-0.7518,
13.056751,-4.7793,-0.2005,1.7361,-2.0215,-0.7283,1.7908,
13.066078,-4.7793,-0.2005,1.7361,-2.0215,-0.7283,1.7908,
13.081546,3.4338,-4.1769,1.5977,-2.0215,-0.7283,1.7908,
13.123369,3.4338,-4.1769,1.5977,2.5539,0.4287,-0.0586,
13.131141,3.4338,-4.1769,1.5977,2.5539,0.4287,-0.0586,
13.146964,11.9731,0.2981,-1.2504,2.5539,0.4287,-0.0586,
13.189905,11.9731,0.2981,-1.2504,0.0006,0.9307,-0.8158,
13.196536,11.9731,0.2981,-1.2504,0.0006,0.9307,-0.8158,
13.212504,-1.5964,-1.5730,-0.8994,0.0006,0.9307,-0.8158,
13.252532,-1.5964,-1.5730,-0.8994,-0.4888,-0.6863,-0.9155,
13.262032,-1.5964,-1.5730,-0.8994,-0.4888,-0.6863,-0.9155,
13.278219,-6.4645,-3.1244,-2.1842,-0.4888,-0.6863,-0.9155,
13.318238,-6.4645,-3.1244,-2.1842,-0.0151,-0.3728,-0.6303,
13.327625,-6.4645,-3.1244,-2.1842,-0.0151,-0.3728,-0.6303,
13.343933,-2.6631,1.3721,1.3270,-0.0151,-0.3728,-0.6303,
13.384388,-2.6631,1.3721,1.3270,1.0276,0.6243,-0.1909,
13.392702,-2.6631,1.3721,1.3270,1.0276,0.6243,-0.1909,
13.410106,5.8892,2.7609,6.2236,1.0276,0.6243,-0.1909,
13.450194,5.8892,2.7609,6.2236,0.5799,-0.5406,-0.2547,
13.458135,5.8892,2.7609,6.2236,0.5799,-0.5406,-0.2547,
13.475058,-1.8626,1.1435,-0.8403,0.5799,-0.5406,-0.2547,
13.514682,-1.8626,1.1435,-0.8403,-1.1080,-0.5286,0.6544,
13.523989,-1.8626,1.1435,-0.8403,-1.1080,-0.5286,0.6544,
13.540626,-4.5747,0.3732,-0.2579,-1.1080,-0.5286,0.6544,
13.580088,-4.5747,0.3732,-0.2579,-0.1271,-0.4638,0.8720,
13.588781,-4.5747,0.3732,-0.2579,-0.1271,-0.4638,0.8720,
13.605270,1.4797,-0.9750,-1.2645,-0.1271,-0.4638,0.8720,
13.645525,1.4797,-0.9750,-1.2645,0.5505,1.5685,0.8302,
13.654748,1.4797,-0.9750,-1.2645,0.5505,1.5685,0.8302,
13.670639,9.8053,-3.5089,0.0621,0.5505,1.5685,0.8302,
13.722317,9.8053,-3.5089,0.0621,-1.0715,-0.5873,0.2961,
13.723752,9.8053,-3.5089,0.0621,-1.0715,-0.5873,0.2961,
13.736993,-0.1785,-3.4229,0.0480,-1.0715,-0.5873,0.2961,
13.776746,-0.1785,-3.4229,0.0480,0.1886,-1.5698,-1.7233,
13.786645,-0.1785,-3.4229,0.0480,0.1886,-1.5698,-1.7233,
13.802205,-8.2950,-2.7623,-0.2086,0.1886,-1.5698,-1.7233,
13.843677,-8.2950,-2.7623,-0.2086,1.4160,1.7785,-1.5740,
13.851037,-8.2950,-2.7623,-0.2086,1.4160,1.7785,-1.5740,
13.867735,-6.5542,15.0783,10.7791,1.4160,1.7785,-1.5740,
13.907413,-6.5542,15.0783,10.7791,2.6750,-2.0116,3.6989,
13.917370,-6.5542,15.0783,10.7791,2.6750,-2.0116,3.6989,
13.932664,-4.4390,0.7741,-3.6859,2.6750,-2.0116,3.6989,
13.973247,-4.4390,0.7741,-3.6859,-0.2833,2.7718,3.4297,
13.983101,-4.4390,0.7741,-3.6859,-0.2833,2.7718,3.4297,
13.997768,-0.6253,-4.8043,-3.8079,-0.2833,2.7718,3.4297,
14.038871,-0.6253,-4.8043,-3.8079,-1.9372,2.9697,0.9855,
14.047765,-0.6253,-4.8043,-3.8079,-1.9372,2.9697,0.9855,
14.063379,5.5614,-4.6362,-0.7262,-1.9372,2.9697,0.9855,
14.103431,5.5614,-4.6362,-0.7262,0.3041,-1.9829,-0.1341,
14.111956,5.5614,-4.6362,-0.7262,0.3041,-1.9829,-0.1341,
14.128281,2.3302,0.1467,1.1185,0.3041,-1.9829,-0.1341,
14.169156,2.3302,0.1467,1.1185,0.7941,-1.9972,-1.1970,
14.177834,2.3302,0.1467,1.1185,0.7941,-1.9972,-1.1970,
14.193537,-3.1769,0.2475,1.4382,0.7941,-1.9972,-1.1970,
14.233588,-3.1769,0.2475,1.4382,0.1799,0.0774,-0.3705,
14.242865,-3.1769,0.2475,1.4382,0.1799,0.0774,-0.3705,
14.259407,-0.6435,-2.0815,0.2814,0.1799,0.0774,-0.3705,
14.300329,-0.6435,-2.0815,0.2814,-0.2396,0.0344,-0.5857,
14.308446,-0.6435,-2.0815,0.2814,-0.2396,0.0344,-0.5857,
14.325379,2.0975,-2.0520,3.2916,-0.2396,0.0344,-0.5857,
14.366327,2.0975,-2.0520,3.2916,-0.2398,-1.4897,-0.6006,
14.373808,2.0975,-2.0520,3.2916,-0.2398,-1.4897,-0.6006,
14.390590,1.1536,1.1178,0.9415,-0.2398,-1.4897,-0.6006,
14.432159,1.1536,1.1178,0.9415,-2.3312,0.5218,-0.3221,
14.442790,1.1536,1.1178,0.9415,-2.3312,0.5218,-0.3221,
14.456941,-1.5865,-0.8673,-1.5581,-2.3312,0.5218,-0.3221,
14.496594,-1.5865,-0.8673,-1.5581,0.1889,0.9588,0.3438,
14.504630,-1.5865,-0.8673,-1.5581,0.1889,0.9588,0.3438,
14.521788,2.5667,5.6992,-7.5159,0.1889,0.9588,0.3438,
14.562043,2.5667,5.6992,-7.5159,0.8451,0.9691,-0.4566,
14.570465,2.5667,5.6992,-7.5159,0.8451,0.9691,-0.4566,
14.587767,-0.2546,-0.7816,-0.0644,0.8451,0.9691,-0.4566,
14.627737,-0.2546,-0.7816,-0.0644,-1.5262,0.2483,0.4485,
14.635767,-0.2546,-0.7816,-0.0644,-1.5262,0.2483,0.4485,
14.652309,0.2580,-4.4856,2.2789,-1.5262,0.2483,0.4485,
14.693119,0.2580,-4.4856,2.2789,-0.4569,1.0521,-0.5592,
14.702525,0.2580,-4.4856,2.2789,-0.4569,1.0521,-0.5592,
14.718427,-2.6541,0.0209,1.7989,-0.4569,1.0521,-0.5592,
14.759309,-2.6541,0.0209,1.7989,1.6710,1.4232,-0.9690,
14.769887,-2.6541,0.0209,1.7989,1.6710,1.4232,-0.9690,
14.784027,-3.5141,1.3411,0.7033,1.6710,1.4232,-0.9690,
14.824371,-3.5141,1.3411,0.7033,-0.0701,0.8100,0.3367,
14.832658,-3.5141,1.3411,0.7033,-0.0701,0.8100,0.3367,
14.849935,0.1504,-1.2745,0.4542,-0.0701,0.8100,0.3367,
14.889550,0.1504,-1.2745,0.4542,-0.1402,0.9029,0.4273,
14.898674,0.1504,-1.2745,0.4542,-0.1402,0.9029,0.4273,
14.915055,4.3215,1.6408,-1.9028,-0.1402,0.9029,0.4273,
14.955180,4.3215,1.6408,-1.9028,1.8755,1.5177,-0.3948,
14.964505,4.3215,1.6408,-1.9028,1.8755,1.5177,-0.3948,
14.980316,4.5242,-0.9012,-3.6213,1.8755,1.5177,-0.3948,
15.020014,4.5242,-0.9012,-3.6213,0.4658,0.1851,-0.0774,
15.028489,4.5242,-0.9012,-3.6213,0.4658,0.1851,-0.0774,
15.044754,-1.5604,-1.4860,-0.9758,0.4658,0.1851,-0.0774,
15.085368,-1.5604,-1.4860,-0.9758,0.6122,-0.9690,-0.4656,
15.094182,-1.5604,-1.4860,-0.9758,0.6122,-0.9690,-0.4656,
15.111342,-3.6714,-1.8074,-0.4479,0.6122,-0.9690,-0.4656,
15.151567,-3.6714,-1.8074,-0.4479,0.6967,0.5780,0.2822,
15.160195,-3.6714,-1.8074,-0.4479,0.6967,0.5780,0.2822,
15.176748,1.9883,-2.0772,-0.7826,0.6967,0.5780,0.2822,
15.216301,1.9883,-2.0772,-0.7826,0.6547,0.1703,0.0586,
15.224729,1.9883,-2.0772,-0.7826,0.6547,0.1703,0.0586,
15.240758,2.6428,-1.4272,0.4484,0.6547,0.1703,0.0586,
15.281653,2.6428,-1.4272,0.4484,0.5481,-0.2735,-0.0493,
15.290411,2.6428,-1.4272,0.4484,0.5481,-0.2735,-0.0493,
15.306908,1.1710,-0.3781,0.1364,0.5481,-0.2735,-0.0493,
15.347297,1.1710,-0.3781,0.1364,0.3548,0.2156,-0.1442,
15.356227,1.1710,-0.3781,0.1364,0.3548,0.2156,-0.1442,
15.372692,1.2456,-1.5085,0.4886,0.3548,0.2156,-0.1442,
15.413049,1.2456,-1.5085,0.4886,0.4015,-0.1704,-0.1785,
15.421815,1.2456,-1.5085,0.4886,0.4015,-0.1704,-0.1785,
15.438448,1.8627,-1.3083,0.0172,0.4015,-0.1704,-0.1785,
15.478658,1.8627,-1.3083,0.0172,-0.4381,-0.1579,0.1914,
15.486940,1.8627,-1.3083,0.0172,-0.4381,-0.1579,0.1914,
15.504121,1.3946,0.2387,0.6370,-0.4381,-0.1579,0.1914,
15.544195,1.3946,0.2387,0.6370,-0.4249,-0.0038,0.1393,
15.553180,1.3946,0.2387,0.6370,-0.4249,-0.0038,0.1393,
15.569257,-1.6874,1.4710,-0.5243,-0.4249,-0.0038,0.1393,
15.609607,-1.6874,1.4710,-0.5243,0.0147,0.0160,0.0310,
15.618314,-1.6874,1.4710,-0.5243,0.0147,0.0160,0.0310,
15.635208,-2.0469,2.6190,-1.2299,0.0147,0.0160,0.0310,
15.674399,-2.0469,2.6190,-1.2299,-0.5139,0.3859,0.2844,
15.682883,-2.0469,2.6190,-1.2299,-0.5139,0.3859,0.2844,
15.699830,0.8902,-1.4197,0.6675,-0.5139,0.3859,0.2844,
15.740729,0.8902,-1.4197,0.6675,0.4447,0.8375,-0.2456,
15.748669,0.8902,-1.4197,0.6675,0.4447,0.8375,-0.2456,
15.765609,-0.8474,-2.1011,1.8023,0.4447,0.8375,-0.2456,
15.806195,-0.8474,-2.1011,1.8023,1.6330,-0.1269,-0.9661,
15.815191,-0.8474,-2.1011,1.8023,1.6330,-0.1269,-0.9661,
15.830878,-2.4466,1.9379,0.5604,1.6330,-0.1269,-0.9661,
15.871350,-2.4466,1.9379,0.5604,0.6930,0.2926,-0.5852,
15.880916,-2.4466,1.9379,0.5604,0.6930,0.2926,-0.5852,
15.896670,-0.6509,2.5880,1.2730,0.6930,0.2926,-0.5852,
15.937161,-0.6509,2.5880,1.2730,-0.3684,0.4933,0.2419,
15.945389,-0.6509,2.5880,1.2730,-0.3684,0.4933,0.2419,
15.964048,1.4698,-0.6951,2.2648,-0.3684,0.4933,0.2419,
16.002786,1.4698,-0.6951,2.2648,0.2552,1.1675,0.2121,
16.010932,1.4698,-0.6951,2.2648,0.2552,1.1675,0.2121,
16.027630,1.4358,-1.9038,3.0455,0.2552,1.1675,0.2121,
16.067860,1.4358,-1.9038,3.0455,1.2010,0.6222,-0.2408,
16.076638,1.4358,-1.9038,3.0455,1.2010,0.6222,-0.2408,
16.093661,1.5766,6.0382,-0.6743,1.2010,0.6222,-0.2408,
16.133577,1.5766,6.0382,-0.6743,1.0597,-0.3105,-0.3885,
16.142277,1.5766,6.0382,-0.6743,1.0597,-0.3105,-0.3885,
16.159002,-2.4112,-1.2932,-4.9004,1.0597,-0.3105,-0.3885,
16.199297,-2.4112,-1.2932,-4.9004,-0.4843,2.0739,0.4392,
16.207329,-2.4112,-1.2932,-4.9004,-0.4843,2.0739,0.4392,
16.224195,-0.1852,-3.5387,-1.6165,-0.4843,2.0739,0.4392,
16.264949,-0.1852,-3.5387,-1.6165,-0.0611,-0.2355,0.3286,
16.274754,-0.1852,-3.5387,-1.6165,-0.0611,-0.2355,0.3286,
16.290392,1.9603,-0.9898,0.8508,-0.0611,-0.2355,0.3286,
16.330864,1.9603,-0.9898,0.8508,-0.3233,-1.2544,-0.1923,
16.338795,1.9603,-0.9898,0.8508,-0.3233,-1.2544,-0.1923,
16.355426,-1.8541,0.7479,0.3325,-0.3233,-1.2544,-0.1923,
16.395283,-1.8541,0.7479,0.3325,-0.1425,0.3517,0.0716,
16.403941,-1.8541,0.7479,0.3325,-0.1425,0.3517,0.0716,
16.420188,-0.3556,-2.4757,0.6827,-0.1425,0.3517,0.0716,
16.460255,-0.3556,-2.4757,0.6827,0.2385,-0.0443,-0.0305,
16.469314,-0.3556,-2.4757,0.6827,0.2385,-0.0443,-0.0305,
16.486215,1.2310,-2.0329,-0.6050,0.2385,-0.0443,-0.0305,
16.526003,1.2310,-2.0329,-0.6050,-0.0611,-0.5414,-0.0359,
16.535778,1.2310,-2.0329,-0.6050,-0.0611,-0.5414,-0.0359,
16.552207,1.3421,-1.2197,0.0194,-0.0611,-0.5414,-0.0359,
16.591746,1.3421,-1.2197,0.0194,-0.0654,-0.6086,-0.0730,
16.600398,1.3421,-1.2197,0.0194,-0.0654,-0.6086,-0.0730,
16.618726,2.1172,-0.5461,1.3248,-0.0654,-0.6086,-0.0730,
16.657358,2.1172,-0.5461,1.3248,-0.0545,-0.3262,0.0425,
16.666019,2.1172,-0.5461,1.3248,-0.0545,-0.3262,0.0425,
16.682502,3.0077,-0.3839,1.1705,-0.0545,-0.3262,0.0425,
16.723248,3.0077,-0.3839,1.1705,-0.5695,0.0174,0.3726,
16.731899,3.0077,-0.3839,1.1705,-0.5695,0.0174,0.3726,
16.748270,3.3341,0.7953,-0.8349,-0.5695,0.0174,0.3726,
16.790070,3.3341,0.7953,-0.8349,0.2405,-0.1455,-0.1342,
16.797257,3.3341,0.7953,-0.8349,0.2405,-0.1455,-0.1342,
16.814612,-2.2495,0.1039,-2.0504,0.2405,-0.1455,-0.1342,
16.855811,-2.2495,0.1039,-2.0504,-0.2343,0.1596,0.0055,
16.863341,-2.2495,0.1039,-2.0504,-0.2343,0.1596,0.0055,
16.878689,-2.7653,1.9503,-0.3186,-0.2343,0.1596,0.0055,
16.919644,-2.7653,1.9503,-0.3186,0.3719,0.4446,0.1385,
16.927373,-2.7653,1.9503,-0.3186,0.3719,0.4446,0.1385,
16.944378,-0.4475,1.2855,0.2908,0.3719,0.4446,0.1385,
16.985337,-0.4475,1.2855,0.2908,0.5496,0.3529,-0.2526,
16.992959,-0.4475,1.2855,0.2908,0.5496,0.3529,-0.2526,
17.009325,-2.2347,-0.7252,0.2052,0.5496,0.3529,-0.2526,
17.049807,-2.2347,-0.7252,0.2052,0.2650,0.0693,-0.3273,
17.058599,-2.2347,-0.7252,0.2052,0.2650,0.0693,-0.3273,
17.074953,-1.9593,0.4880,0.2761,0.2650,0.0693,-0.3273,
17.115689,-1.9593,0.4880,0.2761,0.0079,0.2549,0.0336,
17.123863,-1.9593,0.4880,0.2761,0.0079,0.2549,0.0336,
17.140952,0.8591,0.7446,1.8606,0.0079,0.2549,0.0336,
17.181526,0.8591,0.7446,1.8606,0.1226,0.3270,0.2312,
17.190425,0.8591,0.7446,1.8606,0.1226,0.3270,0.2312,
17.206367,1.3375,-0.4205,2.3879,0.1226,0.3270,0.2312,
17.246273,1.3375,-0.4205,2.3879,0.4679,0.5621,0.1610,
17.255201,1.3375,-0.4205,2.3879,0.4679,0.5621,0.1610,
17.272866,-0.4493,-1.7525,0.6951,0.4679,0.5621,0.1610,
17.312463,-0.4493,-1.7525,0.6951,1.0240,0.5760,-0.1895,
17.321456,-0.4493,-1.7525,0.6951,1.0240,0.5760,-0.1895,
17.337928,0.1023,2.7054,-1.4870,1.0240,0.5760,-0.1895,
17.378105,0.1023,2.7054,-1.4870,1.3013,-0.4904,-0.6582,
17.386737,0.1023,2.7054,-1.4870,1.3013,-0.4904,-0.6582,
17.403362,-1.4955,0.0309,-3.8868,1.3013,-0.4904,-0.6582,
17.442953,-1.4955,0.0309,-3.8868,-0.2486,0.6370,0.5528,
17.452400,-1.4955,0.0309,-3.8868,-0.2486,0.6370,0.5528,
17.468802,-0.9880,-1.5050,0.2484,-0.2486,0.6370,0.5528,
17.509837,-0.9880,-1.5050,0.2484,0.2511,-0.7830,0.7271,
17.516779,-0.9880,-1.5050,0.2484,0.2511,-0.7830,0.7271,
17.534316,2.2401,-0.4982,1.3010,0.2511,-0.7830,0.7271,
17.574147,2.2401,-0.4982,1.3010,0.2320,-0.0557,-0.1026,
17.582288,2.2401,-0.4982,1.3010,0.2320,-0.0557,-0.1026,
17.599383,0.9856,-1.2563,0.8719,0.2320,-0.0557,-0.1026,
17.642007,0.9856,-1.2563,0.8719,0.1174,0.0657,-0.1671,
17.649180,0.9856,-1.2563,0.8719,0.1174,0.0657,-0.1671,
17.666436,0.8184,-1.9701,1.1163,0.1174,0.0657,-0.1671,
17.705317,0.8184,-1.9701,1.1163,0.3346,0.0802,-0.3697,
17.714635,0.8184,-1.9701,1.1163,0.3346,0.0802,-0.3697,
17.730082,0.6586,-1.3871,1.1623,0.3346,0.0802,-0.3697,
17.770326,0.6586,-1.3871,1.1623,0.1750,0.2402,-0.2604,
17.778324,0.6586,-1.3871,1.1623,0.1750,0.2402,-0.2604,
17.796864,1.2612,-1.4502,0.5363,0.1750,0.2402,-0.2604,
17.835994,1.2612,-1.4502,0.5363,-0.3439,0.4100,0.0105,
17.844511,1.2612,-1.4502,0.5363,-0.3439,0.4100,0.0105,
17.861138,3.6677,-1.1658,0.6820,-0.3439,0.4100,0.0105,
17.902001,3.6677,-1.1658,0.6820,-0.4875,-0.0463,-0.6419,
17.910864,3.6677,-1.1658,0.6820,-0.4875,-0.0463,-0.6419,
17.928583,3.6061,2.6203,-1.0992,-0.4875,-0.0463,-0.6419,
17.968499,3.6061,2.6203,-1.0992,0.0843,-0.8160,-1.2175,
17.977480,3.6061,2.6203,-1.0992,0.0843,-0.8160,-1.2175,
17.992301,-2.6145,1.8790,-2.5068,0.0843,-0.8160,-1.2175,
18.034811,-2.6145,1.8790,-2.5068,-1.1313,0.1280,0.0027,
18.041664,-2.6145,1.8790,-2.5068,-1.1313,0.1280,0.0027,
18.057380,-2.7782,-0.8357,-0.1146,-1.1313,0.1280,0.0027,
18.099324,-2.7782,-0.8357,-0.1146,-0.2277,-0.0808,-0.2436,
18.107181,-2.7782,-0.8357,-0.1146,-0.2277,-0.0808,-0.2436,
18.123776,-1.4790,0.9666,0.6786,-0.2277,-0.0808,-0.2436,
18.163723,-1.4790,0.9666,0.6786,0.0693,-0.2483,-0.3511,
18.173488,-1.4790,0.9666,0.6786,0.0693,-0.2483,-0.3511,
18.189585,-1.9249,0.1704,0.3136,0.0693,-0.2483,-0.3511,
18.230398,-1.9249,0.1704,0.3136,-0.2535,-0.0093,-0.0964,
18.237468,-1.9249,0.1704,0.3136,-0.2535,-0.0093,-0.0964,
18.254309,-1.5999,-0.3650,1.0765,-0.2535,-0.0093,-0.0964,
18.294746,-1.5999,-0.3650,1.0765,-0.0580,0.0244,-0.0814,
18.302388,-1.5999,-0.3650,1.0765,-0.0580,0.0244,-0.0814,
18.319206,0.1827,0.6536,2.0906,-0.0580,0.0244,-0.0814,
18.360174,0.1827,0.6536,2.0906,0.2265,-0.0431,0.6426,
18.367769,0.1827,0.6536,2.0906,0.2265,-0.0431,0.6426,
18.384251,1.1861,-0.3417,1.7434,0.2265,-0.0431,0.6426,
18.426518,1.1861,-0.3417,1.7434,-0.0081,0.6249,0.6119,
18.434060,1.1861,-0.3417,1.7434,-0.0081,0.6249,0.6119,
18.450073,1.4999,1.6310,2.5909,-0.0081,0.6249,0.6119,
18.490675,1.4999,1.6310,2.5909,0.2051,0.4604,0.5855,
18.498911,1.4999,1.6310,2.5909,0.2051,0.4604,0.5855,
18.515570,0.9814,3.3809,-2.4499,0.2051,0.4604,0.5855,
18.556083,0.9814,3.3809,-2.4499,0.0452,0.7054,0.4187,
18.564310,0.9814,3.3809,-2.4499,0.0452,0.7054,0.4187,
18.582716,-0.6745,-1.3808,-2.7035,0.0452,0.7054,0.4187,
18.622104,-0.6745,-1.3808,-2.7035,0.0273,1.4742,0.3410,
18.630645,-0.6745,-1.3808,-2.7035,0.0273,1.4742,0.3410,
18.647425,1.2719,-2.4721,-0.3542,0.0273,1.4742,0.3410,
18.688809,1.2719,-2.4721,-0.3542,0.1854,-0.0493,0.0776,
18.696650,1.2719,-2.4721,-0.3542,0.1854,-0.0493,0.0776,
18.713848,-1.1562,-1.5698,0.0961,0.1854,-0.0493,0.0776,
18.752673,-1.1562,-1.5698,0.0961,0.2457,0.2854,-0.1506,
18.760458,-1.1562,-1.5698,0.0961,0.2457,0.2854,-0.1506,
18.777350,-4.0388,-2.5259,0.2494,0.2457,0.2854,-0.1506,
18.818720,-4.0388,-2.5259,0.2494,0.6842,-0.4427,-0.9723,
18.825969,-4.0388,-2.5259,0.2494,0.6842,-0.4427,-0.9723,
18.842711,-2.2205,6.4825,0.7291,0.6842,-0.4427,-0.9723,
18.883324,-2.2205,6.4825,0.7291,-1.1460,0.3848,0.2048,
18.892651,-2.2205,6.4825,0.7291,-1.1460,0.3848,0.2048,
18.908485,0.5912,0.7143,3.9262,-1.1460,0.3848,0.2048,
18.948532,0.5912,0.7143,3.9262,-0.4885,0.3655,0.1652,
18.956973,0.5912,0.7143,3.9262,-0.4885,0.3655,0.1652,
18.973612,2.1983,-6.9151,-1.3265,-0.4885,0.3655,0.1652,
19.014205,2.1983,-6.9151,-1.3265,2.9911,2.0543,-2.0701,
19.023111,2.1983,-6.9151,-1.3265,2.9911,2.0543,-2.0701,
19.040202,3.0231,-4.3850,-2.2922,2.9911,2.0543,-2.0701,
19.079198,3.0231,-4.3850,-2.2922,0.2124,-0.1684,-0.9068,
19.088898,3.0231,-4.3850,-2.2922,0.2124,-0.1684,-0.9068,
19.104643,1.9174,3.2454,-1.4349,0.2124,-0.1684,-0.9068,
19.145121,1.9174,3.2454,-1.4349,-0.8125,-0.6657,-0.1910,
19.153887,1.9174,3.2454,-1.4349,-0.8125,-0.6657,-0.1910,
19.170314,-0.6569,0.2610,0.9903,-0.8125,-0.6657,-0.1910,
19.210929,-0.6569,0.2610,0.9903,0.0909,0.0308,0.1863,
19.219082,-0.6569,0.2610,0.9903,0.0909,0.0308,0.1863,
19.236913,2.9528,0.3179,0.8305,0.0909,0.0308,0.1863,
19.276329,2.9528,0.3179,0.8305,-0.1602,0.1856,0.6089,
19.286539,2.9528,0.3179,0.8305,-0.1602,0.1856,0.6089,
19.302760,2.8691,-0.9787,0.5494,-0.1602,0.1856,0.6089,
19.341638,2.8691,-0.9787,0.5494,-0.4348,-0.6190,0.8563,
19.350891,2.8691,-0.9787,0.5494,-0.4348,-0.6190,0.8563,
19.367849,-1.1015,4.5964,-1.9792,-0.4348,-0.6190,0.8563,
19.408951,-1.1015,4.5964,-1.9792,0.1852,-0.9120,0.1521,
19.416122,-1.1015,4.5964,-1.9792,0.1852,-0.9120,0.1521,
19.433228,-6.0558,1.8705,-0.5000,0.1852,-0.9120,0.1521,
19.474880,-6.0558,1.8705,-0.5000,-0.0218,-0.2434,1.3372,
19.483441,-6.0558,1.8705,-0.5000,-0.0218,-0.2434,1.3372,
19.498245,-2.5316,2.3546,-0.4448,-0.0218,-0.2434,1.3372,
19.539132,-2.5316,2.3546,-0.4448,-0.8383,-0.2868,1.3809,
19.547432,-2.5316,2.3546,-0.4448,-0.8383,-0.2868,1.3809,
19.563646,-0.6981,-1.0393,0.4817,-0.8383,-0.2868,1.3809,
19.605159,-0.6981,-1.0393,0.4817,-1.1752,-0.1046,0.9337,
19.613826,-0.6981,-1.0393,0.4817,-1.1752,-0.1046,0.9337,
19.629402,-2.3481,-2.2445,1.0622,-1.1752,-0.1046,0.9337,
19.669300,-2.3481,-2.2445,1.0622,-0.3403,0.4064,0.6523,
19.678133,-2.3481,-2.2445,1.0622,-0.3403,0.4064,0.6523,
19.696862,2.6804,-0.4604,-0.0155,-0.3403,0.4064,0.6523,
19.735954,2.6804,-0.4604,-0.0155,0.6468,-0.1930,-0.1005,
19.743443,2.6804,-0.4604,-0.0155,0.6468,-0.1930,-0.1005,
19.760466,-0.0033,-0.5235,0.7367,0.6468,-0.1930,-0.1005,
19.801990,-0.0033,-0.5235,0.7367,-0.0739,-0.6956,-0.1335,
19.809097,-0.0033,-0.5235,0.7367,-0.0739,-0.6956,-0.1335,
19.825264,-3.5455,-0.3064,-0.0389,-0.0739,-0.6956,-0.1335,
19.866195,-3.5455,-0.3064,-0.0389,-1.4149,0.2443,0.3190,
19.873274,-3.5455,-0.3064,-0.0389,-1.4149,0.2443,0.3190,
19.890296,-0.7568,-0.0044,-0.7734,-1.4149,0.2443,0.3190,
19.931532,-0.7568,-0.0044,-0.7734,-0.8903,-0.2472,-0.0096,
19.940393,-0.7568,-0.0044,-0.7734,-0.8903,-0.2472,-0.0096,
19.956106,2.4634,4.0864,-0.8021,-0.8903,-0.2472,-0.0096,
19.996443,2.4634,4.0864,-0.8021,-1.3349,-0.9478,-0.1341,
20.006499,2.4634,4.0864,-0.8021,-1.3349,-0.9478,-0.1341,
20.023256,-2.1782,0.9057,0.7943,-1.3349,-0.9478,-0.1341,
20.062915,-2.1782,0.9057,0.7943,-0.7457,-0.1909,-0.1536,
20.070466,-2.1782,0.9057,0.7943,-0.7457,-0.1909,-0.1536,
20.088264,0.0713,-1.2787,2.2919,-0.7457,-0.1909,-0.1536,
20.128698,0.0713,-1.2787,2.2919,0.6631,-0.0024,-1.0134,
20.136224,0.0713,-1.2787,2.2919,0.6631,-0.0024,-1.0134,
20.152770,-0.6883,0.4828,1.4110,0.6631,-0.0024,-1.0134,
20.193192,-0.6883,0.4828,1.4110,0.4963,-0.0594,-0.8647,
20.201449,-0.6883,0.4828,1.4110,0.4963,-0.0594,-0.8647,
20.218302,-2.1987,0.1232,1.9496,0.4963,-0.0594,-0.8647,
20.258594,-2.1987,0.1232,1.9496,-0.0090,-0.0954,-0.3627,
20.266612,-2.1987,0.1232,1.9496,-0.0090,-0.0954,-0.3627,
20.284478,-0.0113,0.6998,3.6625,-0.0090,-0.0954,-0.3627,
20.325199,-0.0113,0.6998,3.6625,0.7654,0.8370,-0.2767,
20.333657,-0.0113,0.6998,3.6625,0.7654,0.8370,-0.2767,
20.350178,2.9749,3.8102,-1.1203,0.7654,0.8370,-0.2767,
20.391369,2.9749,3.8102,-1.1203,0.3456,0.7559,-0.2013,
20.398914,2.9749,3.8102,-1.1203,0.3456,0.7559,-0.2013,
20.414630,1.8492,0.8431,-3.4288,0.3456,0.7559,-0.2013,
20.456425,1.8492,0.8431,-3.4288,-0.9697,0.1646,0.1678,
20.464535,1.8492,0.8431,-3.4288,-0.9697,0.1646,0.1678,
20.480619,0.4701,-0.5929,-2.4406,-0.9697,0.1646,0.1678,
20.521916,0.4701,-0.5929,-2.4406,-1.2356,-0.3242,0.3847,
20.528346,0.4701,-0.5929,-2.4406,-1.2356,-0.3242,0.3847,
20.546171,-0.8585,-2.5717,-1.7743,-1.2356,-0.3242,0.3847,
20.587125,-0.8585,-2.5717,-1.7743,-0.2275,-0.1290,0.1184,
20.594166,-0.8585,-2.5717,-1.7743,-0.2275,-0.1290,0.1184,
20.611743,-1.6185,-3.1864,-0.6734,-0.2275,-0.1290,0.1184,
20.651618,-1.6185,-3.1864,-0.6734,0.6761,-0.5206,-0.1002,
20.659199,-1.6185,-3.1864,-0.6734,0.6761,-0.5206,-0.1002,
20.676819,-2.0648,0.2868,-0.4287,0.6761,-0.5206,-0.1002,
20.716888,-2.0648,0.2868,-0.4287,-0.1321,-0.9293,-0.0739,
20.725129,-2.0648,0.2868,-0.4287,-0.1321,-0.9293,-0.0739,
20.741891,-3.3407,-0.7364,-0.1534,-0.1321,-0.9293,-0.0739,
20.782171,-3.3407,-0.7364,-0.1534,-0.7894,-0.6301,0.1671,
20.790620,-3.3407,-0.7364,-0.1534,-0.7894,-0.6301,0.1671,
20.807603,4.0345,2.8039,1.6525,-0.7894,-0.6301,0.1671,
20.849937,4.0345,2.8039,1.6525,-0.4664,0.1161,-0.2599,
20.858012,4.0345,2.8039,1.6525,-0.4664,0.1161,-0.2599,
20.873414,1.9887,-2.3846,2.2156,-0.4664,0.1161,-0.2599,
20.913403,1.9887,-2.3846,2.2156,0.8435,0.1822,-0.6558,
20.922007,1.9887,-2.3846,2.2156,0.8435,0.1822,-0.6558,
20.939413,-1.4403,-3.4693,1.5179,0.8435,0.1822,-0.6558,
20.979652,-1.4403,-3.4693,1.5179,1.6735,-0.1164,-0.8743,
20.986964,-1.4403,-3.4693,1.5179,1.6735,-0.1164,-0.8743,
21.004818,-1.4991,1.0467,2.3453,1.6735,-0.1164,-0.8743,
21.046591,-1.4991,1.0467,2.3453,1.4823,0.1240,-0.5999,
21.053144,-1.4991,1.0467,2.3453,1.4823,0.1240,-0.5999,
21.075249,-1.8388,1.6927,2.0482,1.4823,0.1240,-0.5999,
21.110454,-1.8388,1.6927,2.0482,0.5669,-0.2992,-0.1135,
21.118166,-1.8388,1.6927,2.0482,0.5669,-0.2992,-0.1135,
21.136306,-0.6485,0.5691,2.0021,0.5669,-0.2992,-0.1135,
21.175026,-0.6485,0.5691,2.0021,1.6918,-0.8179,-0.2004,
21.185211,-0.6485,0.5691,2.0021,1.6918,-0.8179,-0.2004,
21.201565,2.9538,4.6306,-1.5445,1.6918,-0.8179,-0.2004,
21.242665,2.9538,4.6306,-1.5445,0.8154,0.0032,0.8482,
21.250113,2.9538,4.6306,-1.5445,0.8154,0.0032,0.8482,
21.266050,1.9966,1.0178,-5.2936,0.8154,0.0032,0.8482,
21.307446,1.9966,1.0178,-5.2936,-0.9491,0.7967,0.8945,
21.315439,1.9966,1.0178,-5.2936,-0.9491,0.7967,0.8945,
21.332117,2.5332,-1.8183,-1.7241,-0.9491,0.7967,0.8945,
21.371304,2.5332,-1.8183,-1.7241,-0.7059,0.3607,0.2999,
21.381891,2.5332,-1.8183,-1.7241,-0.7059,0.3607,0.2999,
21.397441,0.9578,-2.3794,-0.1000,-0.7059,0.3607,0.2999,
21.438046,0.9578,-2.3794,-0.1000,0.5424,0.2546,-0.2225,
21.444791,0.9578,-2.3794,-0.1000,0.5424,0.2546,-0.2225,
21.461290,-1.2036,-2.0802,-0.3588,0.5424,0.2546,-0.2225,
21.502109,-1.2036,-2.0802,-0.3588,0.4375,0.5964,-0.3890,
21.510652,-1.2036,-2.0802,-0.3588,0.4375,0.5964,-0.3890,
21.527574,-1.1867,-2.4094,0.7518,0.4375,0.5964,-0.3890,
21.568109,-1.1867,-2.4094,0.7518,-0.4383,0.6988,-0.3167,
21.576682,-1.1867,-2.4094,0.7518,-0.4383,0.6988,-0.3167,
21.592718,-1.0154,-1.8422,1.2701,-0.4383,0.6988,-0.3167,
21.634044,-1.0154,-1.8422,1.2701,-0.4033,0.9861,-0.2666,
21.642150,-1.0154,-1.8422,1.2701,-0.4033,0.9861,-0.2666,
21.658661,2.1724,6.1751,-1.0210,-0.4033,0.9861,-0.2666,
21.698772,2.1724,6.1751,-1.0210,-1.0324,-0.0806,0.1988,
21.707696,2.1724,6.1751,-1.0210,-1.0324,-0.0806,0.1988,
21.723656,-1.0045,0.6734,0.4439,-1.0324,-0.0806,0.1988,
21.764686,-1.0045,0.6734,0.4439,-1.2920,0.4621,0.5246,
21.773136,-1.0045,0.6734,0.4439,-1.2920,0.4621,0.5246,
21.790269,-2.3712,-4.3686,1.5759,-1.2920,0.4621,0.5246,
21.830119,-2.3712,-4.3686,1.5759,0.3199,0.3173,0.0796,
21.839051,-2.3712,-4.3686,1.5759,0.3199,0.3173,0.0796,
21.856487,-1.2722,-0.3336,-0.0808,0.3199,0.3173,0.0796,
21.895580,-1.2722,-0.3336,-0.0808,0.5362,0.2179,-0.2201,
21.904370,-1.2722,-0.3336,-0.0808,0.5362,0.2179,-0.2201,
21.920330,4.5850,1.8725,-1.8389,0.5362,0.2179,-0.2201,
21.961577,4.5850,1.8725,-1.8389,-0.2698,1.0698,0.3193,
21.969580,4.5850,1.8725,-1.8389,-0.2698,1.0698,0.3193,
21.986145,5.0294,-3.6460,-0.4499,-0.2698,1.0698,0.3193,
22.026505,5.0294,-3.6460,-0.4499,0.4517,0.5403,-0.1078,
22.035878,5.0294,-3.6460,-0.4499,0.4517,0.5403,-0.1078,
22.052133,0.1692,-3.8263,-0.5499,0.4517,0.5403,-0.1078,
22.092310,0.1692,-3.8263,-0.5499,1.6777,0.7787,-0.3679,
22.100705,0.1692,-3.8263,-0.5499,1.6777,0.7787,-0.3679,
22.116586,-0.8198,-1.8620,-1.2854,1.6777,0.7787,-0.3679,
22.157450,-0.8198,-1.8620,-1.2854,1.1571,-0.7343,-0.4901,
22.165791,-0.8198,-1.8620,-1.2854,1.1571,-0.7343,-0.4901,
22.182157,-2.6166,2.7364,-1.4033,1.1571,-0.7343,-0.4901,
22.222271,-2.6166,2.7364,-1.4033,0.2344,0.0286,-0.1888,
22.231108,-2.6166,2.7364,-1.4033,0.2344,0.0286,-0.1888,
22.248615,-1.6274,3.6730,4.9345,0.2344,0.0286,-0.1888,
22.288408,-1.6274,3.6730,4.9345,-0.3508,0.4172,0.8632,
22.297300,-1.6274,3.6730,4.9345,-0.3508,0.4172,0.8632,
22.314027,0.0242,-1.1292,-0.1621,-0.3508,0.4172,0.8632,
22.353139,0.0242,-1.1292,-0.1621,0.2385,1.7654,0.1820,
22.362077,0.0242,-1.1292,-0.1621,0.2385,1.7654,0.1820,
22.377769,2.3345,0.6312,-2.2119,0.2385,1.7654,0.1820,
22.418672,2.3345,0.6312,-2.2119,1.1368,0.4804,0.0496,
22.426890,2.3345,0.6312,-2.2119,1.1368,0.4804,0.0496,
22.444168,5.1594,-2.5727,-2.4738,1.1368,0.4804,0.0496,
22.485310,5.1594,-2.5727,-2.4738,-0.6475,1.2668,0.0215,
22.492113,5.1594,-2.5727,-2.4738,-0.6475,1.2668,0.0215,
22.508773,-1.5429,-4.9263,0.2857,-0.6475,1.2668,0.0215,
22.550111,-1.5429,-4.9263,0.2857,1.3282,-0.4117,-0.0872,
22.558018,-1.5429,-4.9263,0.2857,1.3282,-0.4117,-0.0872,
22.574701,-3.1031,-0.1338,0.8368,1.3282,-0.4117,-0.0872,
22.615675,-3.1031,-0.1338,0.8368,1.7935,-0.7518,-1.4290,
22.623287,-3.1031,-0.1338,0.8368,1.7935,-0.7518,-1.4290,
22.640391,-3.4105,7.3561,3.7975,1.7935,-0.7518,-1.4290,
22.680787,-3.4105,7.3561,3.7975,-0.4342,0.3555,1.2249,
22.688953,-3.4105,7.3561,3.7975,-0.4342,0.3555,1.2249,
22.705335,1.2660,-1.6737,-1.9852,-0.4342,0.3555,1.2249,
22.746168,1.2660,-1.6737,-1.9852,0.4928,3.3165,-0.0357,
22.755289,1.2660,-1.6737,-1.9852,0.4928,3.3165,-0.0357,
22.772185,7.4963,-3.0207,-1.6744,0.4928,3.3165,-0.0357,
22.811980,7.4963,-3.0207,-1.6744,2.0411,-0.8813,-0.8030,
22.820067,7.4963,-3.0207,-1.6744,2.0411,-0.8813,-0.8030,
22.836499,0.8145,-3.9049,-1.1715,2.0411,-0.8813,-0.8030,
22.876729,0.8145,-3.9049,-1.1715,0.6901,1.0484,0.0753,
22.885362,0.8145,-3.9049,-1.1715,0.6901,1.0484,0.0753,
22.902186,0.7410,-2.9412,0.2796,0.6901,1.0484,0.0753,
22.942817,0.7410,-2.9412,0.2796,1.7234,0.3218,-0.4270,
22.952986,0.7410,-2.9412,0.2796,1.7234,0.3218,-0.4270,
22.968447,-1.1926,-0.0424,-0.3590,1.7234,0.3218,-0.4270,
23.011287,-1.1926,-0.0424,-0.3590,1.3198,-0.6353,-1.8819,
23.017580,-1.1926,-0.0424,-0.3590,1.3198,-0.6353,-1.8819,
23.033450,-4.5365,7.8730,-2.1140,1.3198,-0.6353,-1.8819,
23.074271,-4.5365,7.8730,-2.1140,-0.5883,-0.3716,0.6807,
23.082084,-4.5365,7.8730,-2.1140,-0.5883,-0.3716,0.6807,
23.099875,-3.2292,2.5554,1.8965,-0.5883,-0.3716,0.6807,
23.142986,-3.2292,2.5554,1.8965,-1.0736,1.6067,2.2411,
23.151393,-3.2292,2.5554,1.8965,-1.0736,1.6067,2.2411,
23.165496,0.0553,-5.1805,-0.5831,-1.0736,1.6067,2.2411,
23.204815,0.0553,-5.1805,-0.5831,0.4366,1.6558,0.1260,
23.213829,0.0553,-5.1805,-0.5831,0.4366,1.6558,0.1260,
23.230523,1.6401,-2.1984,-0.5034,0.4366,1.6558,0.1260,
23.271598,1.6401,-2.1984,-0.5034,2.1397,-0.2950,0.1967,
23.279584,1.6401,-2.1984,-0.5034,2.1397,-0.2950,0.1967,
23.295272,2.7248,0.9039,-3.3038,2.1397,-0.2950,0.1967,
23.336174,2.7248,0.9039,-3.3038,-0.0128,-0.8786,0.0988,
23.344481,2.7248,0.9039,-3.3038,-0.0128,-0.8786,0.0988,
23.360875,-2.7205,-0.1676,0.0513,-0.0128,-0.8786,0.0988,
23.401521,-2.7205,-0.1676,0.0513,0.0041,-0.7647,0.1327,
23.410314,-2.7205,-0.1676,0.0513,0.0041,-0.7647,0.1327,
23.428899,-2.7195,-1.7396,-0.1894,0.0041,-0.7647,0.1327,
23.466889,-2.7195,-1.7396,-0.1894,0.0631,-0.1888,0.6370,
23.475878,-2.7195,-1.7396,-0.1894,0.0631,-0.1888,0.6370,
23.491447,1.1572,-2.3839,0.1180,0.0631,-0.1888,0.6370,
23.531873,1.1572,-2.3839,0.1180,-0.7584,-1.2793,0.3395,
23.540028,1.1572,-2.3839,0.1180,-0.7584,-1.2793,0.3395,
23.557440,1.0189,-1.9260,2.1569,-0.7584,-1.2793,0.3395,
23.598204,1.0189,-1.9260,2.1569,-0.6953,-0.2645,-0.1071,
23.606332,1.0189,-1.9260,2.1569,-0.6953,-0.2645,-0.1071,
23.623589,2.1347,-1.7457,-1.6706,-0.6953,-0.2645,-0.1071,
23.663493,2.1347,-1.7457,-1.6706,-1.1622,0.1457,-0.1463,
23.673143,2.1347,-1.7457,-1.6706,-1.1622,0.1457,-0.1463,
23.689168,8.0285,2.5280,-0.7405,-1.1622,0.1457,-0.1463,
23.728292,8.0285,2.5280,-0.7405,0.9881,0.8751,-0.6680,
23.738984,8.0285,2.5280,-0.7405,0.9881,0.8751,-0.6680,
23.753193,0.3436,3.5944,-0.0659,0.9881,0.8751,-0.6680,
23.794307,0.3436,3.5944,-0.0659,0.8337,0.6151,-0.7860,
23.802496,0.3436,3.5944,-0.0659,0.8337,0.6151,-0.7860,
23.819418,-4.9406,0.3694,-1.3631,0.8337,0.6151,-0.7860,
23.859530,-4.9406,0.3694,-1.3631,0.0832,0.9357,0.1011,
23.868104,-4.9406,0.3694,-1.3631,0.0832,0.9357,0.1011,
23.886021,-3.4003,-0.4282,-1.9423,0.0832,0.9357,0.1011,
23.925379,-3.4003,-0.4282,-1.9423,-0.0570,0.8815,-0.2714,
23.934618,-3.4003,-0.4282,-1.9423,-0.0570,0.8815,-0.2714,
23.952099,-2.1652,0.1487,-0.3758,-0.0570,0.8815,-0.2714,
23.991050,-2.1652,0.1487,-0.3758,-0.0961,0.1348,-0.1796,
23.999941,-2.1652,0.1487,-0.3758,-0.0961,0.1348,-0.1796,
24.016981,0.4182,1.1551,0.6741,-0.0961,0.1348,-0.1796,
24.056665,0.4182,1.1551,0.6741,-0.4238,0.5182,0.1640,
24.065542,0.4182,1.1551,0.6741,-0.4238,0.5182,0.1640,
24.082395,0.8462,-0.5652,2.0244,-0.4238,0.5182,0.1640,
24.121315,0.8462,-0.5652,2.0244,0.7885,0.7734,-0.0586,
24.131764,0.8462,-0.5652,2.0244,0.7885,0.7734,-0.0586,
24.146816,-0.8341,0.0160,0.5834,0.7885,0.7734,-0.0586,
24.187598,-0.8341,0.0160,0.5834,0.4302,0.7527,0.0037,
24.197082,-0.8341,0.0160,0.5834,0.4302,0.7527,0.0037,
24.212330,-2.7923,1.6663,-0.6990,0.4302,0.7527,0.0037,
24.253176,-2.7923,1.6663,-0.6990,0.6211,0.5748,-0.0102,
24.261527,-2.7923,1.6663,-0.6990,0.6211,0.5748,-0.0102,
24.277344,1.7325,0.2158,-3.4654,0.6211,0.5748,-0.0102,
24.317900,1.7325,0.2158,-3.4654,0.0571,0.5125,0.1926,
24.326033,1.7325,0.2158,-3.4654,0.0571,0.5125,0.1926,
24.342848,0.1733,-1.4977,0.2376,0.0571,0.5125,0.1926,
24.384940,0.1733,-1.4977,0.2376,0.0652,-0.8439,0.1384,
24.392763,0.1733,-1.4977,0.2376,0.0652,-0.8439,0.1384,
24.410832,-1.9474,-0.5492,0.5078,0.0652,-0.8439,0.1384,
24.448550,-1.9474,-0.5492,0.5078,0.1113,0.1385,-0.0486,
24.457350,-1.9474,-0.5492,0.5078,0.1113,0.1385,-0.0486,
24.474259,0.7835,-0.8628,-0.0090,0.1113,0.1385,-0.0486,
24.514824,0.7835,-0.8628,-0.0090,0.1590,-0.0192,-0.0458,
24.522544,0.7835,-0.8628,-0.0090,0.1590,-0.0192,-0.0458,
24.539354,1.0251,-1.2684,0.0483,0.1590,-0.0192,-0.0458,
24.580517,1.0251,-1.2684,0.0483,0.1416,-0.1523,-0.0935,
24.589948,1.0251,-1.2684,0.0483,0.1416,-0.1523,-0.0935,
24.606324,-0.3672,-0.8816,0.5616,0.1416,-0.1523,-0.0935,
24.645503,-0.3672,-0.8816,0.5616,0.3308,-0.1069,-0.2430,
24.654316,-0.3672,-0.8816,0.5616,0.3308,-0.1069,-0.2430,
24.670839,-0.1960,-0.7465,-0.0111,0.3308,-0.1069,-0.2430,
24.710716,-0.1960,-0.7465,-0.0111,-0.2526,-0.2622,-0.0652,
24.718452,-0.1960,-0.7465,-0.0111,-0.2526,-0.2622,-0.0652,
24.736014,1.1112,-1.1453,0.7550,-0.2526,-0.2622,-0.0652,
24.778036,1.1112,-1.1453,0.7550,-0.2929,-0.2330,-0.0929,
24.785470,1.1112,-1.1453,0.7550,-0.2929,-0.2330,-0.0929,
24.802457,1.5897,-1.2906,0.8849,-0.2929,-0.2330,-0.0929,
24.842394,1.5897,-1.2906,0.8849,-0.2017,-0.0444,-0.1284,
24.850232,1.5897,-1.2906,0.8849,-0.2017,-0.0444,-0.1284,
24.867648,2.8851,0.2710,-1.1194,-0.2017,-0.0444,-0.1284,
24.907912,2.8851,0.2710,-1.1194,0.0498,-0.6188,-0.2801,
24.917134,2.8851,0.2710,-1.1194,0.0498,-0.6188,-0.2801,
24.933638,1.5245,2.1250,-1.6131,0.0498,-0.6188,-0.2801,
24.973053,1.5245,2.1250,-1.6131,-0.6541,0.1943,0.0863,
24.982053,1.5245,2.1250,-1.6131,-0.6541,0.1943,0.0863,
24.998484,-0.7754,0.3233,0.8212,-0.6541,0.1943,0.0863,
25.037579,-0.7754,0.3233,0.8212,0.2740,-0.0047,-0.3529,
25.047410,-0.7754,0.3233,0.8212,0.2740,-0.0047,-0.3529,
25.063858,-2.6886,0.7035,-0.1588,0.2740,-0.0047,-0.3529,
25.105661,-2.6886,0.7035,-0.1588,0.5284,0.2286,-0.4290,
25.113451,-2.6886,0.7035,-0.1588,0.5284,0.2286,-0.4290,
25.128226,-1.8220,1.5474,-0.4769,0.5284,0.2286,-0.4290,
25.168812,-1.8220,1.5474,-0.4769,0.1324,0.1330,-0.4123,
25.177281,-1.8220,1.5474,-0.4769,0.1324,0.1330,-0.4123,
25.194822,-2.1191,0.4213,0.1238,0.1324,0.1330,-0.4123,
25.234321,-2.1191,0.4213,0.1238,0.0559,-0.1310,-0.2109,
25.242557,-2.1191,0.4213,0.1238,0.0559,-0.1310,-0.2109,
25.259004,-0.8416,0.6636,0.7780,0.0559,-0.1310,-0.2109,
25.300407,-0.8416,0.6636,0.7780,-0.0909,0.1602,0.0327,
25.308004,-0.8416,0.6636,0.7780,-0.0909,0.1602,0.0327,
25.324848,0.3485,0.0071,1.5617,-0.0909,0.1602,0.0327,
25.365272,0.3485,0.0071,1.5617,0.2361,0.4427,0.1558,
25.374257,0.3485,0.0071,1.5617,0.2361,0.4427,0.1558,
25.391104,0.3902,-0.4484,1.1672,0.2361,0.4427,0.1558,
25.431279,0.3902,-0.4484,1.1672,0.1509,0.4430,0.2268,
25.439761,0.3902,-0.4484,1.1672,0.1509,0.4430,0.2268,
25.456926,-0.6056,-0.1701,1.0363,0.1509,0.4430,0.2268,
25.497243,-0.6056,-0.1701,1.0363,0.3433,0.6435,0.1319,
25.507447,-0.6056,-0.1701,1.0363,0.3433,0.6435,0.1319,
25.523011,-0.6582,1.6049,-0.0742,0.3433,0.6435,0.1319,
25.562620,-0.6582,1.6049,-0.0742,0.9995,0.4244,-0.1527,
25.573078,-0.6582,1.6049,-0.0742,0.9995,0.4244,-0.1527,
25.588986,0.3685,-0.2035,-2.6621,0.9995,0.4244,-0.1527,
25.627787,0.3685,-0.2035,-2.6621,0.4076,0.7123,0.0194,
25.638182,0.3685,-0.2035,-2.6621,0.4076,0.7123,0.0194,
25.652683,0.3576,-1.1949,-0.3542,0.4076,0.7123,0.0194,
25.692839,0.3576,-1.1949,-0.3542,0.6759,-0.3688,-0.1617,
25.702390,0.3576,-1.1949,-0.3542,0.6759,-0.3688,-0.1617,
25.719793,-0.8161,-0.5471,0.1216,0.6759,-0.3688,-0.1617,
25.758791,-0.8161,-0.5471,0.1216,0.4675,-0.0142,-0.1254,
25.767259,-0.8161,-0.5471,0.1216,0.4675,-0.0142,-0.1254,
25.784370,-0.0603,-0.6167,-0.2099,0.4675,-0.0142,-0.1254,
25.826044,-0.0603,-0.6167,-0.2099,0.3117,-0.0296,-0.0967,
25.833593,-0.0603,-0.6167,-0.2099,0.3117,-0.0296,-0.0967,
25.849501,0.4116,-0.4002,0.2350,0.3117,-0.0296,-0.0967,
25.889778,0.4116,-0.4002,0.2350,-0.1087,-0.4331,-0.0140,
25.898064,0.4116,-0.4002,0.2350,-0.1087,-0.4331,-0.0140,
25.914780,0.4311,0.1652,0.6742,-0.1087,-0.4331,-0.0140,
25.955563,0.4311,0.1652,0.6742,-0.3004,-0.4270,0.0840,
25.963215,0.4311,0.1652,0.6742,-0.3004,-0.4270,0.0840,
25.980317,0.7438,-0.0024,0.5397,-0.3004,-0.4270,0.0840,
26.020636,0.7438,-0.0024,0.5397,-0.7373,-0.3093,0.1373,
26.028810,0.7438,-0.0024,0.5397,-0.7373,-0.3093,0.1373,
26.045363,1.5907,-0.8917,0.4457,-0.7373,-0.3093,0.1373,
26.086135,1.5907,-0.8917,0.4457,-1.0544,-0.3914,0.3383,
26.094167,1.5907,-0.8917,0.4457,-1.0544,-0.3914,0.3383,
26.111544,3.0708,-1.2539,-0.3903,-1.0544,-0.3914,0.3383,
26.150397,3.0708,-1.2539,-0.3903,-0.1202,0.1342,0.1823,
26.159925,3.0708,-1.2539,-0.3903,-0.1202,0.1342,0.1823,
26.175716,2.2952,1.4808,-1.3937,-0.1202,0.1342,0.1823,
26.216723,2.2952,1.4808,-1.3937,-0.0208,0.0620,-0.1773,
26.225069,2.2952,1.4808,-1.3937,-0.0208,0.0620,-0.1773,
26.242974,-3.0955,-0.5445,0.1526,-0.0208,0.0620,-0.1773,
26.283605,-3.0955,-0.5445,0.1526,-0.1190,0.7335,-0.1245,
26.291977,-3.0955,-0.5445,0.1526,-0.1190,0.7335,-0.1245,
26.307339,-2.1233,0.5135,0.4197,-0.1190,0.7335,-0.1245,
26.348014,-2.1233,0.5135,0.4197,0.4814,0.4220,-0.1912,
26.357380,-2.1233,0.5135,0.4197,0.4814,0.4220,-0.1912,
26.372723,-0.6393,1.7358,-0.7450,0.4814,0.4220,-0.1912,
26.414016,-0.6393,1.7358,-0.7450,0.1746,0.4328,-0.2682,
26.422121,-0.6393,1.7358,-0.7450,0.1746,0.4328,-0.2682,
26.438829,-1.8310,-0.3707,0.2911,0.1746,0.4328,-0.2682,
26.479560,-1.8310,-0.3707,0.2911,0.2665,0.0611,-0.1813,
26.487424,-1.8310,-0.3707,0.2911,0.2665,0.0611,-0.1813,
26.503982,-0.6299,0.0223,0.8656,0.2665,0.0611,-0.1813,
26.544024,-0.6299,0.0223,0.8656,0.3768,0.2078,-0.1332,
26.552499,-0.6299,0.0223,0.8656,0.3768,0.2078,-0.1332,
26.569675,-0.2137,0.4560,1.8904,0.3768,0.2078,-0.1332,
26.608993,-0.2137,0.4560,1.8904,0.5921,0.4171,-0.0072,
26.618304,-0.2137,0.4560,1.8904,0.5921,0.4171,-0.0072,
26.635553,0.0719,-0.4017,1.9661,0.5921,0.4171,-0.0072,
26.675715,0.0719,-0.4017,1.9661,0.5012,0.6017,0.1955,
26.684169,0.0719,-0.4017,1.9661,0.5012,0.6017,0.1955,
26.701514,-0.7390,-1.4082,1.9290,0.5012,0.6017,0.1955,
26.741513,-0.7390,-1.4082,1.9290,0.6255,0.7775,0.1387,
26.749539,-0.7390,-1.4082,1.9290,0.6255,0.7775,0.1387,
26.767186,0.9376,4.7308,-1.6484,0.6255,0.7775,0.1387,
26.807360,0.9376,4.7308,-1.6484,1.1351,0.6359,-0.4426,
26.815868,0.9376,4.7308,-1.6484,1.1351,0.6359,-0.4426,
26.831410,-0.3311,0.3015,-4.9750,1.1351,0.6359,-0.4426,
26.872495,-0.3311,0.3015,-4.9750,-0.0591,1.2281,0.3407,
26.880596,-0.3311,0.3015,-4.9750,-0.0591,1.2281,0.3407,
26.896891,1.8390,-2.0021,-0.5993,-0.0591,1.2281,0.3407,
26.938419,1.8390,-2.0021,-0.5993,0.0791,-0.8767,0.0741,
26.946320,1.8390,-2.0021,-0.5993,0.0791,-0.8767,0.0741,
26.962996,-0.7939,0.0565,0.6900,0.0791,-0.8767,0.0741,
27.003884,-0.7939,0.0565,0.6900,0.2056,0.3001,-0.1504,
27.010666,-0.7939,0.0565,0.6900,0.2056,0.3001,-0.1504,
27.027782,-1.0503,-0.7107,0.3134,0.2056,0.3001,-0.1504,
27.068355,-1.0503,-0.7107,0.3134,0.4013,0.4563,-0.0580,
27.076683,-1.0503,-0.7107,0.3134,0.4013,0.4563,-0.0580,
27.092918,1.4867,-1.3141,-0.6241,0.4013,0.4563,-0.0580,
27.133221,1.4867,-1.3141,-0.6241,0.0568,-0.0415,-0.1426,
27.141786,1.4867,-1.3141,-0.6241,0.0568,-0.0415,-0.1426,
27.158367,-0.1707,-0.2246,-0.2262,0.0568,-0.0415,-0.1426,
27.199858,-0.1707,-0.2246,-0.2262,-0.1541,-0.1153,-0.0232,
27.208113,-0.1707,-0.2246,-0.2262,-0.1541,-0.1153,-0.0232,
27.223903,0.3542,-0.2774,0.2641,-0.1541,-0.1153,-0.0232,
27.265829,0.3542,-0.2774,0.2641,0.0574,0.0156,-0.0927,
27.273116,0.3542,-0.2774,0.2641,0.0574,0.0156,-0.0927,
27.288981,-0.1109,-0.7874,0.0423,0.0574,0.0156,-0.0927,
27.330854,-0.1109,-0.7874,0.0423,-0.2753,-0.3024,0.0171,
27.338976,-0.1109,-0.7874,0.0423,-0.2753,-0.3024,0.0171,
27.355303,0.4830,-1.2695,0.0021,-0.2753,-0.3024,0.0171,
27.395621,0.4830,-1.2695,0.0021,-0.2459,-0.2137,0.0872,
27.404502,0.4830,-1.2695,0.0021,-0.2459,-0.2137,0.0872,
27.421234,1.7330,-1.3956,0.9315,-0.2459,-0.2137,0.0872,
27.462188,1.7330,-1.3956,0.9315,-0.0748,-0.2889,0.0776,
27.470335,1.7330,-1.3956,0.9315,-0.0748,-0.2889,0.0776,
27.486711,2.1923,0.4260,-0.3611,-0.0748,-0.2889,0.0776,
27.526978,2.1923,0.4260,-0.3611,0.4417,0.0292,-0.0930,
27.535861,2.1923,0.4260,-0.3611,0.4417,0.0292,-0.0930,
27.551338,0.6036,2.8055,-0.7931,0.4417,0.0292,-0.0930,
27.592021,0.6036,2.8055,-0.7931,0.1013,-0.1458,-0.0693,
27.601585,0.6036,2.8055,-0.7931,0.1013,-0.1458,-0.0693,
27.618589,-2.9528,-0.5499,-0.1152,0.1013,-0.1458,-0.0693,
27.657621,-2.9528,-0.5499,-0.1152,-0.0817,-0.2486,-0.0826,
27.666741,-2.9528,-0.5499,-0.1152,-0.0817,-0.2486,-0.0826,
27.683504,-3.6631,-0.4940,-0.4249,-0.0817,-0.2486,-0.0826,
27.722597,-3.6631,-0.4940,-0.4249,0.1555,0.1709,0.0200,
27.732317,-3.6631,-0.4940,-0.4249,0.1555,0.1709,0.0200,
27.748208,0.8942,2.6127,-0.7413,0.1555,0.1709,0.0200,
27.788153,0.8942,2.6127,-0.7413,-0.0356,0.0745,-0.0878,
27.796654,0.8942,2.6127,-0.7413,-0.0356,0.0745,-0.0878,
27.814068,0.5642,-0.7618,0.8833,-0.0356,0.0745,-0.0878,
27.854197,0.5642,-0.7618,0.8833,0.3830,-0.0893,-0.3812,
27.863780,0.5642,-0.7618,0.8833,0.3830,-0.0893,-0.3812,
27.878564,-0.9460,-0.3371,0.6648,0.3830,-0.0893,-0.3812,
27.921058,-0.9460,-0.3371,0.6648,0.5328,0.3619,-0.3600,
27.929619,-0.9460,-0.3371,0.6648,0.5328,0.3619,-0.3600,
27.946310,-0.4265,0.7348,0.9881,0.5328,0.3619,-0.3600,
27.983583,-0.4265,0.7348,0.9881,0.5000,0.5116,-0.1874,
27.993088,-0.4265,0.7348,0.9881,0.5000,0.5116,-0.1874,
28.010235,0.7874,-0.0414,1.5813,0.5000,0.5116,-0.1874,
28.051626,0.7874,-0.0414,1.5813,0.6011,0.5745,-0.2517,
28.059393,0.7874,-0.0414,1.5813,0.6011,0.5745,-0.2517,
28.075387,0.2261,-0.1163,1.8454,0.6011,0.5745,-0.2517,
28.115721,0.2261,-0.1163,1.8454,0.4927,1.2445,-0.0951,
28.124548,0.2261,-0.1163,1.8454,0.4927,1.2445,-0.0951,
28.141843,0.2902,-0.3211,2.2789,0.4927,1.2445,-0.0951,
28.181295,0.2902,-0.3211,2.2789,1.0602,0.7984,-0.2202,
28.188910,0.2902,-0.3211,2.2789,1.0602,0.7984,-0.2202,
28.206766,0.9742,3.4284,-4.2019,1.0602,0.7984,-0.2202,
28.247482,0.9742,3.4284,-4.2019,0.8092,1.0618,-0.3038,
28.254864,0.9742,3.4284,-4.2019,0.8092,1.0618,-0.3038,
28.271732,0.7519,-0.7594,-3.6298,0.8092,1.0618,-0.3038,
28.312106,0.7519,-0.7594,-3.6298,0.1830,0.6723,-0.0218,
28.321575,0.7519,-0.7594,-3.6298,0.1830,0.6723,-0.0218,
28.337381,-0.3164,-1.9265,0.0200,0.1830,0.6723,-0.0218,
28.377573,-0.3164,-1.9265,0.0200,0.5777,-0.1003,-0.3120,
28.386134,-0.3164,-1.9265,0.0200,0.5777,-0.1003,-0.3120,
28.402615,-1.8478,-1.2679,0.2251,0.5777,-0.1003,-0.3120,
28.443391,-1.8478,-1.2679,0.2251,0.5686,0.3450,-0.2425,
28.451446,-1.8478,-1.2679,0.2251,0.5686,0.3450,-0.2425,
28.470104,-0.3473,-0.2147,-0.7176,0.5686,0.3450,-0.2425,
28.508508,-0.3473,-0.2147,-0.7176,0.0806,0.1151,0.0525,
28.517481,-0.3473,-0.2147,-0.7176,0.0806,0.1151,0.0525,
28.535248,0.2971,0.3545,-0.3066,0.0806,0.1151,0.0525,
28.575120,0.2971,0.3545,-0.3066,-0.2295,-0.4426,0.1020,
28.582833,0.2971,0.3545,-0.3066,-0.2295,-0.4426,0.1020,
28.599547,-0.8492,0.2119,-0.1797,-0.2295,-0.4426,0.1020,
28.640445,-0.8492,0.2119,-0.1797,-0.5133,-0.2279,0.2531,
28.648495,-0.8492,0.2119,-0.1797,-0.5133,-0.2279,0.2531,
28.665243,0.3530,-0.7624,-0.1087,-0.5133,-0.2279,0.2531,
28.704452,0.3530,-0.7624,-0.1087,-0.3874,-0.5238,0.2141,
28.713309,0.3530,-0.7624,-0.1087,-0.3874,-0.5238,0.2141,
28.729436,0.2292,-0.6212,0.1566,-0.3874,-0.5238,0.2141,
28.770076,0.2292,-0.6212,0.1566,-0.4285,-0.6132,0.1985,
28.778474,0.2292,-0.6212,0.1566,-0.4285,-0.6132,0.1985,
28.795360,-0.0524,-0.8353,0.6406,-0.4285,-0.6132,0.1985,
28.835140,-0.0524,-0.8353,0.6406,-0.2300,-0.4801,0.1539,
28.843011,-0.0524,-0.8353,0.6406,-0.2300,-0.4801,0.1539,
28.860900,0.7243,-0.5946,0.4836,-0.2300,-0.4801,0.1539,
28.900809,0.7243,-0.5946,0.4836,-0.5573,-0.6225,0.2193,
28.910919,0.7243,-0.5946,0.4836,-0.5573,-0.6225,0.2193,
28.926304,2.0105,-0.1849,0.7231,-0.5573,-0.6225,0.2193,
28.968291,2.0105,-0.1849,0.7231,-1.1035,-0.3453,0.3459,
28.977348,2.0105,-0.1849,0.7231,-1.1035,-0.3453,0.3459,
28.993305,3.2510,0.3152,-0.3808,-1.1035,-0.3453,0.3459,
29.032982,3.2510,0.3152,-0.3808,-0.4168,0.3650,0.0652,
29.042185,3.2510,0.3152,-0.3808,-0.4168,0.3650,0.0652,
29.058237,1.5105,0.8225,-1.0806,-0.4168,0.3650,0.0652,
29.098025,1.5105,0.8225,-1.0806,-0.3836,0.0182,-0.0794,
29.105946,1.5105,0.8225,-1.0806,-0.3836,0.0182,-0.0794,
29.123356,-2.9196,-0.9155,-0.6545,-0.3836,0.0182,-0.0794,
29.165007,-2.9196,-0.9155,-0.6545,-0.5047,-0.1521,-0.1274,
29.172035,-2.9196,-0.9155,-0.6545,-0.5047,-0.1521,-0.1274,
29.189309,-3.1447,-0.3409,-0.5009,-0.5047,-0.1521,-0.1274,
29.230155,-3.1447,-0.3409,-0.5009,-0.2677,-0.4617,-0.1162,
29.236739,-3.1447,-0.3409,-0.5009,-0.2677,-0.4617,-0.1162,
29.253934,0.3326,1.3988,0.3480,-0.2677,-0.4617,-0.1162,
29.295159,0.3326,1.3988,0.3480,0.0428,-0.0130,0.0339,
29.303065,0.3326,1.3988,0.3480,0.0428,-0.0130,0.0339,
29.319910,0.8392,-2.2118,1.4130,0.0428,-0.0130,0.0339,
29.361422,0.8392,-2.2118,1.4130,0.8473,0.1330,-0.0933,
29.367859,0.8392,-2.2118,1.4130,0.8473,0.1330,-0.0933,
29.385305,0.0725,-0.0096,1.1288,0.8473,0.1330,-0.0933,
29.426353,0.0725,-0.0096,1.1288,1.0835,0.1550,-0.1321,
29.434330,0.0725,-0.0096,1.1288,1.0835,0.1550,-0.1321,
29.450564,-1.1456,0.5545,2.0240,1.0835,0.1550,-0.1321,
29.491840,-1.1456,0.5545,2.0240,1.1312,-0.2291,0.2304,
29.500505,-1.1456,0.5545,2.0240,1.1312,-0.2291,0.2304,
29.515595,-2.7017,-0.7005,0.0493,1.1312,-0.2291,0.2304,
29.557624,-2.7017,-0.7005,0.0493,0.9705,0.0724,0.1643,
29.566403,-2.7017,-0.7005,0.0493,0.9705,0.0724,0.1643,
29.581836,1.0835,1.2812,-2.7982,0.9705,0.0724,0.1643,
29.623393,1.0835,1.2812,-2.7982,0.5941,0.8036,0.2602,
29.630384,1.0835,1.2812,-2.7982,0.5941,0.8036,0.2602,
29.647722,5.6974,0.8599,0.0344,0.5941,0.8036,0.2602,
29.689206,5.6974,0.8599,0.0344,-1.3465,1.0739,-0.1607,
29.696436,5.6974,0.8599,0.0344,-1.3465,1.0739,-0.1607,
29.713041,0.2545,-3.7273,1.6310,-1.3465,1.0739,-0.1607,
29.752554,0.2545,-3.7273,1.6310,0.8089,1.9345,-0.8940,
29.762065,0.2545,-3.7273,1.6310,0.8089,1.9345,-0.8940,
29.778683,-1.9258,-4.0681,0.9089,0.8089,1.9345,-0.8940,
29.817095,-1.9258,-4.0681,0.9089,3.1922,-0.5125,-1.8518,
29.826456,-1.9258,-4.0681,0.9089,3.1922,-0.5125,-1.8518,
29.843892,0.7472,10.9448,-3.6046,3.1922,-0.5125,-1.8518,
29.883476,0.7472,10.9448,-3.6046,-1.4048,0.0597,-0.1385,
29.892143,0.7472,10.9448,-3.6046,-1.4048,0.0597,-0.1385,
29.908547,-4.7559,-1.0029,1.6697,-1.4048,0.0597,-0.1385,
29.949313,-4.7559,-1.0029,1.6697,-1.7988,0.5096,1.0854,
29.957330,-4.7559,-1.0029,1.6697,-1.7988,0.5096,1.0854,
29.974266,1.3121,-1.6711,-2.6184,-1.7988,0.5096,1.0854,
30.015448,1.3121,-1.6711,-2.6184,1.4331,2.3437,-0.4969,
30.026067,1.3121,-1.6711,-2.6184,1.4331,2.3437,-0.4969,
30.039754,9.8445,-3.3101,0.0206,1.4331,2.3437,-0.4969,
30.080149,9.8445,-3.3101,0.0206,-0.2071,-0.6449,-0.9274,
30.090098,9.8445,-3.3101,0.0206,-0.2071,-0.6449,-0.9274,
30.104750,-0.0067,-3.3245,-0.1890,-0.2071,-0.6449,-0.9274,
30.146038,-0.0067,-3.3245,-0.1890,-0.5945,1.0583,-0.1326,
30.153544,-0.0067,-3.3245,-0.1890,-0.5945,1.0583,-0.1326,
30.171935,-0.7713,-0.7945,1.6239,-0.5945,1.0583,-0.1326,
30.214888,-0.7713,-0.7945,1.6239,1.5493,0.9349,-0.5611,
30.219680,-0.7713,-0.7945,1.6239,1.5493,0.9349,-0.5611,
30.237595,-0.5317,2.2546,-1.5293,1.5493,0.9349,-0.5611,
30.276799,-0.5317,2.2546,-1.5293,0.8754,0.8173,-0.4308,
30.285577,-0.5317,2.2546,-1.5293,0.8754,0.8173,-0.4308,
30.302220,-1.2907,1.2231,-0.5471,0.8754,0.8173,-0.4308,
30.342318,-1.2907,1.2231,-0.5471,-0.3647,0.1188,0.2072,
30.350698,-1.2907,1.2231,-0.5471,-0.3647,0.1188,0.2072,
30.368056,-2.8120,0.8009,-0.2349,-0.3647,0.1188,0.2072,
30.408809,-2.8120,0.8009,-0.2349,-0.2527,0.5906,0.1245,
30.417297,-2.8120,0.8009,-0.2349,-0.2527,0.5906,0.1245,
30.432976,-2.4341,-1.2792,0.6107,-0.2527,0.5906,0.1245,
30.475110,-2.4341,-1.2792,0.6107,-0.1356,0.0325,0.3531,
30.483284,-2.4341,-1.2792,0.6107,-0.1356,0.0325,0.3531,
30.499228,1.1827,-1.7080,-1.1145,-0.1356,0.0325,0.3531,
30.540247,1.1827,-1.7080,-1.1145,0.6518,1.1701,0.3604,
30.547160,1.1827,-1.7080,-1.1145,0.6518,1.1701,0.3604,
30.565109,4.2801,-2.5047,-1.7044,0.6518,1.1701,0.3604,
30.604664,4.2801,-2.5047,-1.7044,0.1906,-0.9600,0.3694,
30.613569,4.2801,-2.5047,-1.7044,0.1906,-0.9600,0.3694,
30.630943,-0.0763,-1.3237,-1.8083,0.1906,-0.9600,0.3694,
30.671649,-0.0763,-1.3237,-1.8083,-0.4907,-0.9960,0.4468,
30.680569,-0.0763,-1.3237,-1.8083,-0.4907,-0.9960,0.4468,
30.695650,-0.8459,0.2258,1.0820,-0.4907,-0.9960,0.4468,
30.734447,-0.8459,0.2258,1.0820,0.5231,-0.1775,0.4983,
30.742577,-0.8459,0.2258,1.0820,0.5231,-0.1775,0.4983,
30.762152,-0.6450,2.9530,1.1559,0.5231,-0.1775,0.4983,
30.800422,-0.6450,2.9530,1.1559,0.5812,-0.2494,0.5481,
30.808986,-0.6450,2.9530,1.1559,0.5812,-0.2494,0.5481,
30.827054,-1.6768,0.6649,0.6999,0.5812,-0.2494,0.5481,
30.866146,-1.6768,0.6649,0.6999,-0.0255,-0.2813,0.6787,
30.875487,-1.6768,0.6649,0.6999,-0.0255,-0.2813,0.6787,
30.891579,-0.7795,0.5512,0.7555,-0.0255,-0.2813,0.6787,
30.931231,-0.7795,0.5512,0.7555,0.0305,0.3761,0.4430,
30.940111,-0.7795,0.5512,0.7555,0.0305,0.3761,0.4430,
30.956780,-1.6802,0.5237,0.5571,0.0305,0.3761,0.4430,
30.997326,-1.6802,0.5237,0.5571,-0.0724,-0.3230,0.3141,
31.005261,-1.6802,0.5237,0.5571,-0.0724,-0.3230,0.3141,
31.022299,0.7310,-0.6984,-2.2255,-0.0724,-0.3230,0.3141,
31.062210,0.7310,-0.6984,-2.2255,0.5447,0.0458,-0.1969,
31.072006,0.7310,-0.6984,-2.2255,0.5447,0.0458,-0.1969,
31.087881,1.7360,-1.9567,-2.1838,0.5447,0.0458,-0.1969,
31.127964,1.7360,-1.9567,-2.1838,-0.0826,-0.2773,-0.2011,
31.137140,1.7360,-1.9567,-2.1838,-0.0826,-0.2773,-0.2011,
31.153418,0.5048,-0.8446,-0.3635,-0.0826,-0.2773,-0.2011,
31.193453,0.5048,-0.8446,-0.3635,-0.2497,-0.2327,0.1779,
31.203279,0.5048,-0.8446,-0.3635,-0.2497,-0.2327,0.1779,
31.219861,2.1850,-1.0991,-0.1429,-0.2497,-0.2327,0.1779,
31.258227,2.1850,-1.0991,-0.1429,-0.2711,-0.1567,-0.4858,
31.267083,2.1850,-1.0991,-0.1429,-0.2711,-0.1567,-0.4858,
31.283019,1.1837,-2.0882,0.5342,-0.2711,-0.1567,-0.4858,
31.324428,1.1837,-2.0882,0.5342,0.0125,0.0386,-0.5925,
31.332850,1.1837,-2.0882,0.5342,0.0125,0.0386,-0.5925,
31.348710,0.9414,0.9428,0.0017,0.0125,0.0386,-0.5925,
31.390669,0.9414,0.9428,0.0017,0.3045,0.4337,-0.2700,
31.399081,0.9414,0.9428,0.0017,0.3045,0.4337,-0.2700,
31.414883,-2.3128,1.0605,-0.1616,0.3045,0.4337,-0.2700,
31.454639,-2.3128,1.0605,-0.1616,0.1309,0.3474,-0.3158,
31.464026,-2.3128,1.0605,-0.1616,0.1309,0.3474,-0.3158,
31.480742,-2.2309,1.8770,0.4760,0.1309,0.3474,-0.3158,
31.522112,-2.2309,1.8770,0.4760,0.0564,0.6049,-0.0530,
31.527728,-2.2309,1.8770,0.4760,0.0564,0.6049,-0.0530,
31.544290,1.3195,0.4213,0.3520,0.0564,0.6049,-0.0530,
31.586422,1.3195,0.4213,0.3520,0.1284,0.1075,-0.6457,
31.595135,1.3195,0.4213,0.3520,0.1284,0.1075,-0.6457,
31.611628,-0.6403,0.7050,1.6139,0.1284,0.1075,-0.6457,
31.653238,-0.6403,0.7050,1.6139,-0.3800,0.5707,-0.3374,
31.661078,-0.6403,0.7050,1.6139,-0.3800,0.5707,-0.3374,
31.678330,-0.9456,-1.5360,0.9862,-0.3800,0.5707,-0.3374,
31.717927,-0.9456,-1.5360,0.9862,0.4585,0.1758,-0.6674,
31.726414,-0.9456,-1.5360,0.9862,0.4585,0.1758,-0.6674,
31.742925,-1.5524,0.3948,-1.7788,0.4585,0.1758,-0.6674,
31.784657,-1.5524,0.3948,-1.7788,0.6935,-0.0634,-0.5029,
31.791214,-1.5524,0.3948,-1.7788,0.6935,-0.0634,-0.5029,
31.809183,0.6798,-1.7581,-3.4155,0.6935,-0.0634,-0.5029,
31.848352,0.6798,-1.7581,-3.4155,-0.6124,-0.1976,0.1756,
31.857907,0.6798,-1.7581,-3.4155,-0.6124,-0.1976,0.1756,
31.873195,4.2605,0.6827,-0.2986,-0.6124,-0.1976,0.1756,
31.914209,4.2605,0.6827,-0.2986,-0.9571,-0.5001,-0.1269,
31.922074,4.2605,0.6827,-0.2986,-0.9571,-0.5001,-0.1269,
31.938943,3.2678,-1.2743,1.2085,-0.9571,-0.5001,-0.1269,
31.980596,3.2678,-1.2743,1.2085,0.2337,1.1869,-0.3221,
31.989250,3.2678,-1.2743,1.2085,0.2337,1.1869,-0.3221,
32.006209,-1.6524,-3.8277,0.1227,0.2337,1.1869,-0.3221,
32.044090,-1.6524,-3.8277,0.1227,0.6868,0.5380,-0.0780,
32.052517,-1.6524,-3.8277,0.1227,0.6868,0.5380,-0.0780,
32.068911,-3.4698,-2.6077,-2.1617,0.6868,0.5380,-0.0780,
32.109586,-3.4698,-2.6077,-2.1617,0.5316,-0.5455,-0.3024,
32.118092,-3.4698,-2.6077,-2.1617,0.5316,-0.5455,-0.3024,
32.134794,-3.5875,1.3727,-0.5928,0.5316,-0.5455,-0.3024,
32.175404,-3.5875,1.3727,-0.5928,0.9476,-0.2175,-0.1243,
32.184708,-3.5875,1.3727,-0.5928,0.9476,-0.2175,-0.1243,
32.200938,0.3627,5.6581,3.3653,0.9476,-0.2175,-0.1243,
32.241523,0.3627,5.6581,3.3653,0.4789,-0.3050,0.1897,
32.249986,0.3627,5.6581,3.3653,0.4789,-0.3050,0.1897,
32.266492,-0.9284,1.9883,-0.5486,0.4789,-0.3050,0.1897,
32.307838,-0.9284,1.9883,-0.5486,-0.6574,0.6804,0.5695,
32.316435,-0.9284,1.9883,-0.5486,-0.6574,0.6804,0.5695,
32.332780,-1.2912,-1.9223,-0.4139,-0.6574,0.6804,0.5695,
32.373458,-1.2912,-1.9223,-0.4139,0.9366,0.5641,1.1328,
32.381305,-1.2912,-1.9223,-0.4139,0.9366,0.5641,1.1328,
32.397422,3.7249,-3.6146,-2.6314,0.9366,0.5641,1.1328,
32.436890,3.7249,-3.6146,-2.6314,-0.0846,-0.1507,-0.1426,
32.445056,3.7249,-3.6146,-2.6314,-0.0846,-0.1507,-0.1426,
32.462824,3.2181,4.2060,0.0060,-0.0846,-0.1507,-0.1426,
32.502798,3.2181,4.2060,0.0060,-1.0997,0.3471,0.5996,
32.511560,3.2181,4.2060,0.0060,-1.0997,0.3471,0.5996,
32.529848,3.2371,0.6600,-0.7293,-1.0997,0.3471,0.5996,
32.568398,3.2371,0.6600,-0.7293,-1.5896,-0.2782,1.1173,
32.576256,3.2371,0.6600,-0.7293,-1.5896,-0.2782,1.1173,
32.593602,3.9285,1.2086,-0.0701,-1.5896,-0.2782,1.1173,
32.634813,3.9285,1.2086,-0.0701,-0.6167,-0.7440,-0.0777,
32.642021,3.9285,1.2086,-0.0701,-0.6167,-0.7440,-0.0777,
32.658116,-3.9145,-1.1172,0.2690,-0.6167,-0.7440,-0.0777,
32.700107,-3.9145,-1.1172,0.2690,0.9030,0.4250,-0.0044,
32.707148,-3.9145,-1.1172,0.2690,0.9030,0.4250,-0.0044,
32.723427,-3.2218,-1.9919,0.1723,0.9030,0.4250,-0.0044,
32.764155,-3.2218,-1.9919,0.1723,1.5291,0.7240,-0.3899,
32.773365,-3.2218,-1.9919,0.1723,1.5291,0.7240,-0.3899,
32.789553,-0.5649,-0.1331,0.9625,1.5291,0.7240,-0.3899,
32.830472,-0.5649,-0.1331,0.9625,1.9610,0.5102,-1.0255,
32.838201,-0.5649,-0.1331,0.9625,1.9610,0.5102,-1.0255,
32.856036,-1.1975,1.1661,0.9004,1.9610,0.5102,-1.0255,
32.896079,-1.1975,1.1661,0.9004,1.2656,0.8448,-0.8987,
32.904673,-1.1975,1.1661,0.9004,1.2656,0.8448,-0.8987,
32.921087,-3.1694,1.0284,-0.2025,1.2656,0.8448,-0.8987,
32.961572,-3.1694,1.0284,-0.2025,0.8063,0.7396,-0.4073,
32.969633,-3.1694,1.0284,-0.2025,0.8063,0.7396,-0.4073,
32.986765,2.0060,0.9648,-2.4846,0.8063,0.7396,-0.4073,
33.026161,2.0060,0.9648,-2.4846,0.4255,0.2709,-0.4611,
33.034937,2.0060,0.9648,-2.4846,0.4255,0.2709,-0.4611,
33.052767,-0.7322,-1.3904,-0.6729,0.4255,0.2709,-0.4611,
33.092273,-0.7322,-1.3904,-0.6729,0.3858,0.7850,-0.3302,
33.100370,-0.7322,-1.3904,-0.6729,0.3858,0.7850,-0.3302,
33.116961,-0.7845,-3.1892,-0.3293,0.3858,0.7850,-0.3302,
33.158186,-0.7845,-3.1892,-0.3293,0.6678,-0.4470,-0.3906,
33.165521,-0.7845,-3.1892,-0.3293,0.6678,-0.4470,-0.3906,
33.183716,0.7729,0.3928,-2.6131,0.6678,-0.4470,-0.3906,
33.223312,0.7729,0.3928,-2.6131,-1.0157,-0.8555,0.2546,
33.232439,0.7729,0.3928,-2.6131,-1.0157,-0.8555,0.2546,
33.248730,3.1762,-0.1501,0.7252,-1.0157,-0.8555,0.2546,
33.288878,3.1762,-0.1501,0.7252,-0.7318,-0.1866,0.0780,
33.297491,3.1762,-0.1501,0.7252,-0.7318,-0.1866,0.0780,
33.314176,2.9612,-2.5659,2.8680,-0.7318,-0.1866,0.0780,
33.354631,2.9612,-2.5659,2.8680,0.2692,0.4163,-0.1767,
33.362388,2.9612,-2.5659,2.8680,0.2692,0.4163,-0.1767,
33.379892,1.0166,-1.0233,0.8924,0.2692,0.4163,-0.1767,
33.419568,1.0166,-1.0233,0.8924,0.7030,0.4844,-0.2941,
33.428923,1.0166,-1.0233,0.8924,0.7030,0.4844,-0.2941,
33.445149,-1.2352,0.9554,-0.5863,0.7030,0.4844,-0.2941,
33.486263,-1.2352,0.9554,-0.5863,0.5547,0.2868,-0.1066,
33.493954,-1.2352,0.9554,-0.5863,0.5547,0.2868,-0.1066,
33.509782,-2.2835,2.0536,-1.3408,0.5547,0.2868,-0.1066,
33.551477,-2.2835,2.0536,-1.3408,-0.0086,0.2468,0.1148,
33.560357,-2.2835,2.0536,-1.3408,-0.0086,0.2468,0.1148,
33.574452,-1.0038,0.8640,-0.8757,-0.0086,0.2468,0.1148,
33.616040,-1.0038,0.8640,-0.8757,-0.2946,-0.3625,-0.0379,
33.625088,-1.0038,0.8640,-0.8757,-0.2946,-0.3625,-0.0379,
33.640527,-2.3713,-0.4867,0.1524,-0.2946,-0.3625,-0.0379,
33.680718,-2.3713,-0.4867,0.1524,-0.1533,-0.1362,0.0189,
33.689680,-2.3713,-0.4867,0.1524,-0.1533,-0.1362,0.0189,
33.706652,-1.7021,0.7080,1.3052,-0.1533,-0.1362,0.0189,
33.746509,-1.7021,0.7080,1.3052,-0.3569,-0.1662,-0.0267,
33.754878,-1.7021,0.7080,1.3052,-0.3569,-0.1662,-0.0267,
33.782988,1.1985,0.9597,2.2121,-0.3569,-0.1662,-0.0267,
33.813868,1.1985,0.9597,2.2121,-0.2784,0.2885,0.0360,
33.823194,1.1985,0.9597,2.2121,-0.2784,0.2885,0.0360,
33.839554,0.7171,1.5358,0.6136,-0.2784,0.2885,0.0360,
33.878394,0.7171,1.5358,0.6136,-0.3125,0.0721,0.3140,
33.888144,0.7171,1.5358,0.6136,-0.3125,0.0721,0.3140,
33.903450,1.1447,0.5838,-1.3603,-0.3125,0.0721,0.3140,
33.944565,1.1447,0.5838,-1.3603,-0.2440,0.4012,0.3251,
33.953629,1.1447,0.5838,-1.3603,-0.2440,0.4012,0.3251,
33.970288,-0.3333,-2.8421,-2.0297,-0.2440,0.4012,0.3251,
34.009606,-0.3333,-2.8421,-2.0297,-0.1310,0.5939,0.5102,
34.018374,-0.3333,-2.8421,-2.0297,-0.1310,0.5939,0.5102,
34.035457,0.9648,-1.3489,-1.8427,-0.1310,0.5939,0.5102,
34.076215,0.9648,-1.3489,-1.8427,-0.1193,-0.9265,0.2879,
34.083695,0.9648,-1.3489,-1.8427,-0.1193,-0.9265,0.2879,
34.100871,-0.5700,2.0372,-1.4185,-0.1193,-0.9265,0.2879,
34.142327,-0.5700,2.0372,-1.4185,-0.6116,-0.5435,0.3166,
34.148196,-0.5700,2.0372,-1.4185,-0.6116,-0.5435,0.3166,
34.166214,-0.4951,-1.2763,-0.2691,-0.6116,-0.5435,0.3166,
34.205403,-0.4951,-1.2763,-0.2691,-0.5637,-0.7859,0.3650,
34.213323,-0.4951,-1.2763,-0.2691,-0.5637,-0.7859,0.3650,
34.230761,0.7949,-1.1894,0.2155,-0.5637,-0.7859,0.3650,
34.271840,0.7949,-1.1894,0.2155,-0.4476,-0.7811,0.1819,
34.279721,0.7949,-1.1894,0.2155,-0.4476,-0.7811,0.1819,
34.296139,0.1046,-0.6414,0.7938,-0.4476,-0.7811,0.1819,
34.338459,0.1046,-0.6414,0.7938,-0.4438,-0.7830,0.0342,
34.345829,0.1046,-0.6414,0.7938,-0.4438,-0.7830,0.0342,
34.362390,-0.5571,-1.7790,0.6579,-0.4438,-0.7830,0.0342,
34.404086,-0.5571,-1.7790,0.6579,-0.5568,-0.4867,0.1124,
34.410322,-0.5571,-1.7790,0.6579,-0.5568,-0.4867,0.1124,
34.427493,1.7988,-1.7203,0.2168,-0.5568,-0.4867,0.1124,
34.467738,1.7988,-1.7203,0.2168,-0.3024,-0.4134,0.2150,
34.476514,1.7988,-1.7203,0.2168,-0.3024,-0.4134,0.2150,
34.492551,4.1972,2.5864,-1.6368,-0.3024,-0.4134,0.2150,
34.532533,4.1972,2.5864,-1.6368,-0.2538,-0.4844,0.0524,
34.540627,4.1972,2.5864,-1.6368,-0.2538,-0.4844,0.0524,
34.557628,-2.3562,-0.1312,-0.4141,-0.2538,-0.4844,0.0524,
34.598921,-2.3562,-0.1312,-0.4141,-0.2193,0.2253,-0.1168,
34.607145,-2.3562,-0.1312,-0.4141,-0.2193,0.2253,-0.1168,
34.623967,-3.2115,-0.1672,0.1689,-0.2193,0.2253,-0.1168,
34.664052,-3.2115,-0.1672,0.1689,0.3279,-0.1739,-0.1555,
34.673125,-3.2115,-0.1672,0.1689,0.3279,-0.1739,-0.1555,
34.690174,0.0147,1.8971,-0.1938,0.3279,-0.1739,-0.1555,
34.730646,0.0147,1.8971,-0.1938,0.1520,-0.3998,-0.1035,
34.738449,0.0147,1.8971,-0.1938,0.1520,-0.3998,-0.1035,
34.755105,-0.5968,0.4955,1.1617,0.1520,-0.3998,-0.1035,
34.794444,-0.5968,0.4955,1.1617,0.0003,-0.0270,-0.2442,
34.802751,-0.5968,0.4955,1.1617,0.0003,-0.0270,-0.2442,
34.820184,0.0822,-0.0314,2.0688,0.0003,-0.0270,-0.2442,
34.860423,0.0822,-0.0314,2.0688,0.2529,0.5122,-0.0255,
34.868932,0.0822,-0.0314,2.0688,0.2529,0.5122,-0.0255,
34.889893,1.9939,-0.7725,1.9711,0.2529,0.5122,-0.0255,
34.924727,1.9939,-0.7725,1.9711,0.3143,0.6568,0.1959,
34.933562,1.9939,-0.7725,1.9711,0.3143,0.6568,0.1959,
34.950252,-0.0048,0.6541,0.2412,0.3143,0.6568,0.1959,
34.991255,-0.0048,0.6541,0.2412,0.6971,0.5780,-0.5640,
34.998800,-0.0048,0.6541,0.2412,0.6971,0.5780,-0.5640,
35.016762,-1.3340,3.9704,-3.1575,0.6971,0.5780,-0.5640,
35.057148,-1.3340,3.9704,-3.1575,-0.1834,0.6086,0.4522,
35.065504,-1.3340,3.9704,-3.1575,-0.1834,0.6086,0.4522,
35.082054,-0.2715,-1.5526,-2.8392,-0.1834,0.6086,0.4522,
35.121660,-0.2715,-1.5526,-2.8392,-0.4725,0.5221,0.3994,
35.130030,-0.2715,-1.5526,-2.8392,-0.4725,0.5221,0.3994,
35.146978,-0.0661,-2.8638,0.1732,-0.4725,0.5221,0.3994,
35.188148,-0.0661,-2.8638,0.1732,0.4100,-0.6460,-0.1640,
35.195510,-0.0661,-2.8638,0.1732,0.4100,-0.6460,-0.1640,
35.212407,-0.3849,0.1490,-0.1621,0.4100,-0.6460,-0.1640,
35.252273,-0.3849,0.1490,-0.1621,0.2879,-0.0223,-0.1147,
35.262195,-0.3849,0.1490,-0.1621,0.2879,-0.0223,-0.1147,
35.287315,-0.5095,-0.7436,-0.2943,0.2879,-0.0223,-0.1147,
35.319210,-0.5095,-0.7436,-0.2943,-0.2398,-0.2448,0.1330,
35.326354,-0.5095,-0.7436,-0.2943,-0.2398,-0.2448,0.1330,
35.343616,0.8611,-1.3821,0.6828,-0.2398,-0.2448,0.1330,
35.384807,0.8611,-1.3821,0.6828,-0.0536,-0.2790,0.0305,
35.393790,0.8611,-1.3821,0.6828,-0.0536,-0.2790,0.0305,
35.409446,0.8884,-0.4272,0.8625,-0.0536,-0.2790,0.0305,
35.449371,0.8884,-0.4272,0.8625,-0.1733,-0.1547,-0.0173,
35.457979,0.8884,-0.4272,0.8625,-0.1733,-0.1547,-0.0173,
35.474299,0.4110,-0.6897,0.4644,-0.1733,-0.1547,-0.0173,
35.515149,0.4110,-0.6897,0.4644,-0.2824,-0.1600,-0.0211,
35.523928,0.4110,-0.6897,0.4644,-0.2824,-0.1600,-0.0211,
35.540081,1.3280,-1.1142,-0.1143,-0.2824,-0.1600,-0.0211,
35.579956,1.3280,-1.1142,-0.1143,-0.2911,-0.2944,0.0238,
35.590218,1.3280,-1.1142,-0.1143,-0.2911,-0.2944,0.0238,
35.606377,3.5385,-0.1467,-0.6288,-0.2911,-0.2944,0.0238,
35.646120,3.5385,-0.1467,-0.6288,-0.1202,-0.4275,0.1162,
35.653581,3.5385,-0.1467,-0.6288,-0.1202,-0.4275,0.1162,
35.670966,2.1366,1.4734,-0.6217,-0.1202,-0.4275,0.1162,
35.711328,2.1366,1.4734,-0.6217,-0.1031,-0.1280,-0.1474,
35.721260,2.1366,1.4734,-0.6217,-0.1031,-0.1280,-0.1474,
35.735912,-2.7127,-0.8265,-0.1401,-0.1031,-0.1280,-0.1474,
35.776440,-2.7127,-0.8265,-0.1401,0.0276,-0.0725,-0.3332,
35.783707,-2.7127,-0.8265,-0.1401,0.0276,-0.0725,-0.3332,
35.801151,-4.2583,-1.3544,-0.6850,0.0276,-0.0725,-0.3332,
35.842288,-4.2583,-1.3544,-0.6850,-0.0452,0.0327,0.0586,
35.849775,-4.2583,-1.3544,-0.6850,-0.0452,0.0327,0.0586,
35.867563,0.2058,3.0533,-0.7775,-0.0452,0.0327,0.0586,
35.908049,0.2058,3.0533,-0.7775,-0.1504,0.1176,0.0985,
35.916181,0.2058,3.0533,-0.7775,-0.1504,0.1176,0.0985,
35.932107,0.7234,-0.3563,0.2236,-0.1504,0.1176,0.0985,
35.973462,0.7234,-0.3563,0.2236,0.3360,0.1072,-0.4340,
35.982202,0.7234,-0.3563,0.2236,0.3360,0.1072,-0.4340,
35.999081,-1.2379,-0.9231,0.6774,0.3360,0.1072,-0.4340,
36.039452,-1.2379,-0.9231,0.6774,0.5443,0.0102,-0.4782,
36.048962,-1.2379,-0.9231,0.6774,0.5443,0.0102,-0.4782,
36.063676,-0.7283,0.7412,0.8897,0.5443,0.0102,-0.4782,
36.104530,-0.7283,0.7412,0.8897,0.3054,0.2063,-0.1350,
36.113525,-0.7283,0.7412,0.8897,0.3054,0.2063,-0.1350,
36.128966,1.3149,-0.0833,1.4357,0.3054,0.2063,-0.1350,
36.170298,1.3149,-0.0833,1.4357,0.4455,0.2124,-0.0843,
36.178585,1.3149,-0.0833,1.4357,0.4455,0.2124,-0.0843,
36.196918,0.8668,-0.5581,1.6288,0.4455,0.2124,-0.0843,
36.234187,0.8668,-0.5581,1.6288,0.3259,0.9659,-0.2312,
36.242830,0.8668,-0.5581,1.6288,0.3259,0.9659,-0.2312,
36.259692,-0.2229,-0.0289,2.2577,0.3259,0.9659,-0.2312,
36.300129,-0.2229,-0.0289,2.2577,0.3193,0.8657,0.2408,
36.308266,-0.2229,-0.0289,2.2577,0.3193,0.8657,0.2408,
36.325065,1.3263,3.4803,-0.2336,0.3193,0.8657,0.2408,
36.365894,1.3263,3.4803,-0.2336,0.6002,0.1729,0.1440,
36.373761,1.3263,3.4803,-0.2336,0.6002,0.1729,0.1440,
36.390966,-0.2134,0.2434,-2.8653,0.6002,0.1729,0.1440,
36.432091,-0.2134,0.2434,-2.8653,0.2213,1.1196,0.0780,
36.439615,-0.2134,0.2434,-2.8653,0.2213,1.1196,0.0780,
36.455793,-0.1523,-3.2514,-1.2907,0.2213,1.1196,0.0780,
36.497527,-0.1523,-3.2514,-1.2907,0.6568,0.2317,-0.2395,
36.504939,-0.1523,-3.2514,-1.2907,0.6568,0.2317,-0.2395,
36.520945,0.0805,0.0216,0.0139,0.6568,0.2317,-0.2395,
36.564289,0.0805,0.0216,0.0139,0.0623,-0.6458,0.1104,
36.570830,0.0805,0.0216,0.0139,0.0623,-0.6458,0.1104,
36.587850,-1.6693,-0.3093,-0.0065,0.0623,-0.6458,0.1104,
36.628650,-1.6693,-0.3093,-0.0065,-0.3395,0.0310,0.0564,
36.635725,-1.6693,-0.3093,-0.0065,-0.3395,0.0310,0.0564,
36.652711,-0.4568,-1.8108,1.0643,-0.3395,0.0310,0.0564,
36.693997,-0.4568,-1.8108,1.0643,-0.3070,-0.2395,-0.0086,
36.700822,-0.4568,-1.8108,1.0643,-0.3070,-0.2395,-0.0086,
36.719668,1.2075,-1.0253,0.2320,-0.3070,-0.2395,-0.0086,
36.759621,1.2075,-1.0253,0.2320,-0.5072,-0.3560,0.0721,
36.768008,1.2075,-1.0253,0.2320,-0.5072,-0.3560,0.0721,
36.784377,2.0224,-1.5013,0.3784,-0.5072,-0.3560,0.0721,
36.825172,2.0224,-1.5013,0.3784,0.0072,0.1171,-0.0250,
36.832901,2.0224,-1.5013,0.3784,0.0072,0.1171,-0.0250,
36.850330,4.9777,0.9388,-0.4628,0.0072,0.1171,-0.0250,
36.890782,4.9777,0.9388,-0.4628,0.0828,0.0382,-0.1034,
36.898994,4.9777,0.9388,-0.4628,0.0828,0.0382,-0.1034,
36.915312,1.6389,1.7290,-1.3599,0.0828,0.0382,-0.1034,
36.954773,1.6389,1.7290,-1.3599,-0.3592,0.0742,-0.1909,
36.963441,1.6389,1.7290,-1.3599,-0.3592,0.0742,-0.1909,
36.980566,-3.6027,-1.7849,-0.2276,-0.3592,0.0742,-0.1909,
37.020703,-3.6027,-1.7849,-0.2276,0.1756,0.2048,-0.3155,
37.028928,-3.6027,-1.7849,-0.2276,0.1756,0.2048,-0.3155,
37.045512,-4.2829,-0.9965,-1.1471,0.1756,0.2048,-0.3155,
37.085347,-4.2829,-0.9965,-1.1471,0.5701,0.0941,-0.1486,
37.094378,-4.2829,-0.9965,-1.1471,0.5701,0.0941,-0.1486,
37.110804,1.0174,3.1701,-0.8176,0.5701,0.0941,-0.1486,
37.151334,1.0174,3.1701,-0.8176,-0.0542,-0.0687,0.0351,
37.159172,1.0174,3.1701,-0.8176,-0.0542,-0.0687,0.0351,
37.176175,1.2253,-1.3577,1.6726,-0.0542,-0.0687,0.0351,
37.217283,1.2253,-1.3577,1.6726,0.4974,0.3525,-0.4962,
37.226091,1.2253,-1.3577,1.6726,0.4974,0.3525,-0.4962,
37.242628,-0.9692,-1.7045,1.0693,0.4974,0.3525,-0.4962,
37.285402,-0.9692,-1.7045,1.0693,1.0466,0.5815,-0.6141,
37.292508,-0.9692,-1.7045,1.0693,1.0466,0.5815,-0.6141,
37.309533,-0.5149,0.0120,0.3666,1.0466,0.5815,-0.6141,
37.348294,-0.5149,0.0120,0.3666,0.7798,0.7576,-0.2054,
37.356815,-0.5149,0.0120,0.3666,0.7798,0.7576,-0.2054,
37.373031,1.7048,0.1945,1.7262,0.7798,0.7576,-0.2054,
37.413395,1.7048,0.1945,1.7262,1.0469,0.9148,-0.2298,
37.422145,1.7048,0.1945,1.7262,1.0469,0.9148,-0.2298,
37.438842,-0.3593,-0.7851,0.9122,1.0469,0.9148,-0.2298,
37.482807,-0.3593,-0.7851,0.9122,1.0183,1.0365,0.2375,
37.488148,-0.3593,-0.7851,0.9122,1.0183,1.0365,0.2375,
37.506614,-1.1983,1.1358,-0.2212,1.0183,1.0365,0.2375,
37.544574,-1.1983,1.1358,-0.2212,1.4161,0.3387,-0.0586,
37.554767,-1.1983,1.1358,-0.2212,1.4161,0.3387,-0.0586,
37.569361,-0.5835,-0.5074,-2.1932,1.4161,0.3387,-0.0586,
37.611456,-0.5835,-0.5074,-2.1932,0.6318,1.6987,0.6393,
37.619822,-0.5835,-0.5074,-2.1932,0.6318,1.6987,0.6393,
37.636690,4.5415,-2.3486,-0.5727,0.6318,1.6987,0.6393,
37.675750,4.5415,-2.3486,-0.5727,0.0203,0.6342,0.0678,
37.684244,4.5415,-2.3486,-0.5727,0.0203,0.6342,0.0678,
37.700947,3.3629,0.3331,1.8829,0.0203,0.6342,0.0678,
37.742271,3.3629,0.3331,1.8829,0.7072,1.0504,-0.5690,
37.749451,3.3629,0.3331,1.8829,0.7072,1.0504,-0.5690,
37.767228,-1.9005,-1.7956,-1.0372,0.7072,1.0504,-0.5690,
37.806645,-1.9005,-1.7956,-1.0372,1.2718,0.3091,-0.5779,
37.814371,-1.9005,-1.7956,-1.0372,1.2718,0.3091,-0.5779,
37.830933,-3.8774,0.2631,-1.0631,1.2718,0.3091,-0.5779,
37.872521,-3.8774,0.2631,-1.0631,0.4270,0.0675,-0.4449,
37.881487,-3.8774,0.2631,-1.0631,0.4270,0.0675,-0.4449,
37.897052,-0.5849,5.2750,2.4751,0.4270,0.0675,-0.4449,
37.937095,-0.5849,5.2750,2.4751,-0.4780,0.1738,0.3670,
37.945454,-0.5849,5.2750,2.4751,-0.4780,0.1738,0.3670,
37.962821,1.2032,0.7550,1.8969,-0.4780,0.1738,0.3670,
38.002931,1.2032,0.7550,1.8969,0.0192,1.3844,-0.4989,
38.011936,1.2032,0.7550,1.8969,0.0192,1.3844,-0.4989,
38.028975,0.7218,0.1620,-2.4235,0.0192,1.3844,-0.4989,
38.069609,0.7218,0.1620,-2.4235,0.6245,2.3127,-0.2326,
38.077801,0.7218,0.1620,-2.4235,0.6245,2.3127,-0.2326,
38.094080,7.3150,-3.4595,-1.1690,0.6245,2.3127,-0.2326,
38.133407,7.3150,-3.4595,-1.1690,0.6145,0.1318,-0.7558,
38.142428,7.3150,-3.4595,-1.1690,0.6145,0.1318,-0.7558,
38.159234,1.0731,-2.6966,-1.1433,0.6145,0.1318,-0.7558,
38.199561,1.0731,-2.6966,-1.1433,-0.4823,-0.6860,-0.2978,
38.209168,1.0731,-2.6966,-1.1433,-0.4823,-0.6860,-0.2978,
38.224439,-2.2113,-1.5955,-2.0589,-0.4823,-0.6860,-0.2978,
38.264266,-2.2113,-1.5955,-2.0589,-0.9090,-0.4366,0.1121,
38.273108,-2.2113,-1.5955,-2.0589,-0.9090,-0.4366,0.1121,
38.290440,0.3012,-3.8425,1.9544,-0.9090,-0.4366,0.1121,
38.330681,0.3012,-3.8425,1.9544,-0.0400,0.7350,-0.1148,
38.338992,0.3012,-3.8425,1.9544,-0.0400,0.7350,-0.1148,
38.355158,-1.7910,-3.7360,1.1718,-0.0400,0.7350,-0.1148,
38.397359,-1.7910,-3.7360,1.1718,1.2388,0.4384,-0.2711,
38.406545,-1.7910,-3.7360,1.1718,1.2388,0.4384,-0.2711,
38.421195,-2.1778,-0.3851,-1.5089,1.2388,0.4384,-0.2711,
38.461885,-2.1778,-0.3851,-1.5089,1.4832,1.1929,0.0586,
38.472966,-2.1778,-0.3851,-1.5089,1.4832,1.1929,0.0586,
38.487909,5.3106,4.1805,-1.0419,1.4832,1.1929,0.0586,
38.528105,5.3106,4.1805,-1.0419,0.8422,0.8369,-0.4569,
38.535911,5.3106,4.1805,-1.0419,0.8422,0.8369,-0.4569,
38.552497,1.1570,-0.6055,0.5693,0.8422,0.8369,-0.4569,
38.591962,1.1570,-0.6055,0.5693,0.8286,0.2466,-0.7014,
38.600729,1.1570,-0.6055,0.5693,0.8286,0.2466,-0.7014,
38.617354,-2.5963,-0.2811,-0.0473,0.8286,0.2466,-0.7014,
38.657358,-2.5963,-0.2811,-0.0473,0.5820,0.5747,-0.2619,
38.665473,-2.5963,-0.2811,-0.0473,0.5820,0.5747,-0.2619,
38.682829,-2.5611,-0.7803,1.7303,0.5820,0.5747,-0.2619,
38.722816,-2.5611,-0.7803,1.7303,0.6471,0.6106,0.1704,
38.734071,-2.5611,-0.7803,1.7303,0.6471,0.6106,0.1704,
38.749364,-0.2690,-0.3842,2.3130,0.6471,0.6106,0.1704,
38.789190,-0.2690,-0.3842,2.3130,0.6022,-0.1009,0.6565,
38.797189,-0.2690,-0.3842,2.3130,0.6022,-0.1009,0.6565,
38.813491,-1.1183,1.6429,-0.1708,0.6022,-0.1009,0.6565,
38.854170,-1.1183,1.6429,-0.1708,0.3467,-0.9274,0.4348,
38.862867,-1.1183,1.6429,-0.1708,0.3467,-0.9274,0.4348,
38.879487,-3.2784,-0.8336,-1.8319,0.3467,-0.9274,0.4348,
38.920382,-3.2784,-0.8336,-1.8319,0.0643,-0.3221,1.2081,
38.928374,-3.2784,-0.8336,-1.8319,0.0643,-0.3221,1.2081,
38.945175,3.5524,-2.4909,-4.7982,0.0643,-0.3221,1.2081,
38.985769,3.5524,-2.4909,-4.7982,-1.0521,1.7579,1.2729,
38.993615,3.5524,-2.4909,-4.7982,-1.0521,1.7579,1.2729,
39.010033,7.4986,-1.3163,3.0044,-1.0521,1.7579,1.2729,
39.049901,7.4986,-1.3163,3.0044,-0.8147,0.8638,0.5730,
39.058841,7.4986,-1.3163,3.0044,-0.8147,0.8638,0.5730,
39.075283,4.3374,-2.2199,0.6100,-0.8147,0.8638,0.5730,
39.116590,4.3374,-2.2199,0.6100,0.1524,1.9787,-0.0822,
39.124776,4.3374,-2.2199,0.6100,0.1524,1.9787,-0.0822,
39.140332,-1.9023,-4.3446,-0.3918,0.1524,1.9787,-0.0822,
39.182355,-1.9023,-4.3446,-0.3918,2.2407,-0.2111,-1.3271,
39.189784,-1.9023,-4.3446,-0.3918,2.2407,-0.2111,-1.3271,
39.206414,-4.6574,-1.1633,-3.1176,2.2407,-0.2111,-1.3271,
39.247321,-4.6574,-1.1633,-3.1176,0.6949,-0.1379,-1.8268,
39.256003,-4.6574,-1.1633,-3.1176,0.6949,-0.1379,-1.8268,
39.271402,-4.6527,9.6708,-0.0354,0.6949,-0.1379,-1.8268,
39.314213,-4.6527,9.6708,-0.0354,-1.7814,-0.7672,0.9213,
39.322095,-4.6527,9.6708,-0.0354,-1.7814,-0.7672,0.9213,
39.337666,2.2033,1.2746,2.8130,-1.7814,-0.7672,0.9213,
39.378155,2.2033,1.2746,2.8130,-0.3215,0.4059,-0.2688,
39.388644,2.2033,1.2746,2.8130,-0.3215,0.4059,-0.2688,
39.404050,-0.9057,-1.0775,-0.0487,-0.3215,0.4059,-0.2688,
39.444589,-0.9057,-1.0775,-0.0487,0.2011,-0.3433,-0.3343,
39.451883,-0.9057,-1.0775,-0.0487,0.2011,-0.3433,-0.3343,
39.470063,1.4135,0.2474,-2.2727,0.2011,-0.3433,-0.3343,
39.509273,1.4135,0.2474,-2.2727,0.1611,-0.5626,-0.1897,
39.518767,1.4135,0.2474,-2.2727,0.1611,-0.5626,-0.1897,
39.534465,3.1031,-0.9413,-2.7743,0.1611,-0.5626,-0.1897,
39.574784,3.1031,-0.9413,-2.7743,-1.2307,-1.0909,-0.0567,
39.582786,3.1031,-0.9413,-2.7743,-1.2307,-1.0909,-0.0567,
39.600533,3.2009,-3.8245,0.4300,-1.2307,-1.0909,-0.0567,
39.639246,3.2009,-3.8245,0.4300,-0.9526,-1.3082,-0.0334,
39.648902,3.2009,-3.8245,0.4300,-0.9526,-1.3082,-0.0334,
39.666062,0.6103,-4.4559,0.8672,-0.9526,-1.3082,-0.0334,
39.705560,0.6103,-4.4559,0.8672,0.6139,0.7613,-0.2075,
39.714286,0.6103,-4.4559,0.8672,0.6139,0.7613,-0.2075,
39.731033,-0.2890,-4.6247,0.5669,0.6139,0.7613,-0.2075,
39.772804,-0.2890,-4.6247,0.5669,1.4956,-0.1278,-0.2051,
39.780378,-0.2890,-4.6247,0.5669,1.4956,-0.1278,-0.2051,
39.797503,-2.2254,0.5048,-0.5540,1.4956,-0.1278,-0.2051,
39.836476,-2.2254,0.5048,-0.5540,1.8042,0.6915,-0.2320,
39.844387,-2.2254,0.5048,-0.5540,1.8042,0.6915,-0.2320,
39.861612,0.3011,4.6632,-1.4190,1.8042,0.6915,-0.2320,
39.900851,0.3011,4.6632,-1.4190,0.7343,0.6533,-0.2585,
39.910113,0.3011,4.6632,-1.4190,0.7343,0.6533,-0.2585,
39.926243,0.6486,0.1907,0.5806,0.7343,0.6533,-0.2585,
39.967516,0.6486,0.1907,0.5806,0.7001,0.6718,-0.2758,
39.976109,0.6486,0.1907,0.5806,0.7001,0.6718,-0.2758,
39.992682,-1.0953,-1.1355,1.2768,0.7001,0.6718,-0.2758,
40.034080,-1.0953,-1.1355,1.2768,1.1559,0.1576,-0.4212,
40.041972,-1.0953,-1.1355,1.2768,1.1559,0.1576,-0.4212,
40.058224,-1.6933,1.8300,1.4054,1.1559,0.1576,-0.4212,
40.099261,-1.6933,1.8300,1.4054,0.1460,0.6915,0.2279,
40.107164,-1.6933,1.8300,1.4054,0.1460,0.6915,0.2279,
40.124414,-0.1481,-0.2217,0.8775,0.1460,0.6915,0.2279,
40.164459,-0.1481,-0.2217,0.8775,0.5023,0.1969,0.0933,
40.173840,-0.1481,-0.2217,0.8775,0.5023,0.1969,0.0933,
40.189252,-0.8482,3.1516,-2.1981,0.5023,0.1969,0.0933,
40.229432,-0.8482,3.1516,-2.1981,0.1805,-0.6918,0.2538,
40.237580,-0.8482,3.1516,-2.1981,0.1805,-0.6918,0.2538,
40.255019,-0.9946,-2.4976,-3.6910,0.1805,-0.6918,0.2538,
40.294127,-0.9946,-2.4976,-3.6910,-0.4462,0.3418,0.7656,
40.304174,-0.9946,-2.4976,-3.6910,-0.4462,0.3418,0.7656,
40.320693,3.1799,-2.0709,-1.2346,-0.4462,0.3418,0.7656,
40.359658,3.1799,-2.0709,-1.2346,-0.3932,-0.8894,0.3065,
40.368835,3.1799,-2.0709,-1.2346,-0.3932,-0.8894,0.3065,
40.386154,2.6141,-0.8269,1.0269,-0.3932,-0.8894,0.3065,
40.424959,2.6141,-0.8269,1.0269,-0.0315,0.3975,-0.2347,
40.433978,2.6141,-0.8269,1.0269,-0.0315,0.3975,-0.2347,
40.451018,1.5323,-1.8766,0.8290,-0.0315,0.3975,-0.2347,
40.492421,1.5323,-1.8766,0.8290,-0.0270,0.8887,-0.1961,
40.499320,1.5323,-1.8766,0.8290,-0.0270,0.8887,-0.1961,
40.517772,1.6038,-3.0854,0.9332,-0.0270,0.8887,-0.1961,
40.556805,1.6038,-3.0854,0.9332,0.8708,0.6443,-0.2972,
40.566229,1.6038,-3.0854,0.9332,0.8708,0.6443,-0.2972,
40.582293,-0.4559,-1.2271,-0.8751,0.8708,0.6443,-0.2972,
40.622628,-0.4559,-1.2271,-0.8751,0.9936,0.0881,-0.4242,
40.631287,-0.4559,-1.2271,-0.8751,0.9936,0.0881,-0.4242,
40.646953,-3.0079,3.2108,-2.3582,0.9936,0.0881,-0.4242,
40.688074,-3.0079,3.2108,-2.3582,-0.0577,0.6471,-0.3453,
40.697348,-3.0079,3.2108,-2.3582,-0.0577,0.6471,-0.3453,
40.712375,-2.8647,3.0080,0.8907,-0.0577,0.6471,-0.3453,
40.752575,-2.8647,3.0080,0.8907,-0.6176,0.2303,0.2647,
40.762061,-2.8647,3.0080,0.8907,-0.6176,0.2303,0.2647,
40.778726,0.9343,-0.6674,1.6858,-0.6176,0.2303,0.2647,
40.817541,0.9343,-0.6674,1.6858,0.5435,0.0724,-0.5388,
40.827799,0.9343,-0.6674,1.6858,0.5435,0.0724,-0.5388,
40.843001,-3.2822,-2.1867,-0.6916,0.5435,0.0724,-0.5388,
40.884798,-3.2822,-2.1867,-0.6916,0.3488,0.4879,-0.5733,
40.892976,-3.2822,-2.1867,-0.6916,0.3488,0.4879,-0.5733,
40.908500,-2.9885,-2.0362,-0.9021,0.3488,0.4879,-0.5733,
40.950164,-2.9885,-2.0362,-0.9021,0.4308,0.0379,0.1446,
40.958545,-2.9885,-2.0362,-0.9021,0.4308,0.0379,0.1446,
40.973443,8.4821,2.0321,-0.2510,0.4308,0.0379,0.1446,
41.014122,8.4821,2.0321,-0.2510,-1.2614,0.2152,-0.0119,
41.023074,8.4821,2.0321,-0.2510,-1.2614,0.2152,-0.0119,
41.038967,5.5062,-2.5933,2.4016,-1.2614,0.2152,-0.0119,
41.079868,5.5062,-2.5933,2.4016,0.2010,0.4013,-0.7385,
41.088156,5.5062,-2.5933,2.4016,0.2010,0.4013,-0.7385,
41.105387,2.2715,-3.8288,-1.0328,0.2010,0.4013,-0.7385,
41.145461,2.2715,-3.8288,-1.0328,0.0698,1.5956,-0.4099,
41.154619,2.2715,-3.8288,-1.0328,0.0698,1.5956,-0.4099,
41.170304,-0.8075,-0.4665,-2.9167,0.0698,1.5956,-0.4099,
41.211326,-0.8075,-0.4665,-2.9167,-1.0134,-0.7153,-0.2569,
41.219423,-0.8075,-0.4665,-2.9167,-1.0134,-0.7153,-0.2569,
41.235824,-4.3803,3.6998,0.0480,-1.0134,-0.7153,-0.2569,
41.277059,-4.3803,3.6998,0.0480,1.1611,0.7011,-0.2564,
41.286164,-4.3803,3.6998,0.0480,1.1611,0.7011,-0.2564,
41.303694,-1.6570,2.5619,1.8502,1.1611,0.7011,-0.2564,
41.342346,-1.6570,2.5619,1.8502,0.3975,0.1411,-0.2219,
41.350501,-1.6570,2.5619,1.8502,0.3975,0.1411,-0.2219,
41.368402,-1.3124,4.8030,-0.2482,0.3975,0.1411,-0.2219,
41.407444,-1.3124,4.8030,-0.2482,-0.5424,-0.2899,0.4641,
41.416412,-1.3124,4.8030,-0.2482,-0.5424,-0.2899,0.4641,
41.432836,-1.2749,0.4937,1.4758,-0.5424,-0.2899,0.4641,
41.473120,-1.2749,0.4937,1.4758,-0.9368,-0.2404,0.8940,
41.482005,-1.2749,0.4937,1.4758,-0.9368,-0.2404,0.8940,
41.497933,-0.1951,-0.3064,0.2045,-0.9368,-0.2404,0.8940,
41.538319,-0.1951,-0.3064,0.2045,-0.3178,-0.1698,0.5084,
41.546967,-0.1951,-0.3064,0.2045,-0.3178,-0.1698,0.5084,
41.563725,-0.9676,-2.3222,-1.9321,-0.3178,-0.1698,0.5084,
41.604161,-0.9676,-2.3222,-1.9321,0.1319,-0.7576,0.1923,
41.613371,-0.9676,-2.3222,-1.9321,0.1319,-0.7576,0.1923,
41.630111,-1.0440,-0.7791,-2.6062,0.1319,-0.7576,0.1923,
41.670747,-1.0440,-0.7791,-2.6062,-0.4924,-0.6428,0.2051,
41.678874,-1.0440,-0.7791,-2.6062,-0.4924,-0.6428,0.2051,
41.696268,3.1875,-0.5345,-1.3757,-0.4924,-0.6428,0.2051,
41.734546,3.1875,-0.5345,-1.3757,-0.8011,-0.0249,0.3147,
41.743937,3.1875,-0.5345,-1.3757,-0.8011,-0.0249,0.3147,
41.760366,4.5594,-2.8372,1.3807,-0.8011,-0.0249,0.3147,
41.802191,4.5594,-2.8372,1.3807,0.0515,-0.2324,-0.1414,
41.810572,4.5594,-2.8372,1.3807,0.0515,-0.2324,-0.1414,
41.827012,-0.9188,-3.2435,0.8870,0.0515,-0.2324,-0.1414,
41.865609,-0.9188,-3.2435,0.8870,1.1632,0.3053,-0.2433,
41.874370,-0.9188,-3.2435,0.8870,1.1632,0.3053,-0.2433,
41.891657,-3.0592,-2.0657,-0.7411,1.1632,0.3053,-0.2433,
41.931645,-3.0592,-2.0657,-0.7411,1.0690,0.3396,0.3709,
41.940008,-3.0592,-2.0657,-0.7411,1.0690,0.3396,0.3709,
41.956720,0.0943,5.7301,-2.2245,1.0690,0.3396,0.3709,
41.998200,0.0943,5.7301,-2.2245,0.0322,-0.0263,0.1735,
42.006058,0.0943,5.7301,-2.2245,0.0322,-0.0263,0.1735,
42.020867,-0.3284,1.3923,2.1229,0.0322,-0.0263,0.1735,
42.062457,-0.3284,1.3923,2.1229,0.3969,0.6130,-0.0189,
42.071598,-0.3284,1.3923,2.1229,0.3969,0.6130,-0.0189,
42.087386,-0.4371,-0.0844,1.0322,0.3969,0.6130,-0.0189,
42.127643,-0.4371,-0.0844,1.0322,1.0936,0.4827,-0.4785,
42.136334,-0.4371,-0.0844,1.0322,1.0936,0.4827,-0.4785,
42.153128,-1.7688,1.7791,-0.0592,1.0936,0.4827,-0.4785,
42.193336,-1.7688,1.7791,-0.0592,-0.2048,0.2256,-0.0670,
42.205081,-1.7688,1.7791,-0.0592,-0.2048,0.2256,-0.0670,
42.218556,-1.5802,-0.3024,2.8861,-0.2048,0.2256,-0.0670,
42.258674,-1.5802,-0.3024,2.8861,0.2607,0.2688,-0.0852,
42.266858,-1.5802,-0.3024,2.8861,0.2607,0.2688,-0.0852,
42.283861,0.2954,1.9764,-0.0363,0.2607,0.2688,-0.0852,
42.324927,0.2954,1.9764,-0.0363,0.6672,0.0806,-0.4210,
42.334364,0.2954,1.9764,-0.0363,0.6672,0.0806,-0.4210,
42.348985,1.3065,-1.2499,-4.0721,0.6672,0.0806,-0.4210,
42.390232,1.3065,-1.2499,-4.0721,-0.6052,0.9221,0.4710,
42.398257,1.3065,-1.2499,-4.0721,-0.6052,0.9221,0.4710,
42.414875,2.8346,-3.9348,-1.4300,-0.6052,0.9221,0.4710,
42.455616,2.8346,-3.9348,-1.4300,-0.2268,-0.6249,0.1843,
42.464050,2.8346,-3.9348,-1.4300,-0.2268,-0.6249,0.1843,
42.480674,1.9559,-0.7736,0.4207,-0.2268,-0.6249,0.1843,
42.520585,1.9559,-0.7736,0.4207,0.7643,0.0189,-0.6917,
42.530330,1.9559,-0.7736,0.4207,0.7643,0.0189,-0.6917,
42.545431,1.1974,-0.3097,0.8256,0.7643,0.0189,-0.6917,
42.587892,1.1974,-0.3097,0.8256,0.1403,0.6211,-0.3589,
42.597418,1.1974,-0.3097,0.8256,0.1403,0.6211,-0.3589,
42.611518,-0.8303,-3.2572,0.0933,0.1403,0.6211,-0.3589,
42.651877,-0.8303,-3.2572,0.0933,0.7242,0.9261,-0.1568,
42.659844,-0.8303,-3.2572,0.0933,0.7242,0.9261,-0.1568,
42.677541,-1.4171,-2.4855,-0.9473,0.7242,0.9261,-0.1568,
42.716713,-1.4171,-2.4855,-0.9473,1.5030,-0.1846,-0.5127,
42.726265,-1.4171,-2.4855,-0.9473,1.5030,-0.1846,-0.5127,
42.743509,-0.7724,7.6680,-2.2528,1.5030,-0.1846,-0.5127,
42.782356,-0.7724,7.6680,-2.2528,0.3763,0.3884,-0.0195,
42.790719,-0.7724,7.6680,-2.2528,0.3763,0.3884,-0.0195,
42.807540,-0.5223,2.3206,0.8448,0.3763,0.3884,-0.0195,
42.848712,-0.5223,2.3206,0.8448,-0.6745,0.4847,0.1312,
42.856377,-0.5223,2.3206,0.8448,-0.6745,0.4847,0.1312,
42.874079,-2.2310,-2.1061,0.3925,-0.6745,0.4847,0.1312,
42.914835,-2.2310,-2.1061,0.3925,-0.1067,0.3783,-0.0026,
42.922578,-2.2310,-2.1061,0.3925,-0.1067,0.3783,-0.0026,
42.939984,-2.1162,0.5953,-0.3376,-0.1067,0.3783,-0.0026,
42.980832,-2.1162,0.5953,-0.3376,-0.2947,-0.2459,0.1040,
42.989599,-2.1162,0.5953,-0.3376,-0.2947,-0.2459,0.1040,
43.004086,1.1139,1.8606,-2.1158,-0.2947,-0.2459,0.1040,
43.045936,1.1139,1.8606,-2.1158,-0.5553,1.1000,0.4775,
43.054631,1.1139,1.8606,-2.1158,-0.5553,1.1000,0.4775,
43.075421,4.0876,-3.1877,-1.2183,-0.5553,1.1000,0.4775,
43.110292,4.0876,-3.1877,-1.2183,0.1497,-0.2822,-0.1445,
43.119612,4.0876,-3.1877,-1.2183,0.1497,-0.2822,-0.1445,
43.136668,1.3968,-2.9078,0.3900,0.1497,-0.2822,-0.1445,
43.175211,1.3968,-2.9078,0.3900,0.5143,-0.5854,-0.6500,
43.185450,1.3968,-2.9078,0.3900,0.5143,-0.5854,-0.6500,
43.200282,-2.8270,-1.1888,-2.0443,0.5143,-0.5854,-0.6500,
43.242113,-2.8270,-1.1888,-2.0443,-0.7198,0.1982,0.3829,
43.249343,-2.8270,-1.1888,-2.0443,-0.7198,0.1982,0.3829,
43.266837,2.6203,-3.2094,-0.4184,-0.7198,0.1982,0.3829,
43.306117,2.6203,-3.2094,-0.4184,-0.0944,0.0031,0.0205,
43.316180,2.6203,-3.2094,-0.4184,-0.0944,0.0031,0.0205,
43.331518,2.3178,-2.1605,1.2737,-0.0944,0.0031,0.0205,
43.373278,2.3178,-2.1605,1.2737,0.8511,-0.2262,-0.2104,
43.381229,2.3178,-2.1605,1.2737,0.8511,-0.2262,-0.2104,
43.397818,-0.2909,2.9464,-1.6392,0.8511,-0.2262,-0.2104,
43.437577,-0.2909,2.9464,-1.6392,0.2036,0.5809,0.0206,
43.446451,-0.2909,2.9464,-1.6392,0.2036,0.5809,0.0206,
43.462345,-0.8481,-1.0478,-0.2991,0.2036,0.5809,0.0206,
43.504036,-0.8481,-1.0478,-0.2991,0.6758,0.5883,-0.2633,
43.511787,-0.8481,-1.0478,-0.2991,0.6758,0.5883,-0.2633,
43.528278,-0.4029,1.4888,1.0292,0.6758,0.5883,-0.2633,
43.568535,-0.4029,1.4888,1.0292,1.0496,0.6759,-0.4268,
43.577079,-0.4029,1.4888,1.0292,1.0496,0.6759,-0.4268,
43.593923,0.2700,1.3811,0.9013,1.0496,0.6759,-0.4268,
43.634231,0.2700,1.3811,0.9013,1.0800,0.7243,-0.2899,
43.643221,0.2700,1.3811,0.9013,1.0800,0.7243,-0.2899,
43.658912,-1.6752,1.0778,0.4494,1.0800,0.7243,-0.2899,
43.700019,-1.6752,1.0778,0.4494,0.3395,-0.1162,-0.1339,
43.708478,-1.6752,1.0778,0.4494,0.3395,-0.1162,-0.1339,
43.725061,-3.2828,1.1339,1.1675,0.3395,-0.1162,-0.1339,
43.764314,-3.2828,1.1339,1.1675,-0.0412,-0.2288,0.3691,
43.773817,-3.2828,1.1339,1.1675,-0.0412,-0.2288,0.3691,
43.790178,-2.9173,0.1609,1.2336,-0.0412,-0.2288,0.3691,
43.830339,-2.9173,0.1609,1.2336,0.4366,-0.8716,0.4681,
43.838947,-2.9173,0.1609,1.2336,0.4366,-0.8716,0.4681,
43.854983,-1.9298,-3.1085,-0.2488,0.4366,-0.8716,0.4681,
43.896010,-1.9298,-3.1085,-0.2488,0.6246,-0.3810,0.4640,
43.904376,-1.9298,-3.1085,-0.2488,0.6246,-0.3810,0.4640,
43.920374,4.8324,-2.4063,-2.8346,0.6246,-0.3810,0.4640,
43.960804,4.8324,-2.4063,-2.8346,-1.5417,0.8114,1.4128,
43.970414,4.8324,-2.4063,-2.8346,-1.5417,0.8114,1.4128,
43.987859,6.8300,-2.3862,1.9800,-1.5417,0.8114,1.4128,
44.029908,6.8300,-2.3862,1.9800,0.3479,0.9727,-0.3639,
44.038553,6.8300,-2.3862,1.9800,0.3479,0.9727,-0.3639,
44.054543,-0.5388,-0.9909,1.7654,0.3479,0.9727,-0.3639,
44.092658,-0.5388,-0.9909,1.7654,2.2356,-0.5156,-1.8390,
44.101056,-0.5388,-0.9909,1.7654,2.2356,-0.5156,-1.8390,
44.116932,-2.9117,5.4746,-1.7118,2.2356,-0.5156,-1.8390,
44.157495,-2.9117,5.4746,-1.7118,0.4965,0.6510,-0.0936,
44.166266,-2.9117,5.4746,-1.7118,0.4965,0.6510,-0.0936,
44.183766,-1.6451,4.0468,0.7173,0.4965,0.6510,-0.0936,
44.222879,-1.6451,4.0468,0.7173,0.2257,1.0809,2.0443,
44.231844,-1.6451,4.0468,0.7173,0.2257,1.0809,2.0443,
44.248768,2.3667,-1.5022,1.5149,0.2257,1.0809,2.0443,
44.289099,2.3667,-1.5022,1.5149,-0.4224,1.9887,-0.6840,
44.298602,2.3667,-1.5022,1.5149,-0.4224,1.9887,-0.6840,
44.313265,-0.6926,-0.1685,0.3531,-0.4224,1.9887,-0.6840,
44.353805,-0.6926,-0.1685,0.3531,0.6017,0.5709,-0.3166,
44.362851,-0.6926,-0.1685,0.3531,0.6017,0.5709,-0.3166,
44.380179,2.8724,-0.5878,-5.5796,0.6017,0.5709,-0.3166,
44.420653,2.8724,-0.5878,-5.5796,-0.2807,1.2573,-0.6183,
44.429312,2.8724,-0.5878,-5.5796,-0.2807,1.2573,-0.6183,
44.445282,3.7011,-2.7580,-1.4505,-0.2807,1.2573,-0.6183,
44.485997,3.7011,-2.7580,-1.4505,-0.0605,0.6649,-0.8063,
44.495662,3.7011,-2.7580,-1.4505,-0.0605,0.6649,-0.8063,
44.511248,1.7675,-3.0479,-0.4401,-0.0605,0.6649,-0.8063,
44.552235,1.7675,-3.0479,-0.4401,0.9737,0.5499,-0.5672,
44.561204,1.7675,-3.0479,-0.4401,0.9737,0.5499,-0.5672,
44.576276,-0.3501,-1.7858,-0.7133,0.9737,0.5499,-0.5672,
44.616579,-0.3501,-1.7858,-0.7133,0.4139,-0.0415,-0.2196,
44.625443,-0.3501,-1.7858,-0.7133,0.4139,-0.0415,-0.2196,
44.641379,-1.1336,-2.3257,-1.1002,0.4139,-0.0415,-0.2196,
44.681228,-1.1336,-2.3257,-1.1002,-0.0622,0.0273,0.0929,
44.689855,-1.1336,-2.3257,-1.1002,-0.0622,0.0273,0.0929,
44.706208,-0.8643,-2.2496,0.2606,-0.0622,0.0273,0.0929,
44.747567,-0.8643,-2.2496,0.2606,0.4166,0.1465,0.1260,
44.757057,-0.8643,-2.2496,0.2606,0.4166,0.1465,0.1260,
44.772085,-1.0642,0.6990,-0.9246,0.4166,0.1465,0.1260,
44.814047,-1.0642,0.6990,-0.9246,1.2220,0.2996,-0.2428,
44.820732,-1.0642,0.6990,-0.9246,1.2220,0.2996,-0.2428,
44.837425,0.8585,2.6443,-0.6253,1.2220,0.2996,-0.2428,
44.878322,0.8585,2.6443,-0.6253,1.2906,0.5005,-0.5107,
44.886919,0.8585,2.6443,-0.6253,1.2906,0.5005,-0.5107,
44.903795,0.2466,0.2549,0.6637,1.2906,0.5005,-0.5107,
44.943809,0.2466,0.2549,0.6637,1.1064,0.5701,-0.4302,
44.953575,0.2466,0.2549,0.6637,1.1064,0.5701,-0.4302,
44.971192,-1.2776,0.2076,0.5908,1.1064,0.5701,-0.4302,
45.008738,-1.2776,0.2076,0.5908,1.0757,0.4328,-0.5515,
45.018806,-1.2776,0.2076,0.5908,1.0757,0.4328,-0.5515,
45.035241,-2.5671,0.3537,1.7021,1.0757,0.4328,-0.5515,
45.074237,-2.5671,0.3537,1.7021,0.4612,0.4691,0.1491,
45.083515,-2.5671,0.3537,1.7021,0.4612,0.4691,0.1491,
45.100640,-1.3477,1.5880,0.5513,0.4612,0.4691,0.1491,
45.139689,-1.3477,1.5880,0.5513,0.2155,-0.1388,0.3769,
45.148332,-1.3477,1.5880,0.5513,0.2155,-0.1388,0.3769,
45.164977,-0.5435,0.7817,-1.6955,0.2155,-0.1388,0.3769,
45.204862,-0.5435,0.7817,-1.6955,-0.7773,-0.7533,0.6171,
45.213403,-0.5435,0.7817,-1.6955,-0.7773,-0.7533,0.6171,
45.230419,-2.7462,-1.2493,-0.9083,-0.7773,-0.7533,0.6171,
45.270956,-2.7462,-1.2493,-0.9083,-0.7517,-0.4780,0.9464,
45.279504,-2.7462,-1.2493,-0.9083,-0.7517,-0.4780,0.9464,
45.295436,1.5754,-2.3292,-2.7215,-0.7517,-0.4780,0.9464,
45.336489,1.5754,-2.3292,-2.7215,-0.7540,-0.8728,0.9264,
45.344416,1.5754,-2.3292,-2.7215,-0.7540,-0.8728,0.9264,
45.360943,6.5327,-1.2362,0.4343,-0.7540,-0.8728,0.9264,
45.400623,6.5327,-1.2362,0.4343,-0.8363,-0.3317,0.0951,
45.410120,6.5327,-1.2362,0.4343,-0.8363,-0.3317,0.0951,
45.428090,2.6323,-2.9840,2.0229,-0.8363,-0.3317,0.0951,
45.467791,2.6323,-2.9840,2.0229,0.4100,0.5350,-0.2491,
45.477304,2.6323,-2.9840,2.0229,0.4100,0.5350,-0.2491,
45.491888,1.0457,-3.9673,1.2443,0.4100,0.5350,-0.2491,
45.532576,1.0457,-3.9673,1.2443,1.3129,0.6585,-0.0571,
45.540182,1.0457,-3.9673,1.2443,1.3129,0.6585,-0.0571,
45.557165,-0.3226,-1.3997,-0.9909,1.3129,0.6585,-0.0571,
45.598345,-0.3226,-1.3997,-0.9909,1.0968,0.0293,-0.2158,
45.605524,-0.3226,-1.3997,-0.9909,1.0968,0.0293,-0.2158,
45.622566,-3.5267,2.4267,-1.6639,1.0968,0.0293,-0.2158,
45.663064,-3.5267,2.4267,-1.6639,0.6533,0.1457,-0.2944,
45.672187,-3.5267,2.4267,-1.6639,0.6533,0.1457,-0.2944,
45.688599,-2.1916,7.0918,0.7566,0.6533,0.1457,-0.2944,
45.730035,-2.1916,7.0918,0.7566,-0.8612,0.2370,0.5971,
45.738153,-2.1916,7.0918,0.7566,-0.8612,0.2370,0.5971,
45.754268,1.0681,0.7116,1.0239,-0.8612,0.2370,0.5971,
45.794505,1.0681,0.7116,1.0239,-0.6090,0.0938,0.3636,
45.803782,1.0681,0.7116,1.0239,-0.6090,0.0938,0.3636,
45.819594,-0.5815,-1.7814,0.1915,-0.6090,0.0938,0.3636,
45.860216,-0.5815,-1.7814,0.1915,-0.2376,0.0038,0.1251,
45.869518,-0.5815,-1.7814,0.1915,-0.2376,0.0038,0.1251,
45.884319,-1.7007,-1.9539,-0.4200,-0.2376,0.0038,0.1251,
45.925066,-1.7007,-1.9539,-0.4200,0.4789,0.7767,-0.2053,
45.934006,-1.7007,-1.9539,-0.4200,0.4789,0.7767,-0.2053,
45.951811,2.3088,-2.0441,-0.1016,0.4789,0.7767,-0.2053,
45.990254,2.3088,-2.0441,-0.1016,0.0571,-0.4769,-0.2566,
45.999718,2.3088,-2.0441,-0.1016,0.0571,-0.4769,-0.2566,
46.016179,3.4974,0.5227,1.2213,0.0571,-0.4769,-0.2566,
46.055715,3.4974,0.5227,1.2213,-0.8302,0.6410,0.5053,
46.064204,3.4974,0.5227,1.2213,-0.8302,0.6410,0.5053,
46.081836,-0.2099,-0.9920,0.4283,-0.8302,0.6410,0.5053,
46.122592,-0.2099,-0.9920,0.4283,0.9340,0.5534,-0.3433,
46.130287,-0.2099,-0.9920,0.4283,0.9340,0.5534,-0.3433,
46.147075,-3.7469,-2.8850,-0.3476,0.9340,0.5534,-0.3433,
46.187086,-3.7469,-2.8850,-0.3476,1.4169,0.0015,-0.0327,
46.195456,-3.7469,-2.8850,-0.3476,1.4169,0.0015,-0.0327,
46.212845,-0.4332,4.6748,0.7965,1.4169,0.0015,-0.0327,
46.252185,-0.4332,4.6748,0.7965,0.1515,-0.1339,0.5877,
46.262455,-0.4332,4.6748,0.7965,0.1515,-0.1339,0.5877,
46.278589,2.5643,4.7059,3.3748,0.1515,-0.1339,0.5877,
46.318647,2.5643,4.7059,3.3748,-0.6712,0.2908,0.1089,
46.326574,2.5643,4.7059,3.3748,-0.6712,0.2908,0.1089,
46.343034,-1.8415,1.6416,-0.2423,-0.6712,0.2908,0.1089,
46.383616,-1.8415,1.6416,-0.2423,-0.7283,0.4377,0.0841,
46.392504,-1.8415,1.6416,-0.2423,-0.7283,0.4377,0.0841,
46.408947,0.4392,1.2991,-2.6589,-0.7283,0.4377,0.0841,
46.449883,0.4392,1.2991,-2.6589,-1.1232,0.9899,-0.8343,
46.458047,0.4392,1.2991,-2.6589,-1.1232,0.9899,-0.8343,
46.475632,5.6222,-1.6079,-0.1065,-1.1232,0.9899,-0.8343,
46.514865,5.6222,-1.6079,-0.1065,-0.2732,-0.2082,-1.3967,
46.523574,5.6222,-1.6079,-0.1065,-0.2732,-0.2082,-1.3967,
46.539759,5.1589,-2.2473,0.5413,-0.2732,-0.2082,-1.3967,
46.579914,5.1589,-2.2473,0.5413,-0.2440,1.5959,-0.3267,
46.588146,5.1589,-2.2473,0.5413,-0.2440,1.5959,-0.3267,
46.604940,-3.5576,-4.6976,-1.0396,-0.2440,1.5959,-0.3267,
46.646204,-3.5576,-4.6976,-1.0396,0.8543,0.4510,-0.8179,
46.652708,-3.5576,-4.6976,-1.0396,0.8543,0.4510,-0.8179,
46.670183,-7.2135,-3.4977,-4.2025,0.8543,0.4510,-0.8179,
46.711322,-7.2135,-3.4977,-4.2025,0.8053,1.5534,-1.1306,
46.719070,-7.2135,-3.4977,-4.2025,0.8053,1.5534,-1.1306,
46.735740,-4.2405,12.9942,6.6744,0.8053,1.5534,-1.1306,
46.776224,-4.2405,12.9942,6.6744,0.3647,-0.8431,0.8835,
46.784353,-4.2405,12.9942,6.6744,0.3647,-0.8431,0.8835,
46.800901,2.1344,2.1910,-1.5973,0.3647,-0.8431,0.8835,
46.841894,2.1344,2.1910,-1.5973,-0.8821,1.0435,0.1802,
46.849822,2.1344,2.1910,-1.5973,-0.8821,1.0435,0.1802,
46.867215,-2.7767,-5.3124,-2.9521,-0.8821,1.0435,0.1802,
46.909492,-2.7767,-5.3124,-2.9521,-0.1863,0.3227,-0.1031,
46.915095,-2.7767,-5.3124,-2.9521,-0.1863,0.3227,-0.1031,
46.931786,0.3410,-1.9463,-1.3579,-0.1863,0.3227,-0.1031,
46.974180,0.3410,-1.9463,-1.3579,-0.4933,-0.8997,1.0728,
46.981441,0.3410,-1.9463,-1.3579,-0.4933,-0.8997,1.0728,
46.998783,5.6960,-0.4713,-1.1827,-0.4933,-0.8997,1.0728,
47.038274,5.6960,-0.4713,-1.1827,-0.1801,0.1402,0.0162,
47.046316,5.6960,-0.4713,-1.1827,-0.1801,0.1402,0.0162,
47.063282,-2.6891,-3.8205,0.8587,-0.1801,0.1402,0.0162,
47.103180,-2.6891,-3.8205,0.8587,0.9368,-2.0534,-0.6541,
47.111455,-2.6891,-3.8205,0.8587,0.9368,-2.0534,-0.6541,
