
time,ax,ay,az,wx,wy,wz,
0.035636,0.0000,0.0000,0.0000,-0.0922,-0.1544,0.0341,
0.043321,0.0000,0.0000,0.0000,-0.0922,-0.1544,0.0341,
0.100047,0.0000,0.0000,0.0000,-0.0606,-0.0907,0.0257,
0.109479,0.0000,0.0000,0.0000,-0.0606,-0.0907,0.0257,
0.165587,0.0000,0.0000,0.0000,-0.0451,-0.0391,0.0208,
0.174343,0.0000,0.0000,0.0000,-0.0451,-0.0391,0.0208,
0.231765,0.0000,0.0000,0.0000,-0.0353,-0.0382,0.0176,
0.240473,0.0000,0.0000,0.0000,-0.0353,-0.0382,0.0176,
0.297212,0.0000,0.0000,0.0000,-0.0183,-0.0247,0.0076,
0.306676,0.0000,0.0000,0.0000,-0.0183,-0.0247,0.0076,
0.363209,0.0000,0.0000,0.0000,-0.0070,-0.0231,-0.0032,
0.371046,0.0000,0.0000,0.0000,-0.0070,-0.0231,-0.0032,
0.428106,0.0000,0.0000,0.0000,-0.0017,-0.0554,-0.0073,
0.438493,0.0000,0.0000,0.0000,-0.0017,-0.0554,-0.0073,
0.485708,-0.0281,-0.1078,0.0160,-0.0017,-0.0554,-0.0073,
0.493309,-0.0281,-0.1078,0.0160,0.0105,-0.1836,-0.0031,
0.501624,-0.0281,-0.1078,0.0160,0.0105,-0.1836,-0.0031,
0.552141,-0.2197,-0.2779,0.4245,0.0105,-0.1836,-0.0031,
0.558720,-0.2197,-0.2779,0.4245,0.1567,-0.5084,0.0052,
0.567468,-0.2197,-0.2779,0.4245,0.1567,-0.5084,0.0052,
0.616447,-0.1562,-0.4318,0.1942,0.1567,-0.5084,0.0052,
0.624073,-0.1562,-0.4318,0.1942,0.3833,-0.5084,-0.0472,
0.632341,-0.1562,-0.4318,0.1942,0.3833,-0.5084,-0.0472,
0.681683,-0.3849,-0.6897,0.5283,0.3833,-0.5084,-0.0472,
0.689461,-0.3849,-0.6897,0.5283,0.7149,-0.5504,0.1066,
0.697749,-0.3849,-0.6897,0.5283,0.7149,-0.5504,0.1066,
0.747362,0.1350,-0.2040,0.0846,0.7149,-0.5504,0.1066,
0.756864,0.1350,-0.2040,0.0846,0.8929,-0.1512,0.0336,
0.763888,0.1350,-0.2040,0.0846,0.8929,-0.1512,0.0336,
0.812791,0.6709,0.0958,-0.4765,0.8929,-0.1512,0.0336,
0.820227,0.6709,0.0958,-0.4765,0.7546,0.4345,-0.0612,
0.828544,0.6709,0.0958,-0.4765,0.7546,0.4345,-0.0612,
0.878336,0.0897,0.1234,-0.6701,0.7546,0.4345,-0.0612,
0.886209,0.0897,0.1234,-0.6701,0.3622,0.2993,-0.0021,
0.894429,0.0897,0.1234,-0.6701,0.3622,0.2993,-0.0021,
0.944713,0.0468,0.2028,-0.6675,0.3622,0.2993,-0.0021,
0.951573,0.0468,0.2028,-0.6675,-0.1474,0.0817,-0.0594,
0.959882,0.0468,0.2028,-0.6675,-0.1474,0.0817,-0.0594,
1.009914,-0.0198,-0.2155,-0.2045,-0.1474,0.0817,-0.0594,
1.017166,-0.0198,-0.2155,-0.2045,-0.4279,-0.2140,-0.0733,
1.026289,-0.0198,-0.2155,-0.2045,-0.4279,-0.2140,-0.0733,
1.075486,-0.1468,-0.8827,0.2174,-0.4279,-0.2140,-0.0733,
1.082353,-0.1468,-0.8827,0.2174,-0.4542,-0.4531,-0.2175,
1.091760,-0.1468,-0.8827,0.2174,-0.4542,-0.4531,-0.2175,
1.141488,-0.2270,-0.8272,-0.2475,-0.4542,-0.4531,-0.2175,
1.148504,-0.2270,-0.8272,-0.2475,-0.3415,-0.2669,-0.3054,
1.157374,-0.2270,-0.8272,-0.2475,-0.3415,-0.2669,-0.3054,
1.206362,0.0841,-0.5442,-0.1571,-0.3415,-0.2669,-0.3054,
1.213942,0.0841,-0.5442,-0.1571,-0.1185,-0.2482,-0.3441,
1.223020,0.0841,-0.5442,-0.1571,-0.1185,-0.2482,-0.3441,
1.273240,-0.5012,-0.6256,0.3388,-0.1185,-0.2482,-0.3441,
1.279535,-0.5012,-0.6256,0.3388,0.2224,-0.0699,-0.5625,
1.288827,-0.5012,-0.6256,0.3388,0.2224,-0.0699,-0.5625,
1.345003,-0.5012,-0.6256,0.3388,0.2393,-0.4250,-0.8184,
1.402722,-1.7293,1.3563,-0.8539,0.2393,-0.4250,-0.8184,
1.409527,-1.7293,1.3563,-0.8539,-0.4519,-0.6368,-0.0104,
1.418546,-1.7293,1.3563,-0.8539,-0.4519,-0.6368,-0.0104,
1.475785,-1.7293,1.3563,-0.8539,-0.8951,-1.1600,-0.2691,
1.483738,-1.7293,1.3563,-0.8539,-0.8951,-1.1600,-0.2691,
1.484179,0.8170,0.8061,-0.7228,-0.8951,-1.1600,-0.2691,
1.541422,0.8170,0.8061,-0.7228,-1.1842,-1.0244,-0.5211,
1.549580,0.8170,0.8061,-0.7228,-1.1842,-1.0244,-0.5211,
1.550741,-0.0290,1.0775,0.2887,-1.1842,-1.0244,-0.5211,
1.607359,-0.0290,1.0775,0.2887,-0.5692,-1.6162,-0.1144,
1.615906,-0.0290,1.0775,0.2887,-0.5692,-1.6162,-0.1144,
1.616670,-1.3919,0.5453,-0.5414,-0.5692,-1.6162,-0.1144,
1.672852,-1.3919,0.5453,-0.5414,-0.3509,-0.6338,-0.2656,
1.681089,-1.3919,0.5453,-0.5414,-0.3509,-0.6338,-0.2656,
1.681976,0.8990,-1.9541,-1.3112,-0.3509,-0.6338,-0.2656,
1.737420,0.8990,-1.9541,-1.3112,0.5264,-0.1414,-0.5351,
1.746817,0.8990,-1.9541,-1.3112,0.5264,-0.1414,-0.5351,
1.748033,0.2102,-0.8993,-0.9225,0.5264,-0.1414,-0.5351,
1.802892,0.2102,-0.8993,-0.9225,-0.7202,-1.5403,-0.3031,
1.811191,0.2102,-0.8993,-0.9225,-0.7202,-1.5403,-0.3031,
1.812347,-0.0399,0.2215,0.5245,-0.7202,-1.5403,-0.3031,
1.868480,-0.0399,0.2215,0.5245,-0.4791,-0.9554,-0.3361,
1.876616,-0.0399,0.2215,0.5245,-0.4791,-0.9554,-0.3361,
1.877440,0.0122,0.5824,0.9869,-0.4791,-0.9554,-0.3361,
1.934398,0.0122,0.5824,0.9869,-0.4394,-1.3515,-0.0024,
1.942752,0.0122,0.5824,0.9869,-0.4394,-1.3515,-0.0024,
1.943621,0.2022,-0.3522,0.1394,-0.4394,-1.3515,-0.0024,
1.999881,0.2022,-0.3522,0.1394,-0.6710,-1.1012,-0.0698,
2.008084,0.2022,-0.3522,0.1394,-0.6710,-1.1012,-0.0698,
2.009369,0.3297,0.2701,0.8919,-0.6710,-1.1012,-0.0698,
2.065179,0.3297,0.2701,0.8919,-0.4870,-1.1041,-0.0916,
2.073702,0.3297,0.2701,0.8919,-0.4870,-1.1041,-0.0916,
2.074958,-0.3296,-0.0059,0.6481,-0.4870,-1.1041,-0.0916,
2.130189,-0.3296,-0.0059,0.6481,-0.5162,-1.0487,0.0394,
2.140155,-0.3296,-0.0059,0.6481,-0.5162,-1.0487,0.0394,
2.141267,-0.4296,0.0562,0.7958,-0.5162,-1.0487,0.0394,
2.196719,-0.4296,0.0562,0.7958,-0.4420,-1.1464,-0.0611,
2.204731,-0.4296,0.0562,0.7958,-0.4420,-1.1464,-0.0611,
2.205834,-0.1083,0.2533,1.2070,-0.4420,-1.1464,-0.0611,
2.261221,-0.1083,0.2533,1.2070,-0.3738,-1.0847,-0.0985,
2.270483,-0.1083,0.2533,1.2070,-0.3738,-1.0847,-0.0985,
2.271564,-0.7417,-0.0205,0.8582,-0.3738,-1.0847,-0.0985,
2.327002,-0.7417,-0.0205,0.8582,-0.3676,-0.8980,-0.0591,
2.335150,-0.7417,-0.0205,0.8582,-0.3676,-0.8980,-0.0591,
2.335902,-0.3876,-0.1153,1.1650,-0.3676,-0.8980,-0.0591,
2.393273,-0.3876,-0.1153,1.1650,-0.4178,-1.0658,-0.0864,
2.401069,-0.3876,-0.1153,1.1650,-0.4178,-1.0658,-0.0864,
2.402243,-0.4201,0.5137,0.6378,-0.4178,-1.0658,-0.0864,
2.458377,-0.4201,0.5137,0.6378,-1.4783,-0.1608,0.0954,
2.466111,-0.4201,0.5137,0.6378,-1.4783,-0.1608,0.0954,
2.467549,-0.3076,0.6195,1.1502,-1.4783,-0.1608,0.0954,
2.523139,-0.3076,0.6195,1.1502,-1.7692,-0.1196,-0.1860,
2.531472,-0.3076,0.6195,1.1502,-1.7692,-0.1196,-0.1860,
2.532181,0.6203,1.2213,0.9907,-1.7692,-0.1196,-0.1860,
2.589646,0.6203,1.2213,0.9907,-0.7920,-0.7295,-0.0750,
2.597816,0.6203,1.2213,0.9907,-0.7920,-0.7295,-0.0750,
2.598663,0.2863,1.2921,0.7977,-0.7920,-0.7295,-0.0750,
2.654219,0.2863,1.2921,0.7977,-0.9800,-0.6096,0.1246,
2.662444,0.2863,1.2921,0.7977,-0.9800,-0.6096,0.1246,
2.663214,-0.2574,-1.2230,-1.0197,-0.9800,-0.6096,0.1246,
2.719725,-0.2574,-1.2230,-1.0197,-0.4154,-0.1889,-0.1315,
2.728614,-0.2574,-1.2230,-1.0197,-0.4154,-0.1889,-0.1315,
2.729612,-0.0727,-0.9599,-1.7645,-0.4154,-0.1889,-0.1315,
2.784564,-0.0727,-0.9599,-1.7645,0.0631,-0.5134,-0.1197,
2.793610,-0.0727,-0.9599,-1.7645,0.0631,-0.5134,-0.1197,
2.794477,-0.0809,-0.0996,-0.2683,0.0631,-0.5134,-0.1197,
2.850422,-0.0809,-0.0996,-0.2683,0.2624,-0.4264,0.0541,
2.858775,-0.0809,-0.0996,-0.2683,0.2624,-0.4264,0.0541,
2.859501,0.0251,-0.6007,0.1149,0.2624,-0.4264,0.0541,
2.915905,0.0251,-0.6007,0.1149,0.3213,-0.4557,0.1275,
2.924285,0.0251,-0.6007,0.1149,0.3213,-0.4557,0.1275,
2.924907,0.5209,-1.0555,-0.0487,0.3213,-0.4557,0.1275,
2.980996,0.5209,-1.0555,-0.0487,-0.1258,-0.4852,0.0159,
2.990295,0.5209,-1.0555,-0.0487,-0.1258,-0.4852,0.0159,
2.991012,0.2581,-0.3873,1.0361,-0.1258,-0.4852,0.0159,
3.047545,0.2581,-0.3873,1.0361,-0.1631,-0.5438,-0.0304,
3.056110,0.2581,-0.3873,1.0361,-0.1631,-0.5438,-0.0304,
3.056846,0.1483,-0.6375,1.3107,-0.1631,-0.5438,-0.0304,
3.112245,0.1483,-0.6375,1.3107,-0.1376,-0.6523,0.0535,
3.120651,0.1483,-0.6375,1.3107,-0.1376,-0.6523,0.0535,
3.121284,0.9562,-0.8204,0.9875,-0.1376,-0.6523,0.0535,
3.177712,0.9562,-0.8204,0.9875,-0.4207,-0.5403,0.0693,
3.186216,0.9562,-0.8204,0.9875,-0.4207,-0.5403,0.0693,
3.188422,1.4358,0.1043,1.1315,-0.4207,-0.5403,0.0693,
3.242805,1.4358,0.1043,1.1315,-0.7071,-0.3218,0.2318,
3.252246,1.4358,0.1043,1.1315,-0.7071,-0.3218,0.2318,
3.253037,1.7419,1.6481,-1.0258,-0.7071,-0.3218,0.2318,
3.308974,1.7419,1.6481,-1.0258,-0.4725,-0.3511,0.0298,
3.317751,1.7419,1.6481,-1.0258,-0.4725,-0.3511,0.0298,
3.318826,-0.5531,0.8508,-1.2573,-0.4725,-0.3511,0.0298,
3.374782,-0.5531,0.8508,-1.2573,0.1623,-0.0365,0.1220,
3.382569,-0.5531,0.8508,-1.2573,0.1623,-0.0365,0.1220,
3.382870,-0.9930,-0.4926,0.8053,0.1623,-0.0365,0.1220,
3.439548,-0.9930,-0.4926,0.8053,0.7414,0.3181,-0.0441,
3.448278,-0.9930,-0.4926,0.8053,0.7414,0.3181,-0.0441,
3.448851,1.7393,0.2453,-0.0635,0.7414,0.3181,-0.0441,
3.505300,1.7393,0.2453,-0.0635,-0.4369,0.3625,-0.0305,
3.515326,1.7393,0.2453,-0.0635,-0.4369,0.3625,-0.0305,
3.516656,-0.9491,-1.2030,0.5079,-0.4369,0.3625,-0.0305,
3.570645,-0.9491,-1.2030,0.5079,-0.1475,0.5202,0.0402,
3.579288,-0.9491,-1.2030,0.5079,-0.1475,0.5202,0.0402,
3.579914,-1.1083,-1.2173,0.8984,-0.1475,0.5202,0.0402,
3.637003,-1.1083,-1.2173,0.8984,0.4197,0.7840,0.1752,
3.646377,-1.1083,-1.2173,0.8984,0.4197,0.7840,0.1752,
3.647011,0.2678,-0.6570,1.3932,0.4197,0.7840,0.1752,
3.701964,0.2678,-0.6570,1.3932,0.6229,0.2363,0.1978,
3.710306,0.2678,-0.6570,1.3932,0.6229,0.2363,0.1978,
3.711315,-0.2653,0.7038,2.0133,0.6229,0.2363,0.1978,
3.767665,-0.2653,0.7038,2.0133,0.9268,0.3548,0.2611,
3.776478,-0.2653,0.7038,2.0133,0.9268,0.3548,0.2611,
3.777427,1.3115,1.0080,3.1213,0.9268,0.3548,0.2611,
3.832150,1.3115,1.0080,3.1213,1.2223,0.1439,1.4784,
3.840936,1.3115,1.0080,3.1213,1.2223,0.1439,1.4784,
3.842504,0.0887,1.9367,-1.0753,1.2223,0.1439,1.4784,
3.899470,0.0887,1.9367,-1.0753,1.8993,1.1513,1.1159,
3.907251,0.0887,1.9367,-1.0753,1.8993,1.1513,1.1159,
3.908121,0.8381,-3.7691,-5.1188,1.8993,1.1513,1.1159,
3.964576,0.8381,-3.7691,-5.1188,0.4730,1.0391,-0.1258,
3.974825,0.8381,-3.7691,-5.1188,0.4730,1.0391,-0.1258,
3.976285,2.0225,-2.1348,-1.0215,0.4730,1.0391,-0.1258,
4.031670,2.0225,-2.1348,-1.0215,0.3053,-0.0176,0.0777,
4.039433,2.0225,-2.1348,-1.0215,0.3053,-0.0176,0.0777,
4.040525,-0.9154,-0.6416,0.8073,0.3053,-0.0176,0.0777,
4.097104,-0.9154,-0.6416,0.8073,0.6452,0.3615,-0.1710,
4.103915,-0.9154,-0.6416,0.8073,0.6452,0.3615,-0.1710,
4.104946,-1.7750,-1.5180,0.3149,0.6452,0.3615,-0.1710,
4.160881,-1.7750,-1.5180,0.3149,0.4849,-0.5081,0.0122,
4.171441,-1.7750,-1.5180,0.3149,0.4849,-0.5081,0.0122,
4.172568,-0.5389,-0.1703,-0.3849,0.4849,-0.5081,0.0122,
4.230197,-0.5389,-0.1703,-0.3849,-0.6206,-0.5877,0.3268,
4.235872,-0.5389,-0.1703,-0.3849,-0.6206,-0.5877,0.3268,
4.236612,3.8838,-0.2787,1.7142,-0.6206,-0.5877,0.3268,
4.293857,3.8838,-0.2787,1.7142,-0.8465,0.1752,0.3743,
4.301866,3.8838,-0.2787,1.7142,-0.8465,0.1752,0.3743,
4.303640,3.4009,-1.0099,0.8261,-0.8465,0.1752,0.3743,
4.357641,3.4009,-1.0099,0.8261,0.3937,-0.0961,0.3706,
4.365800,3.4009,-1.0099,0.8261,0.3937,-0.0961,0.3706,
4.366958,0.0739,0.1982,-2.5904,0.3937,-0.0961,0.3706,
4.423792,0.0739,0.1982,-2.5904,1.0275,-0.1535,-0.0486,
4.433035,0.0739,0.1982,-2.5904,1.0275,-0.1535,-0.0486,
4.434722,-2.6003,1.8637,-3.7971,1.0275,-0.1535,-0.0486,
4.487935,-2.6003,1.8637,-3.7971,0.7268,0.2628,0.2075,
4.495929,-2.6003,1.8637,-3.7971,0.7268,0.2628,0.2075,
4.496241,0.4744,-0.0515,0.6476,0.7268,0.2628,0.2075,
4.555218,0.4744,-0.0515,0.6476,0.4649,1.2255,-0.3618,
4.562516,0.4744,-0.0515,0.6476,0.4649,1.2255,-0.3618,
4.564327,-0.3806,-2.7158,1.4521,0.4649,1.2255,-0.3618,
4.618755,-0.3806,-2.7158,1.4521,1.8288,0.5316,-0.9586,
4.627131,-0.3806,-2.7158,1.4521,1.8288,0.5316,-0.9586,
4.628323,-1.2210,-0.7051,-0.0316,1.8288,0.5316,-0.9586,
4.685532,-1.2210,-0.7051,-0.0316,1.2828,1.3987,-0.4665,
4.692748,-1.2210,-0.7051,-0.0316,1.2828,1.3987,-0.4665,
4.693543,-0.3991,-0.0623,0.7846,1.2828,1.3987,-0.4665,
4.749771,-0.3991,-0.0623,0.7846,0.3358,1.1993,-0.0438,
4.757842,-0.3991,-0.0623,0.7846,0.3358,1.1993,-0.0438,
4.758516,2.0390,0.0788,2.8573,0.3358,1.1993,-0.0438,
4.815787,2.0390,0.0788,2.8573,0.8606,0.5389,-0.2975,
4.823648,2.0390,0.0788,2.8573,0.8606,0.5389,-0.2975,
4.825077,0.0687,3.0037,0.7951,0.8606,0.5389,-0.2975,
4.880922,0.0687,3.0037,0.7951,0.3738,0.7167,-0.2184,
4.889150,0.0687,3.0037,0.7951,0.3738,0.7167,-0.2184,
4.889664,2.1471,1.1166,-4.3373,0.3738,0.7167,-0.2184,
4.946288,2.1471,1.1166,-4.3373,0.3099,1.7769,-0.2074,
4.953787,2.1471,1.1166,-4.3373,0.3099,1.7769,-0.2074,
4.954372,0.2897,-3.9495,-5.0523,0.3099,1.7769,-0.2074,
5.011063,0.2897,-3.9495,-5.0523,0.5548,0.4282,-0.1295,
5.021577,0.2897,-3.9495,-5.0523,0.5548,0.4282,-0.1295,
5.022378,1.6352,-3.0334,-0.6027,0.5548,0.4282,-0.1295,
5.077398,1.6352,-3.0334,-0.6027,0.6920,-0.8280,-0.2896,
5.085014,1.6352,-3.0334,-0.6027,0.6920,-0.8280,-0.2896,
5.086486,-1.7008,0.5505,0.5878,0.6920,-0.8280,-0.2896,
5.142780,-1.7008,0.5505,0.5878,0.0104,0.3885,-0.0909,
5.151156,-1.7008,0.5505,0.5878,0.0104,0.3885,-0.0909,
5.152529,-2.4787,-1.3042,0.2310,0.0104,0.3885,-0.0909,
5.207854,-2.4787,-1.3042,0.2310,0.2329,-0.4372,0.1956,
5.216198,-2.4787,-1.3042,0.2310,0.2329,-0.4372,0.1956,
5.216743,0.1580,-1.4076,0.3389,0.2329,-0.4372,0.1956,
5.272438,0.1580,-1.4076,0.3389,-0.3983,-0.8305,0.2181,
5.280992,0.1580,-1.4076,0.3389,-0.3983,-0.8305,0.2181,
5.281280,3.0815,0.0523,1.7678,-0.3983,-0.8305,0.2181,
5.337958,3.0815,0.0523,1.7678,-0.7561,-0.2709,0.4314,
5.347008,3.0815,0.0523,1.7678,-0.7561,-0.2709,0.4314,
5.347508,3.7891,0.6253,0.6532,-0.7561,-0.2709,0.4314,
5.404207,3.7891,0.6253,0.6532,-0.7824,0.0907,0.6083,
5.411992,3.7891,0.6253,0.6532,-0.7824,0.0907,0.6083,
5.412343,-0.3682,-0.4637,-2.3117,-0.7824,0.0907,0.6083,
5.469651,-0.3682,-0.4637,-2.3117,0.1617,-0.0620,0.4485,
5.478096,-0.3682,-0.4637,-2.3117,0.1617,-0.0620,0.4485,
5.478728,-2.0380,0.2146,-3.5271,0.1617,-0.0620,0.4485,
5.537644,-2.0380,0.2146,-3.5271,1.2423,0.8741,0.0867,
5.543483,-2.0380,0.2146,-3.5271,1.2423,0.8741,0.0867,
5.544168,1.2181,1.2744,-0.3910,1.2423,0.8741,0.0867,
5.601261,1.2181,1.2744,-0.3910,0.7369,0.7107,-0.0991,
5.609921,1.2181,1.2744,-0.3910,0.7369,0.7107,-0.0991,
5.611076,0.5743,-3.3217,1.1004,0.7369,0.7107,-0.0991,
5.666352,0.5743,-3.3217,1.1004,1.6561,0.4794,-0.9026,
5.674862,0.5743,-3.3217,1.1004,1.6561,0.4794,-0.9026,
5.675741,-1.2836,-1.0444,0.4966,1.6561,0.4794,-0.9026,
5.733020,-1.2836,-1.0444,0.4966,1.4998,0.8132,-0.7866,
5.740518,-1.2836,-1.0444,0.4966,1.4998,0.8132,-0.7866,
5.741419,-2.6535,1.0165,-1.0247,1.4998,0.8132,-0.7866,
5.797634,-2.6535,1.0165,-1.0247,-0.1481,1.1280,0.3158,
5.806359,-2.6535,1.0165,-1.0247,-0.1481,1.1280,0.3158,
5.807682,1.0041,-1.3053,1.9536,-0.1481,1.1280,0.3158,
5.862308,1.0041,-1.3053,1.9536,0.6248,0.2644,-0.1675,
5.870554,1.0041,-1.3053,1.9536,0.6248,0.2644,-0.1675,
5.871388,0.7524,1.7742,2.9166,0.6248,0.2644,-0.1675,
5.928564,0.7524,1.7742,2.9166,0.4638,0.9106,0.1222,
5.936893,0.7524,1.7742,2.9166,0.4638,0.9106,0.1222,
5.937739,1.9865,2.6626,0.6132,0.4638,0.9106,0.1222,
5.993610,1.9865,2.6626,0.6132,-0.1124,1.0883,-0.1788,
6.001345,1.9865,2.6626,0.6132,-0.1124,1.0883,-0.1788,
6.002029,1.5198,0.2224,-2.6602,-0.1124,1.0883,-0.1788,
6.058927,1.5198,0.2224,-2.6602,1.1203,-0.6429,-0.8186,
6.067336,1.5198,0.2224,-2.6602,1.1203,-0.6429,-0.8186,
6.068363,-2.0041,-2.7171,-6.1954,1.1203,-0.6429,-0.8186,
6.124682,-2.0041,-2.7171,-6.1954,-0.0380,0.7526,0.3300,
6.133037,-2.0041,-2.7171,-6.1954,-0.0380,0.7526,0.3300,
6.133939,0.2347,-0.7968,-1.1715,-0.0380,0.7526,0.3300,
6.190656,0.2347,-0.7968,-1.1715,-0.9627,-1.7000,-0.0035,
6.197875,0.2347,-0.7968,-1.1715,-0.9627,-1.7000,-0.0035,
6.199266,-1.3498,-0.3222,2.5670,-0.9627,-1.7000,-0.0035,
6.256751,-1.3498,-0.3222,2.5670,-0.4908,-0.2388,-0.0805,
6.266114,-1.3498,-0.3222,2.5670,-0.4908,-0.2388,-0.0805,
6.267532,-1.5175,-2.0861,1.6063,-0.4908,-0.2388,-0.0805,
6.321037,-1.5175,-2.0861,1.6063,0.3676,-0.3441,0.1200,
6.329414,-1.5175,-2.0861,1.6063,0.3676,-0.3441,0.1200,
6.330277,2.2698,-2.5036,-0.8229,0.3676,-0.3441,0.1200,
6.386671,2.2698,-2.5036,-0.8229,-0.8653,-1.0463,0.0264,
6.394687,2.2698,-2.5036,-0.8229,-0.8653,-1.0463,0.0264,
6.396115,2.0153,-0.7613,1.3414,-0.8653,-1.0463,0.0264,
6.451919,2.0153,-0.7613,1.3414,-0.6454,0.0415,0.2808,
6.460362,2.0153,-0.7613,1.3414,-0.6454,0.0415,0.2808,
6.461712,2.3540,0.1355,1.2524,-0.6454,0.0415,0.2808,
6.518636,2.3540,0.1355,1.2524,0.1403,0.5046,0.6093,
6.525718,2.3540,0.1355,1.2524,0.1403,0.5046,0.6093,
6.526254,3.2153,0.1119,-2.2883,0.1403,0.5046,0.6093,
6.583772,3.2153,0.1119,-2.2883,0.1368,0.4369,0.2761,
6.591876,3.2153,0.1119,-2.2883,0.1368,0.4369,0.2761,
6.593621,-1.5443,-0.4625,-2.5629,0.1368,0.4369,0.2761,
6.649510,-1.5443,-0.4625,-2.5629,1.0528,0.4096,0.0405,
6.656893,-1.5443,-0.4625,-2.5629,1.0528,0.4096,0.0405,
6.657304,-1.0116,1.2825,-1.0015,1.0528,0.4096,0.0405,
6.715884,-1.0116,1.2825,-1.0015,1.1023,0.8212,-0.2457,
6.721738,-1.0116,1.2825,-1.0015,1.1023,0.8212,-0.2457,
6.722331,0.1417,-1.9580,0.3780,1.1023,0.8212,-0.2457,
6.779047,0.1417,-1.9580,0.3780,1.3114,0.4537,-0.6842,
6.787250,0.1417,-1.9580,0.3780,1.3114,0.4537,-0.6842,
6.787576,-1.0985,-1.3071,0.7540,1.3114,0.4537,-0.6842,
6.844663,-1.0985,-1.3071,0.7540,1.2355,0.2999,-0.8076,
6.853524,-1.0985,-1.3071,0.7540,1.2355,0.2999,-0.8076,
6.854721,-2.4129,1.1979,0.7592,1.2355,0.2999,-0.8076,
6.910681,-2.4129,1.1979,0.7592,0.0195,0.9485,0.0962,
6.918519,-2.4129,1.1979,0.7592,0.0195,0.9485,0.0962,
6.919434,0.7478,0.0902,1.6756,0.0195,0.9485,0.0962,
6.975904,0.7478,0.0902,1.6756,0.0541,0.2250,-0.2080,
6.984517,0.7478,0.0902,1.6756,0.0541,0.2250,-0.2080,
6.985485,1.0482,2.2106,3.0614,0.0541,0.2250,-0.2080,
7.041299,1.0482,2.2106,3.0614,0.0202,1.0217,0.0428,
7.049344,1.0482,2.2106,3.0614,0.0202,1.0217,0.0428,
7.050076,2.8346,3.1088,-1.2567,0.0202,1.0217,0.0428,
7.107506,2.8346,3.1088,-1.2567,0.1610,0.0654,-0.5466,
7.115055,2.8346,3.1088,-1.2567,0.1610,0.0654,-0.5466,
7.115912,0.0275,-1.9474,-5.2857,0.1610,0.0654,-0.5466,
7.172754,0.0275,-1.9474,-5.2857,0.1866,1.3457,0.1261,
7.181268,0.0275,-1.9474,-5.2857,0.1866,1.3457,0.1261,
7.181712,0.4800,-3.1783,-5.1171,0.1866,1.3457,0.1261,
7.238708,0.4800,-3.1783,-5.1171,-0.3106,-1.2390,-0.0710,
7.246615,0.4800,-3.1783,-5.1171,-0.3106,-1.2390,-0.0710,
7.247422,0.0432,-0.0935,1.1080,-0.3106,-1.2390,-0.0710,
7.304105,0.0432,-0.0935,1.1080,-0.1738,-0.4627,-0.0903,
7.311828,0.0432,-0.0935,1.1080,-0.1738,-0.4627,-0.0903,
7.313071,-2.3615,-1.2827,1.4832,-0.1738,-0.4627,-0.0903,
7.371411,-2.3615,-1.2827,1.4832,0.2728,0.4620,0.0498,
7.378733,-2.3615,-1.2827,1.4832,0.2728,0.4620,0.0498,
7.379610,-0.1823,-2.9346,0.7691,0.2728,0.4620,0.0498,
7.435434,-0.1823,-2.9346,0.7691,0.2828,-0.7083,0.1200,
7.443934,-0.1823,-2.9346,0.7691,0.2828,-0.7083,0.1200,
7.444817,2.7613,-0.8927,-0.1127,0.2828,-0.7083,0.1200,
7.499232,2.7613,-0.8927,-0.1127,-0.9783,-0.3337,0.3033,
7.508361,2.7613,-0.8927,-0.1127,-0.9783,-0.3337,0.3033,
7.509304,3.2720,0.0679,2.0023,-0.9783,-0.3337,0.3033,
7.564455,3.2720,0.0679,2.0023,-0.4659,0.7585,0.5394,
7.573302,3.2720,0.0679,2.0023,-0.4659,0.7585,0.5394,
7.574310,2.1769,0.6881,-2.2247,-0.4659,0.7585,0.5394,
7.631142,2.1769,0.6881,-2.2247,-0.1071,0.0593,0.3126,
7.640516,2.1769,0.6881,-2.2247,-0.1071,0.0593,0.3126,
7.641952,-1.7705,0.2108,-3.9384,-0.1071,0.0593,0.3126,
7.696347,-1.7705,0.2108,-3.9384,0.9319,0.4145,-0.2072,
7.704930,-1.7705,0.2108,-3.9384,0.9319,0.4145,-0.2072,
7.705813,0.0453,2.3542,-0.5181,0.9319,0.4145,-0.2072,
7.763296,0.0453,2.3542,-0.5181,1.0624,0.6054,-0.2705,
7.770772,0.0453,2.3542,-0.5181,1.0624,0.6054,-0.2705,
7.771466,-0.2157,-3.2573,1.4078,1.0624,0.6054,-0.2705,
7.828490,-0.2157,-3.2573,1.4078,1.3430,0.6897,-0.7475,
7.838152,-0.2157,-3.2573,1.4078,1.3430,0.6897,-0.7475,
7.839178,-1.6099,-1.4817,0.2410,1.3430,0.6897,-0.7475,
7.892839,-1.6099,-1.4817,0.2410,1.2029,0.6144,-0.7106,
7.900986,-1.6099,-1.4817,0.2410,1.2029,0.6144,-0.7106,
7.901851,-2.0175,-0.0262,-1.1420,1.2029,0.6144,-0.7106,
7.958387,-2.0175,-0.0262,-1.1420,0.2366,1.0669,0.2885,
7.965677,-2.0175,-0.0262,-1.1420,0.2366,1.0669,0.2885,
7.965981,0.8191,-0.8003,1.5784,0.2366,1.0669,0.2885,
8.023686,0.8191,-0.8003,1.5784,0.7601,0.5431,-0.0200,
8.032133,0.8191,-0.8003,1.5784,0.7601,0.5431,-0.0200,
8.033131,1.8468,-0.5899,2.3936,0.7601,0.5431,-0.0200,
8.089286,1.8468,-0.5899,2.3936,1.1200,0.2471,-0.2077,
8.099430,1.8468,-0.5899,2.3936,1.1200,0.2471,-0.2077,
8.100552,-0.4764,4.1816,2.3195,1.1200,0.2471,-0.2077,
8.155231,-0.4764,4.1816,2.3195,-0.2703,1.2695,0.3059,
8.164536,-0.4764,4.1816,2.3195,-0.2703,1.2695,0.3059,
8.165655,2.9209,2.3757,-3.2108,-0.2703,1.2695,0.3059,
8.221403,2.9209,2.3757,-3.2108,0.5397,0.0408,-0.5637,
8.229164,2.9209,2.3757,-3.2108,0.5397,0.0408,-0.5637,
8.230300,-0.8621,-2.9011,-5.1943,0.5397,0.0408,-0.5637,
8.286359,-0.8621,-2.9011,-5.1943,0.0573,0.6515,0.3274,
8.294849,-0.8621,-2.9011,-5.1943,0.0573,0.6515,0.3274,
8.295452,-0.1163,-2.5961,-3.6822,0.0573,0.6515,0.3274,
8.350613,-0.1163,-2.5961,-3.6822,-0.2847,-1.6386,0.1188,
8.359507,-0.1163,-2.5961,-3.6822,-0.2847,-1.6386,0.1188,
8.360677,-0.1425,0.5199,1.8405,-0.2847,-1.6386,0.1188,
8.417386,-0.1425,0.5199,1.8405,-0.3441,-0.2088,-0.1034,
8.426711,-0.1425,0.5199,1.8405,-0.3441,-0.2088,-0.1034,
8.427742,-1.2671,-1.7173,1.5203,-0.3441,-0.2088,-0.1034,
8.484516,-1.2671,-1.7173,1.5203,0.1967,-0.1107,-0.0673,
8.491891,-1.2671,-1.7173,1.5203,0.1967,-0.1107,-0.0673,
8.492536,0.2136,-2.8037,0.4237,0.1967,-0.1107,-0.0673,
8.548079,0.2136,-2.8037,0.4237,-0.0473,-0.7300,0.0186,
8.557691,0.2136,-2.8037,0.4237,-0.0473,-0.7300,0.0186,
8.559115,1.8272,-1.0739,0.7393,-0.0473,-0.7300,0.0186,
8.613923,1.8272,-1.0739,0.7393,-0.4133,-0.2109,0.2335,
8.621833,1.8272,-1.0739,0.7393,-0.4133,-0.2109,0.2335,
8.623108,3.3041,-0.3634,1.8405,-0.4133,-0.2109,0.2335,
8.678415,3.3041,-0.3634,1.8405,0.0655,0.4136,0.4691,
8.687138,3.3041,-0.3634,1.8405,0.0655,0.4136,0.4691,
8.688006,4.2176,0.8938,-1.2776,0.0655,0.4136,0.4691,
8.743772,4.2176,0.8938,-1.2776,-0.3247,0.2016,0.4103,
8.752219,4.2176,0.8938,-1.2776,-0.3247,0.2016,0.4103,
8.752853,-1.6917,-0.4293,-2.6931,-0.3247,0.2016,0.4103,
8.810189,-1.6917,-0.4293,-2.6931,0.7805,0.3076,0.0820,
8.817968,-1.6917,-0.4293,-2.6931,0.7805,0.3076,0.0820,
8.818728,-2.3158,1.0358,-2.5408,0.7805,0.3076,0.0820,
8.875028,-2.3158,1.0358,-2.5408,0.9459,0.9297,0.0066,
8.883145,-2.3158,1.0358,-2.5408,0.9459,0.9297,0.0066,
8.883843,1.3234,-1.3276,0.5857,0.9459,0.9297,0.0066,
8.942448,1.3234,-1.3276,0.5857,1.0866,0.9925,-0.3589,
8.948894,1.3234,-1.3276,0.5857,1.0866,0.9925,-0.3589,
8.949920,0.3670,-2.5881,1.0639,1.0866,0.9925,-0.3589,
9.007315,0.3670,-2.5881,1.0639,2.0284,-0.1000,-1.0588,
9.015771,0.3670,-2.5881,1.0639,2.0284,-0.1000,-1.0588,
9.016876,-1.6434,0.4086,-1.0082,2.0284,-0.1000,-1.0588,
9.073588,-1.6434,0.4086,-1.0082,0.5412,0.9904,-0.2705,
9.081812,-1.6434,0.4086,-1.0082,0.5412,0.9904,-0.2705,
9.083383,-1.9343,0.6655,0.1918,0.5412,0.9904,-0.2705,
9.138421,-1.9343,0.6655,0.1918,-0.6167,0.8552,0.2958,
9.147955,-1.9343,0.6655,0.1918,-0.6167,0.8552,0.2958,
9.149266,1.8726,-1.0249,2.5982,-0.6167,0.8552,0.2958,
9.202806,1.8726,-1.0249,2.5982,0.7077,0.1982,-0.3042,
9.211278,1.8726,-1.0249,2.5982,0.7077,0.1982,-0.3042,
9.212288,1.2413,1.5671,2.2952,0.7077,0.1982,-0.3042,
9.270890,1.2413,1.5671,2.2952,0.1162,0.7569,-0.0510,
9.277183,1.2413,1.5671,2.2952,0.1162,0.7569,-0.0510,
9.278326,3.1322,3.2498,-1.8777,0.1162,0.7569,-0.0510,
9.333410,3.1322,3.2498,-1.8777,0.3212,0.2560,-0.5664,
9.341655,3.1322,3.2498,-1.8777,0.3212,0.2560,-0.5664,
9.343220,-1.8375,-2.8789,-4.9210,0.3212,0.2560,-0.5664,
9.399177,-1.8375,-2.8789,-4.9210,-0.0918,1.3511,0.1981,
9.407774,-1.8375,-2.8789,-4.9210,-0.0918,1.3511,0.1981,
9.409061,0.8461,-2.5839,-3.3994,-0.0918,1.3511,0.1981,
9.464115,0.8461,-2.5839,-3.3994,0.1852,-1.1880,-0.1176,
9.474121,0.8461,-2.5839,-3.3994,0.1852,-1.1880,-0.1176,
9.475652,-0.4448,0.2402,1.2998,0.1852,-1.1880,-0.1176,
9.530896,-0.4448,0.2402,1.2998,-0.1008,-0.0976,-0.1086,
9.541144,-0.4448,0.2402,1.2998,-0.1008,-0.0976,-0.1086,
9.543579,-1.4096,-0.9041,0.8703,-0.1008,-0.0976,-0.1086,
9.595606,-1.4096,-0.9041,0.8703,0.2289,-0.0788,0.0518,
9.603678,-1.4096,-0.9041,0.8703,0.2289,-0.0788,0.0518,
9.604371,0.5475,-2.7452,0.0190,0.2289,-0.0788,0.0518,
9.661483,0.5475,-2.7452,0.0190,-0.1115,-0.4804,0.0623,
9.670282,0.5475,-2.7452,0.0190,-0.1115,-0.4804,0.0623,
9.670805,1.7640,-1.7451,0.6819,-0.1115,-0.4804,0.0623,
9.725744,1.7640,-1.7451,0.6819,-0.3877,-0.1799,0.3403,
9.735295,1.7640,-1.7451,0.6819,-0.3877,-0.1799,0.3403,
9.735998,2.5508,-1.5386,1.5777,-0.3877,-0.1799,0.3403,
9.791595,2.5508,-1.5386,1.5777,0.2143,0.2421,0.5484,
9.800358,2.5508,-1.5386,1.5777,0.2143,0.2421,0.5484,
9.801050,3.1327,0.5274,-1.0131,0.2143,0.2421,0.5484,
9.857177,3.1327,0.5274,-1.0131,-0.3690,-0.3386,0.7286,
9.865775,3.1327,0.5274,-1.0131,-0.3690,-0.3386,0.7286,
9.866740,-1.1763,2.1545,-2.5986,-0.3690,-0.3386,0.7286,
9.922300,-1.1763,2.1545,-2.5986,0.0212,-0.2773,0.1472,
9.931329,-1.1763,2.1545,-2.5986,0.0212,-0.2773,0.1472,
9.932013,-3.4821,3.3950,-0.8801,0.0212,-0.2773,0.1472,
9.987684,-3.4821,3.3950,-0.8801,0.3650,-0.0194,0.0466,
9.996048,-3.4821,3.3950,-0.8801,0.3650,-0.0194,0.0466,
9.996762,-1.2222,1.7122,0.4248,0.3650,-0.0194,0.0466,
10.052646,-1.2222,1.7122,0.4248,-0.1272,0.5379,-0.0797,
10.061837,-1.2222,1.7122,0.4248,-0.1272,0.5379,-0.0797,
10.062482,0.0709,-1.9553,0.6656,-0.1272,0.5379,-0.0797,
10.118585,0.0709,-1.9553,0.6656,0.4679,-0.4349,-0.1888,
10.127538,0.0709,-1.9553,0.6656,0.4679,-0.4349,-0.1888,
10.128151,-1.0877,-0.1983,0.6471,0.4679,-0.4349,-0.1888,
10.185686,-1.0877,-0.1983,0.6471,0.0557,0.3697,-0.1127,
10.192748,-1.0877,-0.1983,0.6471,0.0557,0.3697,-0.1127,
10.193786,-0.3010,0.7032,1.6094,0.0557,0.3697,-0.1127,
10.251606,-0.3010,0.7032,1.6094,-0.2111,0.5536,0.0666,
10.259445,-0.3010,0.7032,1.6094,-0.2111,0.5536,0.0666,
10.261208,0.1551,0.1224,1.8178,-0.2111,0.5536,0.0666,
10.316649,0.1551,0.1224,1.8178,0.1009,-0.0480,-0.1681,
10.324093,0.1551,0.1224,1.8178,0.1009,-0.0480,-0.1681,
10.325577,1.3031,1.9747,2.7140,0.1009,-0.0480,-0.1681,
10.381684,1.3031,1.9747,2.7140,-0.4566,0.6680,0.1875,
10.390465,1.3031,1.9747,2.7140,-0.4566,0.6680,0.1875,
10.392150,2.2436,3.0911,0.2145,-0.4566,0.6680,0.1875,
10.447343,2.2436,3.0911,0.2145,-0.2208,-0.1245,-0.2647,
10.455384,2.2436,3.0911,0.2145,-0.2208,-0.1245,-0.2647,
10.456712,-1.8450,-0.3598,-2.4766,-0.2208,-0.1245,-0.2647,
10.511568,-1.8450,-0.3598,-2.4766,0.2431,0.3742,-0.2022,
10.520024,-1.8450,-0.3598,-2.4766,0.2431,0.3742,-0.2022,
10.520869,-2.4431,-1.8023,-4.0049,0.2431,0.3742,-0.2022,
10.578790,-2.4431,-1.8023,-4.0049,-0.3071,-0.3459,-0.0663,
10.586498,-2.4431,-1.8023,-4.0049,-0.3071,-0.3459,-0.0663,
10.587182,0.8564,0.1607,-0.8770,-0.3071,-0.3459,-0.0663,
10.644813,0.8564,0.1607,-0.8770,-0.8512,-1.1609,-0.1300,
10.652606,0.8564,0.1607,-0.8770,-0.8512,-1.1609,-0.1300,
10.655161,-1.5009,-0.0192,0.7401,-0.8512,-1.1609,-0.1300,
10.709268,-1.5009,-0.0192,0.7401,-0.8056,-0.5446,0.1002,
10.716300,-1.5009,-0.0192,0.7401,-0.8056,-0.5446,0.1002,
10.716613,-1.5486,-1.9006,0.3768,-0.8056,-0.5446,0.1002,
10.773678,-1.5486,-1.9006,0.3768,-0.0855,-0.7686,0.0365,
10.781327,-1.5486,-1.9006,0.3768,-0.0855,-0.7686,0.0365,
10.781694,1.2693,-1.5136,0.5951,-0.0855,-0.7686,0.0365,
10.838870,1.2693,-1.5136,0.5951,-0.7533,-1.1075,0.0875,
10.846950,1.2693,-1.5136,0.5951,-0.7533,-1.1075,0.0875,
10.847383,2.3051,0.5411,1.8974,-0.7533,-1.1075,0.0875,
10.903826,2.3051,0.5411,1.8974,-0.3264,0.3655,0.2312,
10.912281,2.3051,0.5411,1.8974,-0.3264,0.3655,0.2312,
10.912684,2.7899,-0.4377,1.8045,-0.3264,0.3655,0.2312,
10.969442,2.7899,-0.4377,1.8045,-0.2335,-0.5119,0.4316,
10.977543,2.7899,-0.4377,1.8045,-0.2335,-0.5119,0.4316,
10.978047,0.4656,1.5899,-2.4052,-0.2335,-0.5119,0.4316,
11.034742,0.4656,1.5899,-2.4052,-0.4557,-0.1917,0.0945,
11.043675,0.4656,1.5899,-2.4052,-0.4557,-0.1917,0.0945,
11.044203,-4.2486,0.4861,-1.0964,-0.4557,-0.1917,0.0945,
11.100841,-4.2486,0.4861,-1.0964,0.2692,0.1594,0.1492,
11.108993,-4.2486,0.4861,-1.0964,0.2692,0.1594,0.1492,
11.109567,-1.0443,1.1290,-0.3056,0.2692,0.1594,0.1492,
11.166084,-1.0443,1.1290,-0.3056,0.2159,0.0664,-0.1245,
11.175438,-1.0443,1.1290,-0.3056,0.2159,0.0664,-0.1245,
11.175912,1.5198,-1.8040,0.6431,0.2159,0.0664,-0.1245,
11.232191,1.5198,-1.8040,0.6431,0.4751,-0.0557,-0.4554,
11.240445,1.5198,-1.8040,0.6431,0.4751,-0.0557,-0.4554,
11.240988,-0.6615,-0.9825,1.1614,0.4751,-0.0557,-0.4554,
11.297858,-0.6615,-0.9825,1.1614,0.8008,0.1724,-0.5370,
11.306776,-0.6615,-0.9825,1.1614,0.8008,0.1724,-0.5370,
11.307760,-0.9637,0.2578,0.9295,0.8008,0.1724,-0.5370,
11.363997,-0.9637,0.2578,0.9295,0.2976,0.6199,-0.1231,
11.372324,-0.9637,0.2578,0.9295,0.2976,0.6199,-0.1231,
11.373378,0.6585,0.1695,1.8696,0.2976,0.6199,-0.1231,
11.429514,0.6585,0.1695,1.8696,0.2457,-0.3097,-0.2870,
11.437299,0.6585,0.1695,1.8696,0.2457,-0.3097,-0.2870,
11.438370,1.3663,2.6647,2.8015,0.2457,-0.3097,-0.2870,
11.495313,1.3663,2.6647,2.8015,-0.1717,0.8515,0.0310,
11.504004,1.3663,2.6647,2.8015,-0.1717,0.8515,0.0310,
11.504774,2.3036,3.3662,-0.8451,-0.1717,0.8515,0.0310,
11.562261,2.3036,3.3662,-0.8451,0.0838,-0.0724,-0.4734,
11.570208,2.3036,3.3662,-0.8451,0.0838,-0.0724,-0.4734,
11.570971,-1.3541,-2.3997,-4.0386,0.0838,-0.0724,-0.4734,
11.624935,-1.3541,-2.3997,-4.0386,-0.2098,0.7795,0.0406,
11.635030,-1.3541,-2.3997,-4.0386,-0.2098,0.7795,0.0406,
11.636108,-0.6840,-2.7145,-3.6790,-0.2098,0.7795,0.0406,
11.692464,-0.6840,-2.7145,-3.6790,-0.0692,-0.4690,-0.2364,
11.699510,-0.6840,-2.7145,-3.6790,-0.0692,-0.4690,-0.2364,
11.701197,0.6441,-0.0683,0.9432,-0.0692,-0.4690,-0.2364,
11.756798,0.6441,-0.0683,0.9432,0.0254,-0.4450,-0.1486,
11.767026,0.6441,-0.0683,0.9432,0.0254,-0.4450,-0.1486,
11.768824,-1.6061,-0.4944,0.5618,0.0254,-0.4450,-0.1486,
11.823417,-1.6061,-0.4944,0.5618,-0.3804,-0.3554,0.1182,
11.829527,-1.6061,-0.4944,0.5618,-0.3804,-0.3554,0.1182,
11.830484,-1.2254,-1.9702,0.3367,-0.3804,-0.3554,0.1182,
11.888167,-1.2254,-1.9702,0.3367,0.0264,-0.4595,0.1115,
11.896712,-1.2254,-1.9702,0.3367,0.0264,-0.4595,0.1115,
11.897446,1.8563,-1.2389,0.8408,0.0264,-0.4595,0.1115,
11.953248,1.8563,-1.2389,0.8408,-0.5421,-0.3326,0.0881,
11.961265,1.8563,-1.2389,0.8408,-0.5421,-0.3326,0.0881,
11.961966,2.9530,-0.3338,1.6807,-0.5421,-0.3326,0.0881,
12.018867,2.9530,-0.3338,1.6807,-0.0655,0.5154,0.4391,
12.026930,2.9530,-0.3338,1.6807,-0.0655,0.5154,0.4391,
12.028246,3.4422,0.7406,-0.8182,-0.0655,0.5154,0.4391,
12.083005,3.4422,0.7406,-0.8182,-0.1336,-0.0333,0.3393,
12.091941,3.4422,0.7406,-0.8182,-0.1336,-0.0333,0.3393,
12.092593,-0.3700,0.4689,-3.0154,-0.1336,-0.0333,0.3393,
12.148717,-0.3700,0.4689,-3.0154,0.1126,0.3787,0.2298,
12.157420,-0.3700,0.4689,-3.0154,0.1126,0.3787,0.2298,
12.158599,-2.9270,0.1729,-1.3991,0.1126,0.3787,0.2298,
12.213903,-2.9270,0.1729,-1.3991,0.4724,0.7227,0.2497,
12.222751,-2.9270,0.1729,-1.3991,0.4724,0.7227,0.2497,
12.223256,0.7157,-1.6323,0.1705,0.4724,0.7227,0.2497,
12.280902,0.7157,-1.6323,0.1705,1.3925,1.3317,-0.3244,
12.289750,0.7157,-1.6323,0.1705,1.3925,1.3317,-0.3244,
12.291364,0.4157,-2.6515,0.4329,1.3925,1.3317,-0.3244,
12.346498,0.4157,-2.6515,0.4329,1.8225,0.3697,-0.6796,
12.354153,0.4157,-2.6515,0.4329,1.8225,0.3697,-0.6796,
12.354582,-0.5313,-0.1206,-0.8694,1.8225,0.3697,-0.6796,
12.413169,-0.5313,-0.1206,-0.8694,1.0566,1.1090,-0.3528,
12.421403,-0.5313,-0.1206,-0.8694,1.0566,1.1090,-0.3528,
12.421873,-0.8443,-0.1361,0.3226,1.0566,1.1090,-0.3528,
12.477151,-0.8443,-0.1361,0.3226,0.5728,0.5205,-0.1521,
12.486190,-0.8443,-0.1361,0.3226,0.5728,0.5205,-0.1521,
12.487252,0.8513,0.6168,1.9052,0.5728,0.5205,-0.1521,
12.541522,0.8513,0.6168,1.9052,0.6429,0.5576,-0.2485,
12.549442,0.8513,0.6168,1.9052,0.6429,0.5576,-0.2485,
12.550233,0.6046,2.3170,0.8975,0.6429,0.5576,-0.2485,
12.608272,0.6046,2.3170,0.8975,0.3093,0.5765,-0.1947,
12.617867,0.6046,2.3170,0.8975,0.3093,0.5765,-0.1947,
12.619390,1.7332,-0.0115,-2.1767,0.3093,0.5765,-0.1947,
12.675044,1.7332,-0.0115,-2.1767,0.5444,1.1660,-0.1568,
12.682532,1.7332,-0.0115,-2.1767,0.5444,1.1660,-0.1568,
12.683565,0.5475,-3.0682,-3.2400,0.5444,1.1660,-0.1568,
12.739111,0.5475,-3.0682,-3.2400,0.7219,0.3780,-0.3839,
12.747765,0.5475,-3.0682,-3.2400,0.7219,0.3780,-0.3839,
12.748266,0.4472,-2.7978,-1.8750,0.7219,0.3780,-0.3839,
12.804881,0.4472,-2.7978,-1.8750,1.1655,-0.0898,-0.4870,
12.812113,0.4472,-2.7978,-1.8750,1.1655,-0.0898,-0.4870,
12.812545,-0.2211,0.2210,-0.4508,1.1655,-0.0898,-0.4870,
12.869331,-0.2211,0.2210,-0.4508,0.3231,0.1122,-0.3050,
12.877358,-0.2211,0.2210,-0.4508,0.3231,0.1122,-0.3050,
12.878124,-1.0525,-0.4071,0.0685,0.3231,0.1122,-0.3050,
12.934677,-1.0525,-0.4071,0.0685,0.0565,-0.1292,0.0023,
12.942414,-1.0525,-0.4071,0.0685,0.0565,-0.1292,0.0023,
12.943557,0.8503,-1.8021,0.5180,0.0565,-0.1292,0.0023,
13.001320,0.8503,-1.8021,0.5180,-0.1920,-0.0599,-0.0031,
13.007879,0.8503,-1.8021,0.5180,-0.1920,-0.0599,-0.0031,
13.009001,2.4050,-1.5685,0.9002,-0.1920,-0.0599,-0.0031,
13.065924,2.4050,-1.5685,0.9002,-0.3470,0.1188,0.2462,
13.073478,2.4050,-1.5685,0.9002,-0.3470,0.1188,0.2462,
13.073953,2.9827,-1.4165,1.3314,-0.3470,0.1188,0.2462,
13.133811,2.9827,-1.4165,1.3314,0.1735,0.5354,0.4771,
13.139794,2.9827,-1.4165,1.3314,0.1735,0.5354,0.4771,
13.141455,3.0271,0.4327,-1.5912,0.1735,0.5354,0.4771,
13.196574,3.0271,0.4327,-1.5912,0.1622,0.3992,0.1886,
13.205390,3.0271,0.4327,-1.5912,0.1622,0.3992,0.1886,
13.206121,-2.3276,-0.2875,-2.3769,0.1622,0.3992,0.1886,
13.262965,-2.3276,-0.2875,-2.3769,0.3529,0.4989,0.3490,
13.270535,-2.3276,-0.2875,-2.3769,0.3529,0.4989,0.3490,
13.270992,-1.9510,1.0210,-1.5321,0.3529,0.4989,0.3490,
13.328802,-1.9510,1.0210,-1.5321,0.7978,0.8031,0.1280,
13.337507,-1.9510,1.0210,-1.5321,0.7978,0.8031,0.1280,
13.338807,1.3427,-1.5843,0.6400,0.7978,0.8031,0.1280,
13.396090,1.3427,-1.5843,0.6400,1.3679,1.1344,-0.3131,
13.402555,1.3427,-1.5843,0.6400,1.3679,1.1344,-0.3131,
13.403587,0.6286,-2.4012,0.7727,1.3679,1.1344,-0.3131,
13.458437,0.6286,-2.4012,0.7727,1.6625,0.6318,-0.7359,
13.468336,0.6286,-2.4012,0.7727,1.6625,0.6318,-0.7359,
13.469356,-0.7073,0.2887,-0.1064,1.6625,0.6318,-0.7359,
13.524871,-0.7073,0.2887,-0.1064,0.9354,1.2801,-0.2396,
13.533054,-0.7073,0.2887,-0.1064,0.9354,1.2801,-0.2396,
13.534195,-0.7119,-0.6603,0.0090,0.9354,1.2801,-0.2396,
13.590352,-0.7119,-0.6603,0.0090,0.5140,0.6122,-0.0270,
13.598503,-0.7119,-0.6603,0.0090,0.5140,0.6122,-0.0270,
13.599626,1.1229,0.7468,1.9633,0.5140,0.6122,-0.0270,
13.655886,1.1229,0.7468,1.9633,0.5997,0.5113,-0.1298,
13.664902,1.1229,0.7468,1.9633,0.5997,0.5113,-0.1298,
13.666609,1.8788,2.4600,1.5446,0.5997,0.5113,-0.1298,
13.722140,1.8788,2.4600,1.5446,0.3665,0.2363,-0.1312,
13.736837,1.8788,2.4600,1.5446,0.3665,0.2363,-0.1312,
13.737807,1.2213,0.0464,-1.9944,0.3665,0.2363,-0.1312,
13.785332,1.2213,0.0464,-1.9944,0.7051,0.9169,-0.0548,
13.794542,1.2213,0.0464,-1.9944,0.7051,0.9169,-0.0548,
13.795264,-1.1319,-2.1909,-4.0710,0.7051,0.9169,-0.0548,
13.851752,-1.1319,-2.1909,-4.0710,0.2558,0.5296,-0.1593,
13.860100,-1.1319,-2.1909,-4.0710,0.2558,0.5296,-0.1593,
13.861106,0.2766,-1.2174,-1.4318,0.2558,0.5296,-0.1593,
13.917291,0.2766,-1.2174,-1.4318,0.5715,-0.5244,-0.2343,
13.925728,0.2766,-1.2174,-1.4318,0.5715,-0.5244,-0.2343,
13.926950,-1.2303,0.2134,-0.0860,0.5715,-0.5244,-0.2343,
13.982538,-1.2303,0.2134,-0.0860,-0.0412,-0.1834,-0.1445,
13.990892,-1.2303,0.2134,-0.0860,-0.0412,-0.1834,-0.1445,
13.991948,-2.2869,-1.3207,-0.0794,-0.0412,-0.1834,-0.1445,
14.049060,-2.2869,-1.3207,-0.0794,-0.0764,-0.5483,0.2262,
14.056870,-2.2869,-1.3207,-0.0794,-0.0764,-0.5483,0.2262,
14.057596,0.4369,-1.7863,0.9045,-0.0764,-0.5483,0.2262,
14.114565,0.4369,-1.7863,0.9045,0.0154,-0.5531,0.0869,
14.122248,0.4369,-1.7863,0.9045,0.0154,-0.5531,0.0869,
14.122742,3.7691,-0.1804,1.4008,0.0154,-0.5531,0.0869,
14.179084,3.7691,-0.1804,1.4008,-0.6154,0.1804,0.1483,
14.187927,3.7691,-0.1804,1.4008,-0.6154,0.1804,0.1483,
14.189014,2.8656,-0.6368,1.3135,-0.6154,0.1804,0.1483,
14.245438,2.8656,-0.6368,1.3135,-0.0690,0.4184,0.3285,
14.252852,2.8656,-0.6368,1.3135,-0.0690,0.4184,0.3285,
14.254452,1.7306,0.5022,-1.5113,-0.0690,0.4184,0.3285,
14.317512,1.7306,0.5022,-1.5113,0.1100,0.1132,0.1093,
14.320477,1.7306,0.5022,-1.5113,0.1100,0.1132,0.1093,
14.321468,-2.9590,-0.4033,-2.4054,0.1100,0.1132,0.1093,
14.375946,-2.9590,-0.4033,-2.4054,0.3940,0.2375,0.2431,
14.385006,-2.9590,-0.4033,-2.4054,0.3940,0.2375,0.2431,
14.387842,-1.9568,0.8975,-1.0584,0.3940,0.2375,0.2431,
14.442409,-1.9568,0.8975,-1.0584,0.6607,0.5270,-0.0412,
14.449348,-1.9568,0.8975,-1.0584,0.6607,0.5270,-0.0412,
14.450479,2.2258,-1.7439,0.9641,0.6607,0.5270,-0.0412,
14.508167,2.2258,-1.7439,0.9641,1.1451,0.6724,-0.5182,
14.515931,2.2258,-1.7439,0.9641,1.1451,0.6724,-0.5182,
14.517352,-0.0161,-1.1338,1.0096,1.1451,0.6724,-0.5182,
14.572586,-0.0161,-1.1338,1.0096,1.3427,0.6829,-0.8056,
14.579455,-0.0161,-1.1338,1.0096,1.3427,0.6829,-0.8056,
14.580115,-1.6738,-0.0231,-0.0534,1.3427,0.6829,-0.8056,
14.638242,-1.6738,-0.0231,-0.0534,0.6255,1.0904,-0.0622,
14.645077,-1.6738,-0.0231,-0.0534,0.6255,1.0904,-0.0622,
14.645546,-0.0223,-0.3973,0.7028,0.6255,1.0904,-0.0622,
14.703658,-0.0223,-0.3973,0.7028,0.1834,0.1121,-0.0958,
14.712575,-0.0223,-0.3973,0.7028,0.1834,0.1121,-0.0958,
14.713117,1.2011,1.9254,2.8608,0.1834,0.1121,-0.0958,
14.769330,1.2011,1.9254,2.8608,0.2046,0.9759,0.0431,
14.777179,1.2011,1.9254,2.8608,0.2046,0.9759,0.0431,
14.777900,2.8978,2.7778,0.9220,0.2046,0.9759,0.0431,
14.834356,2.8978,2.7778,0.9220,0.5954,-0.0524,-0.3827,
14.842778,2.8978,2.7778,0.9220,0.5954,-0.0524,-0.3827,
14.843514,0.0501,-0.4551,-3.4850,0.5954,-0.0524,-0.3827,
14.899278,0.0501,-0.4551,-3.4850,0.0484,1.0014,0.0615,
14.906815,0.0501,-0.4551,-3.4850,0.0484,1.0014,0.0615,
14.907390,-1.6490,-2.4217,-3.8964,0.0484,1.0014,0.0615,
14.964090,-1.6490,-2.4217,-3.8964,-0.0922,0.1836,-0.1523,
14.972079,-1.6490,-2.4217,-3.8964,-0.0922,0.1836,-0.1523,
14.972532,0.2679,-0.5193,-0.2868,-0.0922,0.1836,-0.1523,
15.029301,0.2679,-0.5193,-0.2868,0.1500,-0.5985,-0.1681,
15.038091,0.2679,-0.5193,-0.2868,0.1500,-0.5985,-0.1681,
15.038940,-1.0900,-0.3468,0.2961,0.1500,-0.5985,-0.1681,
15.095665,-1.0900,-0.3468,0.2961,-0.2834,-0.0229,-0.0409,
15.104180,-1.0900,-0.3468,0.2961,-0.2834,-0.0229,-0.0409,
15.104875,-1.5288,-1.9488,0.2911,-0.2834,-0.0229,-0.0409,
15.161391,-1.5288,-1.9488,0.2911,0.1668,-0.5402,0.0609,
15.169249,-1.5288,-1.9488,0.2911,0.1668,-0.5402,0.0609,
15.170326,1.3068,-1.5952,0.5637,0.1668,-0.5402,0.0609,
15.228466,1.3068,-1.5952,0.5637,-0.3044,-0.6704,-0.0232,
15.235232,1.3068,-1.5952,0.5637,-0.3044,-0.6704,-0.0232,
15.235709,2.1699,0.1175,1.3063,-0.3044,-0.6704,-0.0232,
15.293247,2.1699,0.1175,1.3063,-0.4516,0.3242,0.3057,
15.300628,2.1699,0.1175,1.3063,-0.4516,0.3242,0.3057,
15.301097,2.5633,-0.7437,1.1339,-0.4516,0.3242,0.3057,
15.358759,2.5633,-0.7437,1.1339,0.0922,0.1455,0.4707,
15.365419,2.5633,-0.7437,1.1339,0.0922,0.1455,0.4707,
15.366499,0.9760,0.1628,-2.0786,0.0922,0.1455,0.4707,
15.422975,0.9760,0.1628,-2.0786,0.3531,0.1387,0.1249,
15.431078,0.9760,0.1628,-2.0786,0.3531,0.1387,0.1249,
15.433354,-3.0905,0.8025,-1.9846,0.3531,0.1387,0.1249,
15.487883,-3.0905,0.8025,-1.9846,0.5304,0.3219,0.2140,
15.498128,-3.0905,0.8025,-1.9846,0.5304,0.3219,0.2140,
15.500174,0.4616,1.4128,-0.2985,0.5304,0.3219,0.2140,
15.555417,0.4616,1.4128,-0.2985,0.5512,0.7472,-0.0994,
15.563908,0.4616,1.4128,-0.2985,0.5512,0.7472,-0.0994,
15.565237,0.3624,-2.0739,0.7938,0.5512,0.7472,-0.0994,
15.621564,0.3624,-2.0739,0.7938,1.2960,0.4516,-0.4994,
15.628050,0.3624,-2.0739,0.7938,1.2960,0.4516,-0.4994,
15.629611,-1.1317,-1.0796,0.0429,1.2960,0.4516,-0.4994,
15.685879,-1.1317,-1.0796,0.0429,1.1054,0.4896,-0.5429,
15.694600,-1.1317,-1.0796,0.0429,1.1054,0.4896,-0.5429,
15.695546,-1.6854,0.9600,0.4450,1.1054,0.4896,-0.5429,
15.751632,-1.6854,0.9600,0.4450,0.0929,0.7205,0.1327,
15.758632,-1.6854,0.9600,0.4450,0.0929,0.7205,0.1327,
15.760030,0.8788,0.0729,1.7648,0.0929,0.7205,0.1327,
15.816887,0.8788,0.0729,1.7648,0.3076,0.0797,-0.1681,
15.824592,0.8788,0.0729,1.7648,0.3076,0.0797,-0.1681,
15.825911,0.6663,1.3645,2.5608,0.3076,0.0797,-0.1681,
15.882705,0.6663,1.3645,2.5608,0.1084,0.9688,-0.0338,
15.890471,0.6663,1.3645,2.5608,0.1084,0.9688,-0.0338,
15.891374,3.3904,2.8930,0.3175,0.1084,0.9688,-0.0338,
15.947426,3.3904,2.8930,0.3175,0.5392,0.2401,-0.3651,
15.956751,3.3904,2.8930,0.3175,0.5392,0.2401,-0.3651,
15.957888,-0.8382,-1.4813,-3.5389,0.5392,0.2401,-0.3651,
16.012609,-0.8382,-1.4813,-3.5389,0.1390,0.7776,-0.0509,
16.020278,-0.8382,-1.4813,-3.5389,0.1390,0.7776,-0.0509,
16.020650,-0.5192,-2.2764,-3.3242,0.1390,0.7776,-0.0509,
16.079973,-0.5192,-2.2764,-3.3242,0.3743,-0.3164,-0.3349,
16.087610,-0.5192,-2.2764,-3.3242,0.3743,-0.3164,-0.3349,
16.088421,-0.1621,0.5422,0.4912,0.3743,-0.3164,-0.3349,
16.144443,-0.1621,0.5422,0.4912,-0.0612,-0.3166,-0.1446,
16.151449,-0.1621,0.5422,0.4912,-0.0612,-0.3166,-0.1446,
16.152805,-1.6958,-0.5470,-0.0099,-0.0612,-0.3166,-0.1446,
16.210726,-1.6958,-0.5470,-0.0099,-0.4435,-0.2834,0.0574,
16.218169,-1.6958,-0.5470,-0.0099,-0.4435,-0.2834,0.0574,
16.218605,-1.5044,-2.1465,0.6736,-0.4435,-0.2834,0.0574,
16.277771,-1.5044,-2.1465,0.6736,0.1358,-0.6654,0.1214,
16.285866,-1.5044,-2.1465,0.6736,0.1358,-0.6654,0.1214,
16.286595,1.8874,-1.2910,0.6549,0.1358,-0.6654,0.1214,
16.341304,1.8874,-1.2910,0.6549,-0.6571,-0.4330,0.1014,
16.349705,1.8874,-1.2910,0.6549,-0.6571,-0.4330,0.1014,
16.350845,3.0513,-0.3181,1.4603,-0.6571,-0.4330,0.1014,
16.404801,3.0513,-0.3181,1.4603,-0.0533,0.5179,0.4357,
16.414243,3.0513,-0.3181,1.4603,-0.0533,0.5179,0.4357,
16.415641,2.9809,-0.2692,0.0894,-0.0533,0.5179,0.4357,
16.472158,2.9809,-0.2692,0.0894,0.1294,-0.1231,0.3589,
16.479143,2.9809,-0.2692,0.0894,0.1294,-0.1231,0.3589,
16.480228,-0.8732,0.5540,-2.4465,0.1294,-0.1231,0.3589,
16.537047,-0.8732,0.5540,-2.4465,0.2685,0.2422,0.1952,
16.544139,-0.8732,0.5540,-2.4465,0.2685,0.2422,0.1952,
16.544616,-2.7467,1.5385,-1.3126,0.2685,0.2422,0.1952,
16.601962,-2.7467,1.5385,-1.3126,0.4688,0.5234,0.0353,
16.610381,-2.7467,1.5385,-1.3126,0.4688,0.5234,0.0353,
16.611526,1.1685,-0.3196,0.6790,0.4688,0.5234,0.0353,
16.666818,1.1685,-0.3196,0.6790,0.8778,0.7324,-0.2778,
16.675938,1.1685,-0.3196,0.6790,0.8778,0.7324,-0.2778,
16.677011,-0.3251,-2.1409,0.7520,0.8778,0.7324,-0.2778,
16.733403,-0.3251,-2.1409,0.7520,1.2567,0.2476,-0.6049,
16.741418,-0.3251,-2.1409,0.7520,1.2567,0.2476,-0.6049,
16.741866,-1.1405,-0.4554,0.1581,1.2567,0.2476,-0.6049,
16.798258,-1.1405,-0.4554,0.1581,0.8210,0.9126,-0.3487,
16.806288,-1.1405,-0.4554,0.1581,0.8210,0.9126,-0.3487,
16.806874,-0.5635,0.4615,0.7344,0.8210,0.9126,-0.3487,
16.863041,-0.5635,0.4615,0.7344,0.0918,0.5223,0.1348,
16.873462,-0.5635,0.4615,0.7344,0.0918,0.5223,0.1348,
16.874295,1.1602,0.6631,1.6792,0.0918,0.5223,0.1348,
16.930841,1.1602,0.6631,1.6792,0.3525,0.1576,-0.0110,
16.938074,1.1602,0.6631,1.6792,0.3525,0.1576,-0.0110,
16.938795,0.4933,2.3772,1.8823,0.3525,0.1576,-0.0110,
16.994956,0.4933,2.3772,1.8823,0.1321,0.3329,0.1112,
17.002565,0.4933,2.3772,1.8823,0.1321,0.3329,0.1112,
17.003502,2.1603,1.2421,-2.0688,0.1321,0.3329,0.1112,
17.061597,2.1603,1.2421,-2.0688,0.1808,0.7266,-0.0805,
17.068130,2.1603,1.2421,-2.0688,0.1808,0.7266,-0.0805,
17.068675,-1.1963,-2.2825,-3.0941,0.1808,0.7266,-0.0805,
17.126498,-1.1963,-2.2825,-3.0941,0.4496,0.2963,-0.2007,
17.132954,-1.1963,-2.2825,-3.0941,0.4496,0.2963,-0.2007,
17.134390,-0.1021,-1.3748,-2.6517,0.4496,0.2963,-0.2007,
17.190708,-0.1021,-1.3748,-2.6517,0.3699,-0.6385,-0.1104,
17.198962,-0.1021,-1.3748,-2.6517,0.3699,-0.6385,-0.1104,
17.200104,-0.3189,0.6778,0.1749,0.3699,-0.6385,-0.1104,
17.257494,-0.3189,0.6778,0.1749,-0.3206,-0.0528,-0.0281,
17.265556,-0.3189,0.6778,0.1749,-0.3206,-0.0528,-0.0281,
17.267108,-1.8460,-1.3904,0.4407,-0.3206,-0.0528,-0.0281,
17.322488,-1.8460,-1.3904,0.4407,-0.2769,-0.2822,0.0809,
17.329733,-1.8460,-1.3904,0.4407,-0.2769,-0.2822,0.0809,
17.331106,-0.4059,-2.3508,0.6362,-0.2769,-0.2822,0.0809,
17.387480,-0.4059,-2.3508,0.6362,-0.0623,-0.6764,0.0139,
17.398385,-0.4059,-2.3508,0.6362,-0.0623,-0.6764,0.0139,
17.400032,2.5752,-0.2343,1.5528,-0.0623,-0.6764,0.0139,
17.451350,2.5752,-0.2343,1.5528,-0.7420,0.0866,0.1251,
17.460587,2.5752,-0.2343,1.5528,-0.7420,0.0866,0.1251,
17.461659,2.8355,-0.8401,1.5222,-0.7420,0.0866,0.1251,
17.519322,2.8355,-0.8401,1.5222,0.0838,0.5168,0.4378,
17.527713,2.8355,-0.8401,1.5222,0.0838,0.5168,0.4378,
17.529140,2.0918,0.5682,-1.9956,0.0838,0.5168,0.4378,
17.582606,2.0918,0.5682,-1.9956,0.0505,-0.1828,0.1674,
17.593187,2.0918,0.5682,-1.9956,0.0505,-0.1828,0.1674,
17.593677,-2.8585,0.6502,-2.5132,0.0505,-0.1828,0.1674,
17.649908,-2.8585,0.6502,-2.5132,0.3231,0.4151,0.1315,
17.657351,-2.8585,0.6502,-2.5132,0.3231,0.4151,0.1315,
17.658455,-0.3148,0.8594,-0.2030,0.3231,0.4151,0.1315,
17.716605,-0.3148,0.8594,-0.2030,0.7556,0.7104,-0.2595,
17.724319,-0.3148,0.8594,-0.2030,0.7556,0.7104,-0.2595,
17.725725,0.6133,-2.4925,1.3222,0.7556,0.7104,-0.2595,
17.782732,0.6133,-2.4925,1.3222,1.7045,0.3135,-0.5657,
17.790249,0.6133,-2.4925,1.3222,1.7045,0.3135,-0.5657,
17.791608,-0.9638,-1.2574,0.1476,1.7045,0.3135,-0.5657,
17.847161,-0.9638,-1.2574,0.1476,1.4206,0.6732,-0.5982,
17.854330,-0.9638,-1.2574,0.1476,1.4206,0.6732,-0.5982,
17.855547,-1.2128,0.3160,-0.2447,1.4206,0.6732,-0.5982,
17.912609,-1.2128,0.3160,-0.2447,0.3838,0.9400,0.1162,
17.919836,-1.2128,0.3160,-0.2447,0.3838,0.9400,0.1162,
17.921199,1.3009,0.3022,1.5505,0.3838,0.9400,0.1162,
17.976202,1.3009,0.3022,1.5505,0.3650,-0.1321,-0.2078,
17.984348,1.3009,0.3022,1.5505,0.3650,-0.1321,-0.2078,
17.985223,0.7467,2.2172,2.5569,0.3650,-0.1321,-0.2078,
18.043784,0.7467,2.2172,2.5569,0.1455,0.8085,0.1811,
18.051327,0.7467,2.2172,2.5569,0.1455,0.8085,0.1811,
18.052688,2.3863,2.7014,-1.0005,0.1455,0.8085,0.1811,
18.106302,2.3863,2.7014,-1.0005,0.5669,-0.2300,-0.4766,
18.114847,2.3863,2.7014,-1.0005,0.5669,-0.2300,-0.4766,
18.115493,-1.8622,-1.2135,-4.5786,0.5669,-0.2300,-0.4766,
18.174583,-1.8622,-1.2135,-4.5786,-0.0237,0.8789,-0.0180,
18.182733,-1.8622,-1.2135,-4.5786,-0.0237,0.8789,-0.0180,
18.184196,-0.2653,-0.8557,-4.1053,-0.0237,0.8789,-0.0180,
18.239126,-0.2653,-0.8557,-4.1053,-0.4953,-0.6978,-0.1851,
18.249116,-0.2653,-0.8557,-4.1053,-0.4953,-0.6978,-0.1851,
18.250970,0.3799,0.0368,0.9004,-0.4953,-0.6978,-0.1851,
18.304196,0.3799,0.0368,0.9004,-0.5409,-0.0939,-0.1361,
18.315433,0.3799,0.0368,0.9004,-0.5409,-0.0939,-0.1361,
18.317191,-2.6827,-1.9615,0.6499,-0.5409,-0.0939,-0.1361,
18.369226,-2.6827,-1.9615,0.6499,0.0754,-0.2376,0.1381,
18.377541,-2.6827,-1.9615,0.6499,0.0754,-0.2376,0.1381,
18.379019,-0.7151,-2.2423,0.5230,0.0754,-0.2376,0.1381,
18.435978,-0.7151,-2.2423,0.5230,0.3454,-0.5986,0.1264,
18.444492,-0.7151,-2.2423,0.5230,0.3454,-0.5986,0.1264,
18.445601,2.4286,-0.0503,1.0391,0.3454,-0.5986,0.1264,
18.500735,2.4286,-0.0503,1.0391,-0.4461,0.0105,0.1715,
18.510995,2.4286,-0.0503,1.0391,-0.4461,0.0105,0.1715,
18.512339,2.1037,0.0798,1.5768,-0.4461,0.0105,0.1715,
18.566579,2.1037,0.0798,1.5768,0.0472,0.1979,0.5231,
18.573579,2.1037,0.0798,1.5768,0.0472,0.1979,0.5231,
18.574383,2.2781,1.1948,-0.6778,0.0472,0.1979,0.5231,
18.633066,2.2781,1.1948,-0.6778,-0.3948,-0.0009,0.3320,
18.642323,2.2781,1.1948,-0.6778,-0.3948,-0.0009,0.3320,
18.643514,-2.1044,0.1449,-1.5519,-0.3948,-0.0009,0.3320,
18.697800,-2.1044,0.1449,-1.5519,0.4372,0.2671,0.1888,
18.706530,-2.1044,0.1449,-1.5519,0.4372,0.2671,0.1888,
18.707268,-2.9906,0.9762,-1.5143,0.4372,0.2671,0.1888,
18.763776,-2.9906,0.9762,-1.5143,0.5092,0.2289,0.0841,
18.770682,-2.9906,0.9762,-1.5143,0.5092,0.2289,0.0841,
18.771448,1.2596,0.9863,0.1329,0.5092,0.2289,0.0841,
18.829374,1.2596,0.9863,0.1329,0.3120,0.2376,-0.1640,
18.837005,1.2596,0.9863,0.1329,0.3120,0.2376,-0.1640,
18.837477,-0.2203,-1.3780,1.2704,0.3120,0.2376,-0.1640,
18.892971,-0.2203,-1.3780,1.2704,0.8882,-0.1556,-0.5983,
18.901862,-0.2203,-1.3780,1.2704,0.8882,-0.1556,-0.5983,
18.903141,-1.8047,-0.3056,0.5219,0.8882,-0.1556,-0.5983,
18.958800,-1.8047,-0.3056,0.5219,0.5483,0.5067,-0.3227,
18.967058,-1.8047,-0.3056,0.5219,0.5483,0.5067,-0.3227,
18.967567,-0.7613,0.5758,0.8648,0.5483,0.5067,-0.3227,
19.024969,-0.7613,0.5758,0.8648,0.0312,0.2628,0.0078,
19.033261,-0.7613,0.5758,0.8648,0.0312,0.2628,0.0078,
19.034613,1.1490,0.9179,2.0895,0.0312,0.2628,0.0078,
19.090531,1.1490,0.9179,2.0895,0.3348,-0.2818,-0.3882,
19.097703,1.1490,0.9179,2.0895,0.3348,-0.2818,-0.3882,
19.098944,0.3420,2.2979,1.7541,0.3348,-0.2818,-0.3882,
19.157125,0.3420,2.2979,1.7541,-0.4238,0.3778,0.0822,
19.164486,0.3420,2.2979,1.7541,-0.4238,0.3778,0.0822,
19.165782,2.2167,1.9733,-1.3366,-0.4238,0.3778,0.0822,
19.222353,2.2167,1.9733,-1.3366,0.0244,0.4783,-0.2170,
19.229700,2.2167,1.9733,-1.3366,0.0244,0.4783,-0.2170,
19.230380,-1.4854,-2.0355,-3.4403,0.0244,0.4783,-0.2170,
19.284975,-1.4854,-2.0355,-3.4403,-0.0527,0.4606,-0.1289,
19.294473,-1.4854,-2.0355,-3.4403,-0.0527,0.4606,-0.1289,
19.295709,0.1817,-1.8762,-2.5477,-0.0527,0.4606,-0.1289,
19.352206,0.1817,-1.8762,-2.5477,0.1497,-0.6419,-0.2045,
19.359469,0.1817,-1.8762,-2.5477,0.1497,-0.6419,-0.2045,
19.359946,-0.1647,0.8787,0.1778,0.1497,-0.6419,-0.2045,
19.418135,-0.1647,0.8787,0.1778,-0.4615,-0.2686,-0.0513,
19.425964,-0.1647,0.8787,0.1778,-0.4615,-0.2686,-0.0513,
19.427353,-2.4411,-1.0374,-0.1693,-0.4615,-0.2686,-0.0513,
19.483177,-2.4411,-1.0374,-0.1693,-0.4705,-0.4391,0.2030,
19.490721,-2.4411,-1.0374,-0.1693,-0.4705,-0.4391,0.2030,
19.491693,-0.7679,-2.1005,0.6699,-0.4705,-0.4391,0.2030,
19.548469,-0.7679,-2.1005,0.6699,0.1575,-0.6518,0.0680,
19.557111,-0.7679,-2.1005,0.6699,0.1575,-0.6518,0.0680,
19.557691,2.5932,-0.6636,1.2521,0.1575,-0.6518,0.0680,
19.613934,2.5932,-0.6636,1.2521,-0.5153,-0.4530,0.1582,
19.625080,2.5932,-0.6636,1.2521,-0.5153,-0.4530,0.1582,
19.627342,2.7533,0.3221,2.0239,-0.5153,-0.4530,0.1582,
19.680682,2.7533,0.3221,2.0239,-0.3202,0.2975,0.3945,
19.688529,2.7533,0.3221,2.0239,-0.3202,0.2975,0.3945,
19.689352,1.8646,0.9320,-0.1304,-0.3202,0.2975,0.3945,
19.745350,1.8646,0.9320,-0.1304,-0.3968,-0.1591,0.4244,
19.753332,1.8646,0.9320,-0.1304,-0.3968,-0.1591,0.4244,
19.754554,-1.8057,0.3100,-2.3913,-0.3968,-0.1591,0.4244,
19.809854,-1.8057,0.3100,-2.3913,0.1663,0.1132,0.2422,
19.817948,-1.8057,0.3100,-2.3913,0.1663,0.1132,0.2422,
19.818880,-3.0103,0.8755,-1.5976,0.1663,0.1132,0.2422,
19.875667,-3.0103,0.8755,-1.5976,0.3891,0.3592,0.1538,
19.885470,-3.0103,0.8755,-1.5976,0.3891,0.3592,0.1538,
19.887041,1.1495,-0.0928,0.3934,0.3891,0.3592,0.1538,
19.942361,1.1495,-0.0928,0.3934,0.5424,0.7069,-0.1655,
19.950608,1.1495,-0.0928,0.3934,0.5424,0.7069,-0.1655,
19.951335,0.2241,-2.2902,0.8821,0.5424,0.7069,-0.1655,
20.006515,0.2241,-2.2902,0.8821,1.4375,-0.0631,-0.6979,
20.014703,0.2241,-2.2902,0.8821,1.4375,-0.0631,-0.6979,
20.015262,-1.2953,-0.2444,-0.0403,1.4375,-0.0631,-0.6979,
20.072509,-1.2953,-0.2444,-0.0403,0.7666,0.6654,-0.3830,
20.082205,-1.2953,-0.2444,-0.0403,0.7666,0.6654,-0.3830,
20.083729,-1.0812,0.6787,0.5632,0.7666,0.6654,-0.3830,
20.138399,-1.0812,0.6787,0.5632,-0.0356,0.5568,0.1556,
20.145866,-1.0812,0.6787,0.5632,-0.0356,0.5568,0.1556,
20.146454,1.7705,0.0885,2.4160,-0.0356,0.5568,0.1556,
20.201509,1.7705,0.0885,2.4160,0.4937,0.0163,-0.2025,
20.210800,1.7705,0.0885,2.4160,0.4937,0.0163,-0.2025,
20.211303,1.0425,1.8955,1.7068,0.4937,0.0163,-0.2025,
20.268245,1.0425,1.8955,1.7068,0.1264,0.2917,-0.0881,
20.276734,1.0425,1.8955,1.7068,0.1264,0.2917,-0.0881,
20.277336,1.6000,2.1144,-1.5031,0.1264,0.2917,-0.0881,
20.334160,1.6000,2.1144,-1.5031,0.2091,0.5589,-0.2735,
20.342165,1.6000,2.1144,-1.5031,0.2091,0.5589,-0.2735,
20.343007,-1.7964,-1.7012,-3.8175,0.2091,0.5589,-0.2735,
20.397960,-1.7964,-1.7012,-3.8175,-0.0799,0.8074,-0.1871,
20.409250,-1.7964,-1.7012,-3.8175,-0.0799,0.8074,-0.1871,
20.410272,0.4203,-1.7556,-2.2046,-0.0799,0.8074,-0.1871,
20.465832,0.4203,-1.7556,-2.2046,0.2373,-0.5988,-0.2308,
20.473636,0.4203,-1.7556,-2.2046,0.2373,-0.5988,-0.2308,
20.474765,-0.4325,0.1826,0.3115,0.2373,-0.5988,-0.2308,
20.530446,-0.4325,0.1826,0.3115,-0.3308,-0.2219,-0.0269,
20.538766,-0.4325,0.1826,0.3115,-0.3308,-0.2219,-0.0269,
20.539450,-2.5483,-1.2692,0.1459,-0.3308,-0.2219,-0.0269,
20.595033,-2.5483,-1.2692,0.1459,-0.0121,-0.4986,0.1758,
20.603764,-2.5483,-1.2692,0.1459,-0.0121,-0.4986,0.1758,
20.604469,-0.2359,-1.5862,0.3518,-0.0121,-0.4986,0.1758,
20.662659,-0.2359,-1.5862,0.3518,-0.0956,-0.5479,0.0822,
20.668873,-0.2359,-1.5862,0.3518,-0.0956,-0.5479,0.0822,
20.669330,2.8670,-0.4456,0.9478,-0.0956,-0.5479,0.0822,
20.727174,2.8670,-0.4456,0.9478,-0.6043,-0.2140,0.1318,
20.735017,2.8670,-0.4456,0.9478,-0.6043,-0.2140,0.1318,
20.736387,3.0368,-0.5247,1.6825,-0.6043,-0.2140,0.1318,
20.791268,3.0368,-0.5247,1.6825,-0.0832,0.3813,0.4252,
20.799303,3.0368,-0.5247,1.6825,-0.0832,0.3813,0.4252,
20.799880,2.3586,0.8818,-0.9209,-0.0832,0.3813,0.4252,
20.859151,2.3586,0.8818,-0.9209,-0.0849,-0.1374,0.2356,
20.867510,2.3586,0.8818,-0.9209,-0.0849,-0.1374,0.2356,
20.868565,-2.5887,0.6642,-1.9804,-0.0849,-0.1374,0.2356,
20.923231,-2.5887,0.6642,-1.9804,0.2144,0.1122,0.2442,
20.932694,-2.5887,0.6642,-1.9804,0.2144,0.1122,0.2442,
20.935129,-2.8827,1.5438,-1.3029,0.2144,0.1122,0.2442,
20.987709,-2.8827,1.5438,-1.3029,0.4611,0.5124,0.0279,
20.996756,-2.8827,1.5438,-1.3029,0.4611,0.5124,0.0279,
20.997690,0.7738,-0.7397,0.2856,0.4611,0.5124,0.0279,
21.054442,0.7738,-0.7397,0.2856,0.9165,0.5570,-0.3290,
21.062294,0.7738,-0.7397,0.2856,0.9165,0.5570,-0.3290,
21.063414,-0.4877,-2.2223,0.5465,0.9165,0.5570,-0.3290,
21.119929,-0.4877,-2.2223,0.5465,1.2304,-0.0967,-0.6614,
21.130527,-0.4877,-2.2223,0.5465,1.2304,-0.0967,-0.6614,
21.131924,-0.9269,0.2857,0.1376,1.2304,-0.0967,-0.6614,
21.185679,-0.9269,0.2857,0.1376,0.5990,0.7553,-0.2572,
21.193516,-0.9269,0.2857,0.1376,0.5990,0.7553,-0.2572,
21.193973,-0.5643,0.7077,0.8539,0.5990,0.7553,-0.2572,
21.250878,-0.5643,0.7077,0.8539,-0.0741,0.5092,0.1654,
21.258849,-0.5643,0.7077,0.8539,-0.0741,0.5092,0.1654,
21.259903,1.7043,0.4888,1.9782,-0.0741,0.5092,0.1654,
21.316657,1.7043,0.4888,1.9782,0.3202,0.2222,-0.1397,
21.325674,1.7043,0.4888,1.9782,0.3202,0.2222,-0.1397,
21.326328,1.3897,1.5687,1.6829,0.3202,0.2222,-0.1397,
21.382762,1.3897,1.5687,1.6829,-0.0191,0.4187,-0.0673,
21.389344,1.3897,1.5687,1.6829,-0.0191,0.4187,-0.0673,
21.390674,1.4710,1.5964,-1.0022,-0.0191,0.4187,-0.0673,
21.447359,1.4710,1.5964,-1.0022,0.3661,0.4166,-0.3552,
21.456072,1.4710,1.5964,-1.0022,0.3661,0.4166,-0.3552,
21.456576,-2.1961,-1.5947,-4.0222,0.3661,0.4166,-0.3552,
21.512445,-2.1961,-1.5947,-4.0222,0.0014,0.9953,-0.1348,
21.520856,-2.1961,-1.5947,-4.0222,0.0014,0.9953,-0.1348,
21.521743,0.2282,-1.8403,-2.8558,0.0014,0.9953,-0.1348,
21.580611,0.2282,-1.8403,-2.8558,0.3752,-0.5209,-0.1969,
21.586595,0.2282,-1.8403,-2.8558,0.3752,-0.5209,-0.1969,
21.587375,0.1710,0.3233,0.2230,0.3752,-0.5209,-0.1969,
21.643196,0.1710,0.3233,0.2230,-0.1750,-0.3664,-0.0473,
21.651673,0.1710,0.3233,0.2230,-0.1750,-0.3664,-0.0473,
21.652154,-2.6408,-0.7719,-0.2085,-0.1750,-0.3664,-0.0473,
21.709064,-2.6408,-0.7719,-0.2085,-0.2842,-0.4878,0.1939,
21.716939,-2.6408,-0.7719,-0.2085,-0.2842,-0.4878,0.1939,
21.717798,-0.8384,-1.7078,0.3889,-0.2842,-0.4878,0.1939,
21.775268,-0.8384,-1.7078,0.3889,0.0092,-0.6267,0.0797,
21.783579,-0.8384,-1.7078,0.3889,0.0092,-0.6267,0.0797,
21.785067,2.2529,-0.6662,0.7912,0.0092,-0.6267,0.0797,
21.840864,2.2529,-0.6662,0.7912,-0.7369,-0.3606,0.0964,
21.848168,2.2529,-0.6662,0.7912,-0.7369,-0.3606,0.0964,
21.848768,3.0337,-0.2384,1.1772,-0.7369,-0.3606,0.0964,
21.906791,3.0337,-0.2384,1.1772,-0.2552,0.4672,0.3135,
21.914832,3.0337,-0.2384,1.1772,-0.2552,0.4672,0.3135,
21.916503,3.1428,0.0085,-0.1668,-0.2552,0.4672,0.3135,
21.974212,3.1428,0.0085,-0.1668,-0.1264,0.0347,0.3112,
21.979898,3.1428,0.0085,-0.1668,-0.1264,0.0347,0.3112,
21.981249,-1.2710,-0.1266,-1.7757,-0.1264,0.0347,0.3112,
22.036592,-1.2710,-0.1266,-1.7757,0.1633,0.2934,0.2709,
22.044063,-1.2710,-0.1266,-1.7757,0.1633,0.2934,0.2709,
22.044554,-3.2653,0.3170,-1.5431,0.1633,0.2934,0.2709,
22.102568,-3.2653,0.3170,-1.5431,0.6590,0.5704,0.1994,
22.111296,-3.2653,0.3170,-1.5431,0.6590,0.5704,0.1994,
22.112418,1.0596,1.0165,-0.2048,0.6590,0.5704,0.1994,
22.169100,1.0596,1.0165,-0.2048,0.8286,0.6999,-0.2138,
22.176633,1.0596,1.0165,-0.2048,0.8286,0.6999,-0.2138,
22.177074,0.4456,-1.9655,0.2660,0.8286,0.6999,-0.2138,
22.232304,0.4456,-1.9655,0.2660,1.0942,0.4145,-0.4855,
22.242835,0.4456,-1.9655,0.2660,1.0942,0.4145,-0.4855,
22.244278,-0.9025,-0.7888,0.5224,1.0942,0.4145,-0.4855,
22.301110,-0.9025,-0.7888,0.5224,1.0354,0.7367,-0.4354,
22.306650,-0.9025,-0.7888,0.5224,1.0354,0.7367,-0.4354,
22.307201,-1.3041,0.3949,0.1954,1.0354,0.7367,-0.4354,
22.364913,-1.3041,0.3949,0.1954,0.2036,0.7446,0.0034,
22.374143,-1.3041,0.3949,0.1954,0.2036,0.7446,0.0034,
22.375084,0.8296,-0.3287,1.3380,0.2036,0.7446,0.0034,
22.429192,0.8296,-0.3287,1.3380,0.4797,0.0654,-0.2262,
22.437474,0.8296,-0.3287,1.3380,0.4797,0.0654,-0.2262,
22.437877,0.9413,1.5015,2.4934,0.4797,0.0654,-0.2262,
22.497811,0.9413,1.5015,2.4934,-0.0637,1.1047,0.1359,
22.504593,0.9413,1.5015,2.4934,-0.0637,1.1047,0.1359,
22.505287,3.2019,2.5732,0.1931,-0.0637,1.1047,0.1359,
22.560192,3.2019,2.5732,0.1931,0.4861,0.3812,-0.2760,
22.570192,3.2019,2.5732,0.1931,0.4861,0.3812,-0.2760,
22.571233,-0.8986,-1.3154,-3.5728,0.4861,0.3812,-0.2760,
22.625067,-0.8986,-1.3154,-3.5728,0.3155,0.8879,-0.0791,
22.632953,-0.8986,-1.3154,-3.5728,0.3155,0.8879,-0.0791,
22.633971,-0.6377,-2.1229,-3.6136,0.3155,0.8879,-0.0791,
22.691280,-0.6377,-2.1229,-3.6136,0.6208,-0.2827,-0.3134,
22.699589,-0.6377,-2.1229,-3.6136,0.6208,-0.2827,-0.3134,
22.700577,-0.0549,-0.2493,-0.0225,0.6208,-0.2827,-0.3134,
22.756991,-0.0549,-0.2493,-0.0225,0.1507,-0.5611,-0.2121,
22.765709,-0.0549,-0.2493,-0.0225,0.1507,-0.5611,-0.2121,
22.767293,-2.2049,-0.2962,0.3722,0.1507,-0.5611,-0.2121,
22.822371,-2.2049,-0.2962,0.3722,-0.0615,-0.3413,0.0683,
22.831775,-2.2049,-0.2962,0.3722,-0.0615,-0.3413,0.0683,
22.833212,-1.1244,-1.5596,0.8497,-0.0615,-0.3413,0.0683,
22.889700,-1.1244,-1.5596,0.8497,0.3462,-0.3583,0.0281,
22.899194,-1.1244,-1.5596,0.8497,0.3462,-0.3583,0.0281,
22.900683,2.4201,-1.3768,0.3247,0.3462,-0.3583,0.0281,
22.954806,2.4201,-1.3768,0.3247,-0.4943,-0.2892,0.0345,
22.962247,2.4201,-1.3768,0.3247,-0.4943,-0.2892,0.0345,
22.963535,2.7881,-0.1854,1.1988,-0.4943,-0.2892,0.0345,
23.020323,2.7881,-0.1854,1.1988,-0.3390,0.6431,0.3173,
23.027973,2.7881,-0.1854,1.1988,-0.3390,0.6431,0.3173,
23.029325,2.2934,0.1872,-0.3309,-0.3390,0.6431,0.3173,
23.083959,2.2934,0.1872,-0.3309,0.1559,0.2853,0.3687,
23.092493,2.2934,0.1872,-0.3309,0.1559,0.2853,0.3687,
23.093586,-0.8642,-0.7390,-2.4951,0.1559,0.2853,0.3687,
23.148878,-0.8642,-0.7390,-2.4951,0.7352,0.4604,0.2178,
23.157806,-0.8642,-0.7390,-2.4951,0.7352,0.4604,0.2178,
23.159039,-1.8593,1.0653,-2.2856,0.7352,0.4604,0.2178,
23.214451,-1.8593,1.0653,-2.2856,0.9181,0.6834,0.1025,
23.223769,-1.8593,1.0653,-2.2856,0.9181,0.6834,0.1025,
23.224939,1.2656,-0.5333,0.2467,0.9181,0.6834,0.1025,
23.280268,1.2656,-0.5333,0.2467,1.0125,1.0337,-0.2115,
23.289058,1.2656,-0.5333,0.2467,1.0125,1.0337,-0.2115,
23.289669,0.0932,-2.3800,0.7278,1.0125,1.0337,-0.2115,
23.346841,0.0932,-2.3800,0.7278,1.8970,0.7216,-0.6790,
23.355202,0.0932,-2.3800,0.7278,1.8970,0.7216,-0.6790,
23.355935,-0.7443,-0.9648,-0.5049,1.8970,0.7216,-0.6790,
23.413233,-0.7443,-0.9648,-0.5049,1.1405,1.1704,-0.3329,
23.420381,-0.7443,-0.9648,-0.5049,1.1405,1.1704,-0.3329,
23.421101,-0.6239,-0.4626,0.0530,1.1405,1.1704,-0.3329,
23.477869,-0.6239,-0.4626,0.0530,0.5348,0.4979,-0.0863,
23.486196,-0.6239,-0.4626,0.0530,0.5348,0.4979,-0.0863,
23.486886,0.3290,0.8525,1.6913,0.5348,0.4979,-0.0863,
23.542963,0.3290,0.8525,1.6913,0.7427,0.2642,-0.2680,
23.550352,0.3290,0.8525,1.6913,0.7427,0.2642,-0.2680,
23.551077,1.0361,2.3041,2.0463,0.7427,0.2642,-0.2680,
23.608177,1.0361,2.3041,2.0463,-0.2896,1.4765,0.2695,
23.615790,1.0361,2.3041,2.0463,-0.2896,1.4765,0.2695,
23.616938,4.6028,1.5249,-0.6195,-0.2896,1.4765,0.2695,
23.674122,4.6028,1.5249,-0.6195,1.2929,0.0722,-0.6362,
23.682348,4.6028,1.5249,-0.6195,1.2929,0.0722,-0.6362,
23.683302,-0.9432,-2.1765,-3.9063,1.2929,0.0722,-0.6362,
23.739710,-0.9432,-2.1765,-3.9063,0.8198,1.1089,-0.2068,
23.747802,-0.9432,-2.1765,-3.9063,0.8198,1.1089,-0.2068,
23.749091,-1.6436,-3.4388,-4.4263,0.8198,1.1089,-0.2068,
23.803502,-1.6436,-3.4388,-4.4263,0.5589,-0.0727,-0.2207,
23.812967,-1.6436,-3.4388,-4.4263,0.5589,-0.0727,-0.2207,
23.813768,-0.1245,0.6391,0.5042,0.5589,-0.0727,-0.2207,
23.869814,-0.1245,0.6391,0.5042,0.1758,-0.3650,-0.2115,
23.878637,-0.1245,0.6391,0.5042,0.1758,-0.3650,-0.2115,
23.879346,-1.5071,-0.0910,0.4691,0.1758,-0.3650,-0.2115,
23.934830,-1.5071,-0.0910,0.4691,-0.2694,0.2866,0.1613,
23.944395,-1.5071,-0.0910,0.4691,-0.2694,0.2866,0.1613,
23.945525,-0.5847,-1.5607,0.9509,-0.2694,0.2866,0.1613,
24.005188,-0.5847,-1.5607,0.9509,0.3636,-0.0538,0.0786,
24.009096,-0.5847,-1.5607,0.9509,0.3636,-0.0538,0.0786,
24.009778,2.1170,-1.5297,0.4324,0.3636,-0.0538,0.0786,
24.065520,2.1170,-1.5297,0.4324,-0.1565,-0.3896,-0.1097,
24.073522,2.1170,-1.5297,0.4324,-0.1565,-0.3896,-0.1097,
24.074155,1.7496,-0.4746,1.3156,-0.1565,-0.3896,-0.1097,
24.130672,1.7496,-0.4746,1.3156,-0.2848,-0.0217,0.1692,
24.141973,1.7496,-0.4746,1.3156,-0.2848,-0.0217,0.1692,
24.143529,2.0503,1.4092,0.0256,-0.2848,-0.0217,0.1692,
24.196479,2.0503,1.4092,0.0256,-0.4328,0.0247,0.4743,
24.205082,2.0503,1.4092,0.0256,-0.4328,0.0247,0.4743,
24.206493,-0.3290,0.1433,-1.6513,-0.4328,0.0247,0.4743,
24.261156,-0.3290,0.1433,-1.6513,0.3517,0.0330,0.2107,
24.270161,-0.3290,0.1433,-1.6513,0.3517,0.0330,0.2107,
24.271368,-2.5358,0.8103,-2.7900,0.3517,0.0330,0.2107,
24.328364,-2.5358,0.8103,-2.7900,0.5374,0.2007,0.2309,
24.336994,-2.5358,0.8103,-2.7900,0.5374,0.2007,0.2309,
24.338420,0.3920,0.8382,-0.5082,0.5374,0.2007,0.2309,
24.393873,0.3920,0.8382,-0.5082,0.3642,0.2935,-0.0646,
24.403857,0.3920,0.8382,-0.5082,0.3642,0.2935,-0.0646,
24.405515,0.2182,-2.5269,1.2373,0.3642,0.2935,-0.0646,
24.459927,0.2182,-2.5269,1.2373,1.3589,0.2853,-0.6947,
24.468028,0.2182,-2.5269,1.2373,1.3589,0.2853,-0.6947,
24.468750,-0.6785,-1.2822,0.7122,1.3589,0.2853,-0.6947,
24.523699,-0.6785,-1.2822,0.7122,1.1854,0.8050,-0.7405,
24.532244,-0.6785,-1.2822,0.7122,1.1854,0.8050,-0.7405,
24.532821,-0.8571,0.3474,0.2770,1.1854,0.8050,-0.7405,
24.589430,-0.8571,0.3474,0.2770,0.3425,1.0886,0.0504,
24.597511,-0.8571,0.3474,0.2770,0.3425,1.0886,0.0504,
24.598065,0.8357,-0.2804,1.5669,0.3425,1.0886,0.0504,
24.653815,0.8357,-0.2804,1.5669,0.4837,0.4128,-0.2405,
24.662806,0.8357,-0.2804,1.5669,0.4837,0.4128,-0.2405,
24.663375,0.8799,1.3050,2.6296,0.4837,0.4128,-0.2405,
24.720735,0.8799,1.3050,2.6296,0.3483,0.7022,-0.0641,
24.729728,0.8799,1.3050,2.6296,0.3483,0.7022,-0.0641,
24.730380,2.7321,4.5825,-0.2455,0.3483,0.7022,-0.0641,
24.785563,2.7321,4.5825,-0.2455,0.3980,0.0460,-0.4531,
24.794509,2.7321,4.5825,-0.2455,0.3980,0.0460,-0.4531,
24.795122,-0.8098,-0.8571,-4.3504,0.3980,0.0460,-0.4531,
24.851991,-0.8098,-0.8571,-4.3504,-0.0958,1.6046,0.0444,
24.860015,-0.8098,-0.8571,-4.3504,-0.0958,1.6046,0.0444,
24.860387,-0.3460,-3.7977,-3.3931,-0.0958,1.6046,0.0444,
24.918285,-0.3460,-3.7977,-3.3931,0.3598,-0.2656,-0.3239,
24.925707,-0.3460,-3.7977,-3.3931,0.3598,-0.2656,-0.3239,
24.926241,-0.0210,-0.6211,-0.5578,0.3598,-0.2656,-0.3239,
24.983654,-0.0210,-0.6211,-0.5578,0.0385,-0.5296,-0.1321,
24.990708,-0.0210,-0.6211,-0.5578,0.0385,-0.5296,-0.1321,
24.991141,-1.3177,0.1357,-0.0603,0.0385,-0.5296,-0.1321,
25.049163,-1.3177,0.1357,-0.0603,-0.7986,-0.1196,0.0719,
25.057209,-1.3177,0.1357,-0.0603,-0.7986,-0.1196,0.0719,
25.057970,-1.7163,-1.6303,0.8771,-0.7986,-0.1196,0.0719,
25.113866,-1.7163,-1.6303,0.8771,0.1958,-0.4977,0.0319,
25.123525,-1.7163,-1.6303,0.8771,0.1958,-0.4977,0.0319,
25.124308,1.0995,-1.4674,0.4416,0.1958,-0.4977,0.0319,
25.179914,1.0995,-1.4674,0.4416,-0.5177,-0.4322,0.1106,
25.187646,1.0995,-1.4674,0.4416,-0.5177,-0.4322,0.1106,
25.188511,2.6193,-1.0692,1.5790,-0.5177,-0.4322,0.1106,
25.244833,2.6193,-1.0692,1.5790,-0.2899,-0.1665,0.2497,
25.253008,2.6193,-1.0692,1.5790,-0.2899,-0.1665,0.2497,
25.254586,2.2876,-0.4170,0.2980,-0.2899,-0.1665,0.2497,
25.310318,2.2876,-0.4170,0.2980,-0.4696,-0.1017,0.6304,
25.318252,2.2876,-0.4170,0.2980,-0.4696,-0.1017,0.6304,
25.319166,1.3260,1.3844,-1.8661,-0.4696,-0.1017,0.6304,
25.376577,1.3260,1.3844,-1.8661,-0.0421,0.0357,0.4577,
25.384418,1.3260,1.3844,-1.8661,-0.0421,0.0357,0.4577,
25.385705,-2.3909,1.0801,-1.8472,-0.0421,0.0357,0.4577,
25.441347,-2.3909,1.0801,-1.8472,0.3552,-0.2544,0.3132,
25.449140,-2.3909,1.0801,-1.8472,0.3552,-0.2544,0.3132,
25.450963,-2.0784,2.1278,-0.8778,0.3552,-0.2544,0.3132,
25.507650,-2.0784,2.1278,-0.8778,0.0648,0.5930,0.1717,
25.515441,-2.0784,2.1278,-0.8778,0.0648,0.5930,0.1717,
25.516385,0.2170,-1.6937,0.5446,0.0648,0.5930,0.1717,
25.573887,0.2170,-1.6937,0.5446,0.6081,0.8774,-0.2277,
25.582160,0.2170,-1.6937,0.5446,0.6081,0.8774,-0.2277,
25.584589,-0.4704,-2.2048,0.5452,0.6081,0.8774,-0.2277,
25.638090,-0.4704,-2.2048,0.5452,1.3412,-0.0812,-0.5822,
25.645916,-0.4704,-2.2048,0.5452,1.3412,-0.0812,-0.5822,
25.647232,-0.9028,0.6545,-0.0237,1.3412,-0.0812,-0.5822,
25.703042,-0.9028,0.6545,-0.0237,0.1949,0.7778,-0.0163,
25.712315,-0.9028,0.6545,-0.0237,0.1949,0.7778,-0.0163,
25.713412,0.4667,0.1990,2.0167,0.1949,0.7778,-0.0163,
25.768880,0.4667,0.1990,2.0167,0.1136,0.4821,0.0121,
25.777720,0.4667,0.1990,2.0167,0.1136,0.4821,0.0121,
25.779058,-0.0622,0.6016,1.5841,0.1136,0.4821,0.0121,
25.833680,-0.0622,0.6016,1.5841,0.2604,0.2462,-0.0121,
25.842268,-0.0622,0.6016,1.5841,0.2604,0.2462,-0.0121,
25.842674,0.8844,1.2463,1.8242,0.2604,0.2462,-0.0121,
25.898612,0.8844,1.2463,1.8242,-0.0893,0.5397,0.0231,
25.906781,0.8844,1.2463,1.8242,-0.0893,0.5397,0.0231,
25.907409,2.8002,2.3334,-1.2990,-0.0893,0.5397,0.0231,
25.964267,2.8002,2.3334,-1.2990,0.7579,0.3615,-0.6263,
25.972519,2.8002,2.3334,-1.2990,0.7579,0.3615,-0.6263,
25.973140,-1.7245,-1.3094,-3.7571,0.7579,0.3615,-0.6263,
26.031609,-1.7245,-1.3094,-3.7571,0.2188,0.6272,-0.1539,
26.038382,-1.7245,-1.3094,-3.7571,0.2188,0.6272,-0.1539,
26.039364,-0.8727,-1.6862,-4.1319,0.2188,0.6272,-0.1539,
26.096591,-0.8727,-1.6862,-4.1319,-0.1002,-1.0357,-0.0101,
26.104764,-0.8727,-1.6862,-4.1319,-0.1002,-1.0357,-0.0101,
26.105927,0.7795,0.6256,0.5519,-0.1002,-1.0357,-0.0101,
26.161355,0.7795,0.6256,0.5519,-0.4044,-0.3134,-0.1306,
26.171514,0.7795,0.6256,0.5519,-0.4044,-0.3134,-0.1306,
26.172573,-1.5412,-0.9858,0.8482,-0.4044,-0.3134,-0.1306,
26.225663,-1.5412,-0.9858,0.8482,-0.1520,-0.2778,-0.0101,
26.235697,-1.5412,-0.9858,0.8482,-0.1520,-0.2778,-0.0101,
26.236746,-0.6094,-1.6988,0.3580,-0.1520,-0.2778,-0.0101,
26.293409,-0.6094,-1.6988,0.3580,-0.0218,-0.5415,-0.1388,
26.301196,-0.6094,-1.6988,0.3580,-0.0218,-0.5415,-0.1388,
26.301692,1.6799,-1.7745,0.7189,-0.0218,-0.5415,-0.1388,
26.358168,1.6799,-1.7745,0.7189,-0.3508,-0.6480,-0.1046,
26.366606,1.6799,-1.7745,0.7189,-0.3508,-0.6480,-0.1046,
26.367619,1.3823,-0.9260,1.4708,-0.3508,-0.6480,-0.1046,
26.421760,1.3823,-0.9260,1.4708,-0.0157,0.0257,0.2531,
26.432439,1.3823,-0.9260,1.4708,-0.0157,0.0257,0.2531,
26.433766,2.5598,0.5041,0.3252,-0.0157,0.0257,0.2531,
26.488383,2.5598,0.5041,0.3252,-0.5278,-0.0605,0.5588,
26.498116,2.5598,0.5041,0.3252,-0.5278,-0.0605,0.5588,
26.498620,1.0235,0.8812,-1.8541,-0.5278,-0.0605,0.5588,
26.557849,1.0235,0.8812,-1.8541,0.1558,0.2367,0.1883,
26.561341,1.0235,0.8812,-1.8541,0.1558,0.2367,0.1883,
26.561929,-2.5979,0.6033,-1.9575,0.1558,0.2367,0.1883,
26.619445,-2.5979,0.6033,-1.9575,-0.3903,-0.3018,0.5020,
26.627289,-2.5979,0.6033,-1.9575,-0.3903,-0.3018,0.5020,
26.628035,0.0131,1.4454,-1.2566,-0.3903,-0.3018,0.5020,
26.685659,0.0131,1.4454,-1.2566,0.9016,0.7578,-0.1958,
26.694524,0.0131,1.4454,-1.2566,0.9016,0.7578,-0.1958,
26.695010,0.6791,-2.9229,2.4491,0.9016,0.7578,-0.1958,
26.750792,0.6791,-2.9229,2.4491,1.9001,0.5915,-0.7743,
26.759848,0.6791,-2.9229,2.4491,1.9001,0.5915,-0.7743,
26.760939,-1.0301,-1.3399,-0.8751,1.9001,0.5915,-0.7743,
26.818609,-1.0301,-1.3399,-0.8751,0.9658,0.6194,-0.5951,
26.824731,-1.0301,-1.3399,-0.8751,0.9658,0.6194,-0.5951,
26.825730,-1.2727,0.9703,0.4034,0.9658,0.6194,-0.5951,
26.881434,-1.2727,0.9703,0.4034,0.3658,1.0489,-0.0137,
26.891239,-1.2727,0.9703,0.4034,0.3658,1.0489,-0.0137,
26.892825,0.6398,-0.0340,2.4453,0.3658,1.0489,-0.0137,
26.949301,0.6398,-0.0340,2.4453,0.3783,0.3248,-0.2198,
26.955436,0.6398,-0.0340,2.4453,0.3783,0.3248,-0.2198,
26.956908,0.7933,1.2070,1.5374,0.3783,0.3248,-0.2198,
27.015278,0.7933,1.2070,1.5374,0.0599,1.2543,0.1164,
27.022480,0.7933,1.2070,1.5374,0.0599,1.2543,0.1164,
27.023841,2.6651,2.1828,0.3014,0.0599,1.2543,0.1164,
27.081094,2.6651,2.1828,0.3014,0.8653,-0.3134,-0.5261,
27.088163,2.6651,2.1828,0.3014,0.8653,-0.3134,-0.5261,
27.088939,-0.1563,-0.9415,-4.1552,0.8653,-0.3134,-0.5261,
27.145186,-0.1563,-0.9415,-4.1552,0.2083,1.6026,0.0551,
27.152446,-0.1563,-0.9415,-4.1552,0.2083,1.6026,0.0551,
27.153151,-0.7921,-3.1009,-4.5204,0.2083,1.6026,0.0551,
27.209107,-0.7921,-3.1009,-4.5204,0.2636,0.0255,-0.1417,
27.216711,-0.7921,-3.1009,-4.5204,0.2636,0.0255,-0.1417,
27.217523,1.4215,-1.0307,0.2666,0.2636,0.0255,-0.1417,
27.274805,1.4215,-1.0307,0.2666,0.6212,-0.2981,-0.1655,
27.282807,1.4215,-1.0307,0.2666,0.6212,-0.2981,-0.1655,
27.284174,-1.3714,0.1069,-0.0050,0.6212,-0.2981,-0.1655,
27.339318,-1.3714,0.1069,-0.0050,-0.0466,0.1379,-0.0828,
27.348434,-1.3714,0.1069,-0.0050,-0.0466,0.1379,-0.0828,
27.349191,-2.1243,-1.3044,-0.0250,-0.0466,0.1379,-0.0828,
27.404449,-2.1243,-1.3044,-0.0250,0.2677,-0.2892,0.0727,
27.412890,-2.1243,-1.3044,-0.0250,0.2677,-0.2892,0.0727,
27.413929,1.1968,-1.6170,0.2114,0.2677,-0.2892,0.0727,
27.472523,1.1968,-1.6170,0.2114,-0.3627,-0.2292,-0.1161,
27.478336,1.1968,-1.6170,0.2114,-0.3627,-0.2292,-0.1161,
27.479594,2.5918,-1.5859,1.2835,-0.3627,-0.2292,-0.1161,
27.536191,2.5918,-1.5859,1.2835,0.0817,-0.0741,0.0892,
27.544478,2.5918,-1.5859,1.2835,0.0817,-0.0741,0.0892,
27.545845,2.8865,-0.9261,0.9832,0.0817,-0.0741,0.0892,
27.602147,2.8865,-0.9261,0.9832,-0.2001,0.1530,0.4172,
27.609926,2.8865,-0.9261,0.9832,-0.2001,0.1530,0.4172,
27.610768,1.5566,0.4630,-1.2012,-0.2001,0.1530,0.4172,
27.667195,1.5566,0.4630,-1.2012,0.1413,0.2257,0.3377,
27.675527,1.5566,0.4630,-1.2012,0.1413,0.2257,0.3377,
27.676019,-2.2579,0.6268,-2.4797,0.1413,0.2257,0.3377,
27.732619,-2.2579,0.6268,-2.4797,0.8563,0.1489,0.0582,
27.740514,-2.2579,0.6268,-2.4797,0.8563,0.1489,0.0582,
27.741450,-1.6446,2.3629,-1.9961,0.8563,0.1489,0.0582,
27.798361,-1.6446,2.3629,-1.9961,0.4820,0.6564,0.0040,
27.806596,-1.6446,2.3629,-1.9961,0.4820,0.6564,0.0040,
27.807578,1.3083,-1.9384,1.3448,0.4820,0.6564,0.0040,
27.863447,1.3083,-1.9384,1.3448,1.0200,1.0993,-0.2616,
27.872691,1.3083,-1.9384,1.3448,1.0200,1.0993,-0.2616,
27.874490,-0.3896,-2.4947,0.7850,1.0200,1.0993,-0.2616,
27.928784,-0.3896,-2.4947,0.7850,1.9007,0.1494,-0.8734,
27.937943,-0.3896,-2.4947,0.7850,1.9007,0.1494,-0.8734,
27.939033,-1.1624,0.2428,-1.4860,1.9007,0.1494,-0.8734,
27.994331,-1.1624,0.2428,-1.4860,0.3074,0.9163,-0.0680,
28.002496,-1.1624,0.2428,-1.4860,0.3074,0.9163,-0.0680,
28.003165,-0.4839,0.2197,1.0411,0.3074,0.9163,-0.0680,
28.061418,-0.4839,0.2197,1.0411,-0.1066,0.6023,0.1197,
28.069223,-0.4839,0.2197,1.0411,-0.1066,0.6023,0.1197,
28.070562,1.2986,0.0032,2.7890,-0.1066,0.6023,0.1197,
28.126952,1.2986,0.0032,2.7890,0.6107,0.3955,-0.1481,
28.134364,1.2986,0.0032,2.7890,0.6107,0.3955,-0.1481,
28.135200,1.1602,1.6962,1.1275,0.6107,0.3955,-0.1481,
28.192124,1.1602,1.6962,1.1275,0.2950,0.4006,-0.1552,
28.199381,1.1602,1.6962,1.1275,0.2950,0.4006,-0.1552,
28.200558,2.5196,1.9258,-2.4877,0.2950,0.4006,-0.1552,
28.256671,2.5196,1.9258,-2.4877,0.5287,1.1255,-0.3335,
28.265730,2.5196,1.9258,-2.4877,0.5287,1.1255,-0.3335,
28.266262,-1.5810,-3.0006,-4.7308,0.5287,1.1255,-0.3335,
28.323502,-1.5810,-3.0006,-4.7308,0.0589,0.8263,0.0301,
28.331454,-1.5810,-3.0006,-4.7308,0.0589,0.8263,0.0301,
28.331953,1.1985,-1.9367,-1.8607,0.0589,0.8263,0.0301,
28.388409,1.1985,-1.9367,-1.8607,0.6819,-0.9529,-0.2862,
28.395162,1.1985,-1.9367,-1.8607,0.6819,-0.9529,-0.2862,
28.395719,-0.8842,0.2812,0.1965,0.6819,-0.9529,-0.2862,
28.452230,-0.8842,0.2812,0.1965,-0.1148,0.0470,-0.1524,
28.462363,-0.8842,0.2812,0.1965,-0.1148,0.0470,-0.1524,
28.462835,-2.1448,-0.6841,0.0651,-0.1148,0.0470,-0.1524,
28.519029,-2.1448,-0.6841,0.0651,0.0513,-0.1145,0.0738,
28.526264,-2.1448,-0.6841,0.0651,0.0513,-0.1145,0.0738,
28.526741,0.0837,-2.1050,0.5690,0.0513,-0.1145,0.0738,
28.586333,0.0837,-2.1050,0.5690,-0.0046,-0.3202,-0.0460,
28.594073,0.0837,-2.1050,0.5690,-0.0046,-0.3202,-0.0460,
28.595549,2.1983,-1.1380,0.6887,-0.0046,-0.3202,-0.0460,
28.650942,2.1983,-1.1380,0.6887,-0.5881,-0.2885,0.0884,
28.657313,2.1983,-1.1380,0.6887,-0.5881,-0.2885,0.0884,
28.658402,1.7431,-0.5229,0.9231,-0.5881,-0.2885,0.0884,
28.715376,1.7431,-0.5229,0.9231,-0.0075,0.2329,0.3033,
28.723210,1.7431,-0.5229,0.9231,-0.0075,0.2329,0.3033,
28.724032,3.2905,-0.1312,-0.2690,-0.0075,0.2329,0.3033,
28.781985,3.2905,-0.1312,-0.2690,-0.3807,0.2518,0.4975,
28.790121,3.2905,-0.1312,-0.2690,-0.3807,0.2518,0.4975,
28.791657,0.2632,-0.1362,-1.5728,-0.3807,0.2518,0.4975,
28.846228,0.2632,-0.1362,-1.5728,0.3300,0.0814,0.2734,
28.854565,0.2632,-0.1362,-1.5728,0.3300,0.0814,0.2734,
28.855150,-2.6698,1.2194,-2.4934,0.3300,0.0814,0.2734,
28.912230,-2.6698,1.2194,-2.4934,0.5918,0.4125,0.0907,
28.919848,-2.6698,1.2194,-2.4934,0.5918,0.4125,0.0907,
28.920653,-0.6844,1.7815,-0.2879,0.5918,0.4125,0.0907,
28.977414,-0.6844,1.7815,-0.2879,0.8175,0.7628,-0.1507,
28.985649,-0.6844,1.7815,-0.2879,0.8175,0.7628,-0.1507,
28.986588,0.6106,-2.5322,0.8926,0.8175,0.7628,-0.1507,
29.044270,0.6106,-2.5322,0.8926,1.3627,0.3105,-0.5029,
29.051786,0.6106,-2.5322,0.8926,1.3627,0.3105,-0.5029,
29.052519,-0.7942,-0.7457,-0.1187,1.3627,0.3105,-0.5029,
29.108297,-0.7942,-0.7457,-0.1187,0.9360,0.3694,-0.4504,
29.115818,-0.7942,-0.7457,-0.1187,0.9360,0.3694,-0.4504,
29.116526,-1.8283,0.8480,0.2597,0.9360,0.3694,-0.4504,
29.172904,-1.8283,0.8480,0.2597,0.1515,0.7393,0.1277,
29.181235,-1.8283,0.8480,0.2597,0.1515,0.7393,0.1277,
29.181884,0.3255,-0.6375,1.6900,0.1515,0.7393,0.1277,
29.238620,0.3255,-0.6375,1.6900,0.3997,0.2561,-0.0212,
29.247454,0.3255,-0.6375,1.6900,0.3997,0.2561,-0.0212,
29.248176,0.4805,0.6966,1.6764,0.3997,0.2561,-0.0212,
29.304955,0.4805,0.6966,1.6764,0.1524,0.4021,0.0602,
29.312265,0.4805,0.6966,1.6764,0.1524,0.4021,0.0602,
29.313656,2.0437,2.2084,1.8360,0.1524,0.4021,0.0602,
29.370428,2.0437,2.2084,1.8360,-0.0447,0.3908,0.0224,
29.377456,2.0437,2.2084,1.8360,-0.0447,0.3908,0.0224,
29.378848,2.2647,1.9555,-1.4353,-0.0447,0.3908,0.0224,
29.435192,2.2647,1.9555,-1.4353,0.4218,0.3311,-0.3099,
29.444407,2.2647,1.9555,-1.4353,0.4218,0.3311,-0.3099,
29.445562,-2.9225,-2.1118,-3.9713,0.4218,0.3311,-0.3099,
29.502629,-2.9225,-2.1118,-3.9713,-0.0855,0.7695,0.1407,
29.509295,-2.9225,-2.1118,-3.9713,-0.0855,0.7695,0.1407,
29.510524,-0.1189,-1.0992,-3.0637,-0.0855,0.7695,0.1407,
29.565618,-0.1189,-1.0992,-3.0637,-0.0519,-1.1380,-0.0310,
29.575632,-0.1189,-1.0992,-3.0637,-0.0519,-1.1380,-0.0310,
29.576842,-0.0010,1.0811,0.5336,-0.0519,-1.1380,-0.0310,
29.633457,-0.0010,1.0811,0.5336,-0.6466,-0.2349,0.0270,
29.639626,-0.0010,1.0811,0.5336,-0.6466,-0.2349,0.0270,
29.640196,-1.6055,-1.0656,0.2196,-0.6466,-0.2349,0.0270,
29.698199,-1.6055,-1.0656,0.2196,-0.2048,-0.2460,0.0903,
29.706250,-1.6055,-1.0656,0.2196,-0.2048,-0.2460,0.0903,
29.707142,-0.0251,-2.3166,0.0948,-0.2048,-0.2460,0.0903,
29.764011,-0.0251,-2.3166,0.0948,-0.0576,-0.6165,-0.0072,
29.772596,-0.0251,-2.3166,0.0948,-0.0576,-0.6165,-0.0072,
29.773833,1.1264,-1.4258,0.8080,-0.0576,-0.6165,-0.0072,
29.827973,1.1264,-1.4258,0.8080,-0.4937,-0.4531,0.2447,
29.836236,1.1264,-1.4258,0.8080,-0.4937,-0.4531,0.2447,
29.836898,1.4799,-0.4812,1.2246,-0.4937,-0.4531,0.2447,
29.893696,1.4799,-0.4812,1.2246,0.1240,-0.1164,0.3986,
29.902782,1.4799,-0.4812,1.2246,0.1240,-0.1164,0.3986,
29.903490,2.4863,0.9438,-0.0815,0.1240,-0.1164,0.3986,
29.959195,2.4863,0.9438,-0.0815,-0.6316,-0.3129,0.5667,
29.967287,2.4863,0.9438,-0.0815,-0.6316,-0.3129,0.5667,
29.968012,-0.2843,1.6193,-1.4763,-0.6316,-0.3129,0.5667,
30.024823,-0.2843,1.6193,-1.4763,-0.0006,-0.3848,0.1231,
30.033711,-0.2843,1.6193,-1.4763,-0.0006,-0.3848,0.1231,
30.035062,-3.8073,1.8464,-0.8837,-0.0006,-0.3848,0.1231,
30.090894,-3.8073,1.8464,-0.8837,0.3180,-0.5394,-0.0070,
30.099644,-3.8073,1.8464,-0.8837,0.3180,-0.5394,-0.0070,
30.100438,-2.4048,2.2628,-0.0686,0.3180,-0.5394,-0.0070,
30.157101,-2.4048,2.2628,-0.0686,-0.2115,-0.3067,-0.0136,
30.164323,-2.4048,2.2628,-0.0686,-0.2115,-0.3067,-0.0136,
30.165717,0.7655,-0.5972,1.3130,-0.2115,-0.3067,-0.0136,
30.222924,0.7655,-0.5972,1.3130,-0.0797,-0.6367,-0.0805,
30.231063,0.7655,-0.5972,1.3130,-0.0797,-0.6367,-0.0805,
30.232245,0.1584,0.0715,1.2955,-0.0797,-0.6367,-0.0805,
30.289884,0.1584,0.0715,1.2955,-0.0869,0.1342,-0.1590,
30.294466,0.1584,0.0715,1.2955,-0.0869,0.1342,-0.1590,
30.295353,-0.5599,0.5817,1.7324,-0.0869,0.1342,-0.1590,
30.353308,-0.5599,0.5817,1.7324,-0.3688,0.3807,0.1969,
30.361721,-0.5599,0.5817,1.7324,-0.3688,0.3807,0.1969,
30.363386,-0.1902,0.4598,1.5333,-0.3688,0.3807,0.1969,
30.418957,-0.1902,0.4598,1.5333,-0.2503,0.0568,-0.1654,
30.426236,-0.1902,0.4598,1.5333,-0.2503,0.0568,-0.1654,
30.426947,0.9402,2.1334,3.0906,-0.2503,0.0568,-0.1654,
30.481318,0.9402,2.1334,3.0906,-0.2954,0.1805,-0.0841,
30.489847,0.9402,2.1334,3.0906,-0.2954,0.1805,-0.0841,
30.490862,2.1454,2.8997,-0.2554,-0.2954,0.1805,-0.0841,
30.548113,2.1454,2.8997,-0.2554,-0.3589,0.2746,-0.0947,
30.556491,2.1454,2.8997,-0.2554,-0.3589,0.2746,-0.0947,
30.557416,-0.9561,-1.0830,-2.7746,-0.3589,0.2746,-0.0947,
30.613859,-0.9561,-1.0830,-2.7746,-0.0855,0.4467,-0.1408,
30.621351,-0.9561,-1.0830,-2.7746,-0.0855,0.4467,-0.1408,
30.622481,-0.8050,-1.5972,-3.0992,-0.0855,0.4467,-0.1408,
30.678887,-0.8050,-1.5972,-3.0992,-0.1839,-0.6015,-0.2181,
30.687765,-0.8050,-1.5972,-3.0992,-0.1839,-0.6015,-0.2181,
30.689772,-0.3848,0.9653,-1.1381,-0.1839,-0.6015,-0.2181,
30.745003,-0.3848,0.9653,-1.1381,-0.8300,-0.7902,-0.1535,
30.754234,-0.3848,0.9653,-1.1381,-0.8300,-0.7902,-0.1535,
30.756073,-1.6550,-0.6754,0.1772,-0.8300,-0.7902,-0.1535,
30.810417,-1.6550,-0.6754,0.1772,-1.0226,-0.6362,0.0808,
30.819449,-1.6550,-0.6754,0.1772,-1.0226,-0.6362,0.0808,
30.820831,-1.7392,-2.1937,0.4763,-1.0226,-0.6362,0.0808,
30.875672,-1.7392,-2.1937,0.4763,-0.0166,-0.4757,0.0457,
30.882819,-1.7392,-2.1937,0.4763,-0.0166,-0.4757,0.0457,
30.883351,1.7019,-2.1180,0.9645,-0.0166,-0.4757,0.0457,
30.940245,1.7019,-2.1180,0.9645,-0.2740,-0.9131,0.1210,
30.948748,1.7019,-2.1180,0.9645,-0.2740,-0.9131,0.1210,
30.949531,2.3958,-0.0106,1.8438,-0.2740,-0.9131,0.1210,
31.006492,2.3958,-0.0106,1.8438,-0.2782,0.2944,0.1889,
31.014619,2.3958,-0.0106,1.8438,-0.2782,0.2944,0.1889,
31.015465,2.0560,-0.0286,1.0388,-0.2782,0.2944,0.1889,
31.072750,2.0560,-0.0286,1.0388,-0.2732,-0.1579,0.5056,
31.080527,2.0560,-0.0286,1.0388,-0.2732,-0.1579,0.5056,
31.082181,0.9618,1.5582,-2.2321,-0.2732,-0.1579,0.5056,
31.138875,0.9618,1.5582,-2.2321,-0.4200,-0.0024,0.2691,
31.147629,0.9618,1.5582,-2.2321,-0.4200,-0.0024,0.2691,
31.148666,-3.4333,0.4455,-1.3841,-0.4200,-0.0024,0.2691,
31.202308,-3.4333,0.4455,-1.3841,0.0872,0.1535,0.3063,
31.211714,-3.4333,0.4455,-1.3841,0.0872,0.1535,0.3063,
31.212823,-1.0273,1.0008,-0.6437,0.0872,0.1535,0.3063,
31.270802,-1.0273,1.0008,-0.6437,0.5592,0.4742,-0.0942,
31.276716,-1.0273,1.0008,-0.6437,0.5592,0.4742,-0.0942,
31.278622,1.1367,-1.9407,0.3467,0.5592,0.4742,-0.0942,
31.335066,1.1367,-1.9407,0.3467,0.8528,0.0327,-0.3978,
31.342370,1.1367,-1.9407,0.3467,0.8528,0.0327,-0.3978,
31.342951,-0.5771,-1.0699,0.5817,0.8528,0.0327,-0.3978,
31.399238,-0.5771,-1.0699,0.5817,0.8642,0.2355,-0.5670,
31.406978,-0.5771,-1.0699,0.5817,0.8642,0.2355,-0.5670,
31.407571,-1.1951,0.7945,0.7556,0.8642,0.2355,-0.5670,
31.465747,-1.1951,0.7945,0.7556,0.3506,0.6193,-0.1558,
31.472788,-1.1951,0.7945,0.7556,0.3506,0.6193,-0.1558,
31.473397,-0.1529,0.0700,1.2966,0.3506,0.6193,-0.1558,
31.530347,-0.1529,0.0700,1.2966,0.2677,-0.0670,-0.1965,
31.539753,-0.1529,0.0700,1.2966,0.2677,-0.0670,-0.1965,
31.540588,1.0577,1.1396,2.3704,0.2677,-0.0670,-0.1965,
31.594892,1.0577,1.1396,2.3704,0.0753,0.8593,-0.1461,
31.605212,1.0577,1.1396,2.3704,0.0753,0.8593,-0.1461,
31.606977,3.1720,2.2826,1.0758,0.0753,0.8593,-0.1461,
31.661610,3.1720,2.2826,1.0758,0.5005,0.0484,-0.3923,
31.670284,3.1720,2.2826,1.0758,0.5005,0.0484,-0.3923,
31.671429,-0.4687,-0.7908,-3.7221,0.5005,0.0484,-0.3923,
31.727421,-0.4687,-0.7908,-3.7221,-0.0119,1.0078,-0.0811,
31.735478,-0.4687,-0.7908,-3.7221,-0.0119,1.0078,-0.0811,
31.736199,-1.1140,-2.1271,-4.1162,-0.0119,1.0078,-0.0811,
31.791469,-1.1140,-2.1271,-4.1162,0.0389,0.1907,-0.3207,
31.799860,-1.1140,-2.1271,-4.1162,0.0389,0.1907,-0.3207,
31.800426,0.9735,-0.1728,0.2836,0.0389,0.1907,-0.3207,
31.858299,0.9735,-0.1728,0.2836,0.0284,-0.3390,-0.2445,
31.866933,0.9735,-0.1728,0.2836,0.0284,-0.3390,-0.2445,
31.868009,-1.4436,-0.3817,-0.0758,0.0284,-0.3390,-0.2445,
31.923880,-1.4436,-0.3817,-0.0758,-0.3583,-0.3157,-0.0246,
31.932684,-1.4436,-0.3817,-0.0758,-0.3583,-0.3157,-0.0246,
31.934252,-2.1430,-1.8818,0.0962,-0.3583,-0.3157,-0.0246,
31.988507,-2.1430,-1.8818,0.0962,0.2741,-0.5414,0.0927,
31.996041,-2.1430,-1.8818,0.0962,0.2741,-0.5414,0.0927,
31.996535,1.6302,-1.5989,0.5711,0.2741,-0.5414,0.0927,
32.054924,1.6302,-1.5989,0.5711,-0.2711,-0.3743,-0.0736,
32.061778,1.6302,-1.5989,0.5711,-0.2711,-0.3743,-0.0736,
32.062545,3.0582,-0.5386,1.0935,-0.2711,-0.3743,-0.0736,
32.120786,3.0582,-0.5386,1.0935,-0.0125,0.2779,0.0837,
32.128895,3.0582,-0.5386,1.0935,-0.0125,0.2779,0.0837,
32.130360,2.2906,-0.6942,0.5537,-0.0125,0.2779,0.0837,
32.185835,2.2906,-0.6942,0.5537,0.0249,0.0925,0.4042,
32.194498,2.2906,-0.6942,0.5537,0.0249,0.0925,0.4042,
32.195187,1.6204,0.8804,-2.3047,0.0249,0.0925,0.4042,
32.251652,1.6204,0.8804,-2.3047,0.0325,0.3670,0.1785,
32.259573,1.6204,0.8804,-2.3047,0.0325,0.3670,0.1785,
32.260971,-2.9107,-0.6977,-1.4971,0.0325,0.3670,0.1785,
32.316762,-2.9107,-0.6977,-1.4971,0.5776,0.4504,0.3262,
32.324972,-2.9107,-0.6977,-1.4971,0.5776,0.4504,0.3262,
32.326325,-1.2225,0.1689,-1.2910,0.5776,0.4504,0.3262,
32.382505,-1.2225,0.1689,-1.2910,0.9682,1.0663,-0.0247,
32.390149,-1.2225,0.1689,-1.2910,0.9682,1.0663,-0.0247,
32.391962,2.0153,-1.6927,0.3942,0.9682,1.0663,-0.0247,
32.448328,2.0153,-1.6927,0.3942,1.4502,0.8665,-0.4299,
32.454914,2.0153,-1.6927,0.3942,1.4502,0.8665,-0.4299,
32.455905,0.1012,-1.2456,0.1194,1.4502,0.8665,-0.4299,
32.513877,0.1012,-1.2456,0.1194,1.6400,0.7840,-0.7259,
32.521500,0.1012,-1.2456,0.1194,1.6400,0.7840,-0.7259,
32.523284,-1.3321,-0.0238,-0.8270,1.6400,0.7840,-0.7259,
32.580118,-1.3321,-0.0238,-0.8270,0.8118,1.0577,-0.1403,
32.587275,-1.3321,-0.0238,-0.8270,0.8118,1.0577,-0.1403,
32.588773,-0.2536,-0.4343,0.1633,0.8118,1.0577,-0.1403,
32.643016,-0.2536,-0.4343,0.1633,0.6568,0.5264,-0.1788,
32.652092,-0.2536,-0.4343,0.1633,0.6568,0.5264,-0.1788,
32.652797,0.9892,0.6203,2.1074,0.6568,0.5264,-0.1788,
32.709084,0.9892,0.6203,2.1074,0.5840,0.6365,-0.2349,
32.716163,0.9892,0.6203,2.1074,0.5840,0.6365,-0.2349,
32.716681,1.2697,2.2806,1.0386,0.5840,0.6365,-0.2349,
32.774126,1.2697,2.2806,1.0386,0.0727,0.1512,-0.1503,
32.783277,1.2697,2.2806,1.0386,0.0727,0.1512,-0.1503,
32.784433,1.5376,0.5873,-1.7936,0.0727,0.1512,-0.1503,
32.840079,1.5376,0.5873,-1.7936,0.2253,1.1498,-0.0415,
32.849450,1.5376,0.5873,-1.7936,0.2253,1.1498,-0.0415,
32.850483,-0.7648,-2.2023,-4.0770,0.2253,1.1498,-0.0415,
32.905598,-0.7648,-2.2023,-4.0770,0.3361,1.0548,-0.2700,
32.913470,-0.7648,-2.2023,-4.0770,0.3361,1.0548,-0.2700,
32.914334,0.7604,-3.1156,-1.1704,0.3361,1.0548,-0.2700,
32.971145,0.7604,-3.1156,-1.1704,1.2784,-0.3033,-0.3835,
32.980602,0.7604,-3.1156,-1.1704,1.2784,-0.3033,-0.3835,
32.981054,-0.1069,-0.1151,-0.5221,1.2784,-0.3033,-0.3835,
33.037169,-0.1069,-0.1151,-0.5221,0.3931,0.0528,-0.3212,
33.045966,-0.1069,-0.1151,-0.5221,0.3931,0.0528,-0.3212,
33.046814,-2.0645,-0.8241,-0.5483,0.3931,0.0528,-0.3212,
33.104787,-2.0645,-0.8241,-0.5483,0.2669,-0.0783,0.1304,
33.111571,-2.0645,-0.8241,-0.5483,0.2669,-0.0783,0.1304,
33.113199,0.6939,-1.3874,0.4666,0.2669,-0.0783,0.1304,
33.169803,0.6939,-1.3874,0.4666,0.1742,0.1529,-0.1834,
33.177209,0.6939,-1.3874,0.4666,0.1742,0.1529,-0.1834,
33.178701,2.8104,-1.1350,0.5791,0.1742,0.1529,-0.1834,
33.234378,2.8104,-1.1350,0.5791,-0.3858,-0.2766,0.0541,
33.242794,2.8104,-1.1350,0.5791,-0.3858,-0.2766,0.0541,
33.244073,1.4982,-0.6932,1.2465,-0.3858,-0.2766,0.0541,
33.299314,1.4982,-0.6932,1.2465,-0.0113,0.4708,0.4833,
33.307773,1.4982,-0.6932,1.2465,-0.0113,0.4708,0.4833,
33.308584,2.4710,0.2237,-0.1924,-0.0113,0.4708,0.4833,
33.363393,2.4710,0.2237,-0.1924,0.2162,0.2767,0.3972,
33.371213,2.4710,0.2237,-0.1924,0.2162,0.2767,0.3972,
33.371924,-0.4654,0.1286,-2.1088,0.2162,0.2767,0.3972,
33.428802,-0.4654,0.1286,-2.1088,0.4417,0.4380,0.2724,
33.436953,-0.4654,0.1286,-2.1088,0.4417,0.4380,0.2724,
33.437538,-2.2577,0.4441,-1.7839,0.4417,0.4380,0.2724,
33.494607,-2.2577,0.4441,-1.7839,0.7593,0.6923,0.1426,
33.502885,-2.2577,0.4441,-1.7839,0.7593,0.6923,0.1426,
33.503559,0.5021,-0.5058,0.0251,0.7593,0.6923,0.1426,
33.559426,0.5021,-0.5058,0.0251,1.1920,0.8888,-0.1382,
33.567876,0.5021,-0.5058,0.0251,1.1920,0.8888,-0.1382,
33.568377,0.2308,-2.1681,0.3743,1.1920,0.8888,-0.1382,
33.625130,0.2308,-2.1681,0.3743,1.5157,0.3428,-0.5704,
33.632660,0.2308,-2.1681,0.3743,1.5157,0.3428,-0.5704,
33.633132,-0.6857,-0.0550,-0.2599,1.5157,0.3428,-0.5704,
33.690695,-0.6857,-0.0550,-0.2599,0.9160,0.7335,-0.3346,
33.699948,-0.6857,-0.0550,-0.2599,0.9160,0.7335,-0.3346,
33.700570,-1.1564,0.3408,0.2421,0.9160,0.7335,-0.3346,
33.757497,-1.1564,0.3408,0.2421,0.2023,0.7089,0.0690,
33.764615,-1.1564,0.3408,0.2421,0.2023,0.7089,0.0690,
33.765220,1.5475,-0.3872,2.1324,0.2023,0.7089,0.0690,
33.821819,1.5475,-0.3872,2.1324,0.6765,0.3132,-0.1671,
33.831259,1.5475,-0.3872,2.1324,0.6765,0.3132,-0.1671,
33.831923,1.5687,1.4257,1.7951,0.6765,0.3132,-0.1671,
33.888298,1.5687,1.4257,1.7951,0.3285,0.7935,-0.0266,
33.897154,1.5687,1.4257,1.7951,0.3285,0.7935,-0.0266,
33.897584,2.6783,2.1628,-0.6615,0.3285,0.7935,-0.0266,
33.953588,2.6783,2.1628,-0.6615,0.6862,0.4615,-0.3639,
33.962308,2.6783,2.1628,-0.6615,0.6862,0.4615,-0.3639,
33.962804,-1.9891,-1.9756,-3.7759,0.6862,0.4615,-0.3639,
34.017981,-1.9891,-1.9756,-3.7759,0.0157,1.1038,0.1126,
34.026231,-1.9891,-1.9756,-3.7759,0.0157,1.1038,0.1126,
34.026929,-0.0957,-2.1571,-2.5956,0.0157,1.1038,0.1126,
34.085334,-0.0957,-2.1571,-2.5956,0.6249,-0.4160,-0.3219,
34.092689,-0.0957,-2.1571,-2.5956,0.6249,-0.4160,-0.3219,
34.093170,0.0466,0.2453,0.3725,0.6249,-0.4160,-0.3219,
34.150378,0.0466,0.2453,0.3725,0.0189,0.0637,-0.1907,
34.158991,0.0466,0.2453,0.3725,0.0189,0.0637,-0.1907,
34.159922,-1.6271,-0.8132,-0.1946,0.0189,0.0637,-0.1907,
34.215281,-1.6271,-0.8132,-0.1946,-0.0295,-0.1489,0.0559,
34.223114,-1.6271,-0.8132,-0.1946,-0.0295,-0.1489,0.0559,
34.224048,-0.7101,-1.8623,0.4524,-0.0295,-0.1489,0.0559,
34.281580,-0.7101,-1.8623,0.4524,0.1822,-0.3106,-0.0000,
34.289365,-0.7101,-1.8623,0.4524,0.1822,-0.3106,-0.0000,
34.290539,2.1854,-0.7647,0.4573,0.1822,-0.3106,-0.0000,
34.345499,2.1854,-0.7647,0.4573,-0.6422,-0.3329,0.0782,
34.354403,2.1854,-0.7647,0.4573,-0.6422,-0.3329,0.0782,
34.355344,2.1001,-0.2129,1.1527,-0.6422,-0.3329,0.0782,
34.411760,2.1001,-0.2129,1.1527,-0.0399,0.3384,0.3957,
34.421716,2.1001,-0.2129,1.1527,-0.0399,0.3384,0.3957,
34.423384,2.9621,0.2455,-0.1286,-0.0399,0.3384,0.3957,
34.478541,2.9621,0.2455,-0.1286,-0.3370,-0.0608,0.3293,
34.486389,2.9621,0.2455,-0.1286,-0.3370,-0.0608,0.3293,
34.487808,-0.6674,0.5071,-1.6870,-0.3370,-0.0608,0.3293,
34.541759,-0.6674,0.5071,-1.6870,0.0739,0.4823,0.2569,
34.550134,-0.6674,0.5071,-1.6870,0.0739,0.4823,0.2569,
34.550782,-2.6078,-0.2306,-1.3118,0.0739,0.4823,0.2569,
34.610331,-2.6078,-0.2306,-1.3118,0.7518,0.5027,0.1058,
34.617272,-2.6078,-0.2306,-1.3118,0.7518,0.5027,0.1058,
34.617819,0.1068,0.6723,-0.1910,0.7518,0.5027,0.1058,
34.673337,0.1068,0.6723,-0.1910,1.0693,0.4583,-0.2312,
34.681059,0.1068,0.6723,-0.1910,1.0693,0.4583,-0.2312,
34.681574,0.0196,-1.3367,0.1541,1.0693,0.4583,-0.2312,
34.738149,0.0196,-1.3367,0.1541,0.9349,0.2648,-0.4264,
34.746890,0.0196,-1.3367,0.1541,0.9349,0.2648,-0.4264,
34.747778,-1.1920,-0.3599,0.2996,0.9349,0.2648,-0.4264,
34.802906,-1.1920,-0.3599,0.2996,0.8548,0.4858,-0.3963,
34.812117,-1.1920,-0.3599,0.2996,0.8548,0.4858,-0.3963,
34.812759,-1.4579,0.5045,0.5303,0.8548,0.4858,-0.3963,
34.869520,-1.4579,0.5045,0.5303,0.1376,0.5475,-0.0079,
34.877422,-1.4579,0.5045,0.5303,0.1376,0.5475,-0.0079,
34.878850,0.8187,-0.4130,1.6477,0.1376,0.5475,-0.0079,
34.934552,0.8187,-0.4130,1.6477,0.3448,0.0121,-0.0628,
34.943203,0.8187,-0.4130,1.6477,0.3448,0.0121,-0.0628,
34.945062,1.1793,1.4373,2.3044,0.3448,0.0121,-0.0628,
34.999479,1.1793,1.4373,2.3044,0.0104,0.8227,0.1242,
35.007966,1.1793,1.4373,2.3044,0.0104,0.8227,0.1242,
35.008398,3.2993,2.9892,0.4109,0.0104,0.8227,0.1242,
35.065070,3.2993,2.9892,0.4109,0.4348,0.1781,-0.3412,
35.073039,3.2993,2.9892,0.4109,0.4348,0.1781,-0.3412,
35.074562,-0.7819,-1.0029,-3.0207,0.4348,0.1781,-0.3412,
35.131344,-0.7819,-1.0029,-3.0207,0.0024,1.0646,-0.0551,
35.139178,-0.7819,-1.0029,-3.0207,0.0024,1.0646,-0.0551,
35.140075,-1.2007,-2.2868,-3.0325,0.0024,1.0646,-0.0551,
35.195857,-1.2007,-2.2868,-3.0325,0.4267,0.1008,-0.3862,
35.204265,-1.2007,-2.2868,-3.0325,0.4267,0.1008,-0.3862,
35.205221,0.3728,0.0531,-0.0885,0.4267,0.1008,-0.3862,
35.261637,0.3728,0.0531,-0.0885,0.0034,-0.2463,-0.1834,
35.269535,0.3728,0.0531,-0.0885,0.0034,-0.2463,-0.1834,
35.271036,-1.1932,-0.0387,-0.3559,0.0034,-0.2463,-0.1834,
35.327947,-1.1932,-0.0387,-0.3559,-0.5243,-0.2056,0.0371,
35.336302,-1.1932,-0.0387,-0.3559,-0.5243,-0.2056,0.0371,
35.337656,-2.1613,-1.5388,0.1262,-0.5243,-0.2056,0.0371,
35.393188,-2.1613,-1.5388,0.1262,0.1182,-0.4030,0.0719,
35.401063,-2.1613,-1.5388,0.1262,0.1182,-0.4030,0.0719,
35.401789,1.2067,-1.7951,0.6262,0.1182,-0.4030,0.0719,
35.458574,1.2067,-1.7951,0.6262,-0.1797,-0.7167,-0.0589,
35.466509,1.2067,-1.7951,0.6262,-0.1797,-0.7167,-0.0589,
35.467277,1.8811,0.0695,0.9955,-0.1797,-0.7167,-0.0589,
35.524358,1.8811,0.0695,0.9955,-0.4482,-0.2373,0.1688,
35.532928,1.8811,0.0695,0.9955,-0.4482,-0.2373,0.1688,
35.533564,2.0323,0.0176,1.6868,-0.4482,-0.2373,0.1688,
35.589061,2.0323,0.0176,1.6868,-0.3083,0.1251,0.4882,
35.597589,2.0323,0.0176,1.6868,-0.3083,0.1251,0.4882,
35.598320,2.2086,1.1404,-1.4874,-0.3083,0.1251,0.4882,
35.655066,2.2086,1.1404,-1.4874,-0.0356,0.1072,0.1607,
35.663139,2.2086,1.1404,-1.4874,-0.0356,0.1072,0.1607,
35.663769,-2.9295,-0.4666,-2.0412,-0.0356,0.1072,0.1607,
35.719627,-2.9295,-0.4666,-2.0412,0.3196,0.0683,0.2257,
35.728461,-2.9295,-0.4666,-2.0412,0.3196,0.0683,0.2257,
35.729441,-1.7161,0.6072,-1.1995,0.3196,0.0683,0.2257,
35.785129,-1.7161,0.6072,-1.1995,0.6480,0.3583,-0.0078,
35.794440,-1.7161,0.6072,-1.1995,0.6480,0.3583,-0.0078,
35.795066,1.3371,-1.0222,1.0087,0.6480,0.3583,-0.0078,
35.851334,1.3371,-1.0222,1.0087,1.1046,0.5698,-0.2653,
35.859369,1.3371,-1.0222,1.0087,1.1046,0.5698,-0.2653,
35.860002,-0.1438,-1.4000,0.6158,1.1046,0.5698,-0.2653,
35.916610,-0.1438,-1.4000,0.6158,1.2772,0.2304,-0.5516,
35.926628,-0.1438,-1.4000,0.6158,1.2772,0.2304,-0.5516,
35.927615,-1.1223,0.3688,-0.0996,1.2772,0.2304,-0.5516,
35.981623,-1.1223,0.3688,-0.0996,0.5235,0.6987,-0.1158,
35.990673,-1.1223,0.3688,-0.0996,0.5235,0.6987,-0.1158,
35.991167,-0.4905,0.1928,0.9230,0.5235,0.6987,-0.1158,
36.047778,-0.4905,0.1928,0.9230,0.1539,0.3929,0.0053,
36.056903,-0.4905,0.1928,0.9230,0.1539,0.3929,0.0053,
36.057828,1.0543,0.4207,2.1250,0.1539,0.3929,0.0053,
36.113914,1.0543,0.4207,2.1250,0.3552,0.1277,-0.1038,
36.122920,1.0543,0.4207,2.1250,0.3552,0.1277,-0.1038,
36.124402,1.6797,2.0078,1.8789,0.3552,0.1277,-0.1038,
36.178151,1.6797,2.0078,1.8789,0.2414,0.4123,-0.1604,
36.188695,1.6797,2.0078,1.8789,0.2414,0.4123,-0.1604,
36.190626,1.9484,1.6724,-1.5513,0.2414,0.4123,-0.1604,
36.245949,1.9484,1.6724,-1.5513,0.4100,0.6280,-0.3772,
36.254453,1.9484,1.6724,-1.5513,0.4100,0.6280,-0.3772,
36.256140,-1.9337,-2.1526,-4.2920,0.4100,0.6280,-0.3772,
36.311265,-1.9337,-2.1526,-4.2920,-0.3496,0.8291,-0.0247,
36.319935,-1.9337,-2.1526,-4.2920,-0.3496,0.8291,-0.0247,
36.321475,0.4390,-1.7250,-1.8952,-0.3496,0.8291,-0.0247,
36.375352,0.4390,-1.7250,-1.8952,0.2781,-0.8621,-0.2405,
36.384425,0.4390,-1.7250,-1.8952,0.2781,-0.8621,-0.2405,
36.385885,-0.8108,-0.4013,0.1963,0.2781,-0.8621,-0.2405,
36.442462,-0.8108,-0.4013,0.1963,-0.1388,-0.1530,-0.1067,
36.448861,-0.8108,-0.4013,0.1963,-0.1388,-0.1530,-0.1067,
36.450311,-2.0598,-1.0080,0.1898,-0.1388,-0.1530,-0.1067,
36.506977,-2.0598,-1.0080,0.1898,0.0199,-0.4415,0.1645,
36.514794,-2.0598,-1.0080,0.1898,0.0199,-0.4415,0.1645,
36.515326,0.8168,-1.1958,0.8951,0.0199,-0.4415,0.1645,
36.572553,0.8168,-1.1958,0.8951,-0.1967,-0.3102,-0.0118,
36.581313,0.8168,-1.1958,0.8951,-0.1967,-0.3102,-0.0118,
36.583020,2.6922,-0.2097,0.5280,-0.1967,-0.3102,-0.0118,
36.638270,2.6922,-0.2097,0.5280,-0.7198,0.1408,0.1177,
36.645746,2.6922,-0.2097,0.5280,-0.7198,0.1408,0.1177,
36.646437,1.9203,-1.4215,1.1354,-0.7198,0.1408,0.1177,
36.703498,1.9203,-1.4215,1.1354,0.0328,0.3841,0.4808,
36.711058,1.9203,-1.4215,1.1354,0.0328,0.3841,0.4808,
36.711979,2.5418,0.1955,-0.9979,0.0328,0.3841,0.4808,
36.767682,2.5418,0.1955,-0.9979,0.1407,0.0499,0.1796,
36.776352,2.5418,0.1955,-0.9979,0.1407,0.0499,0.1796,
36.777541,-2.2861,0.1486,-1.9357,0.1407,0.0499,0.1796,
36.833748,-2.2861,0.1486,-1.9357,0.5657,0.5224,0.2311,
36.841405,-2.2861,0.1486,-1.9357,0.5657,0.5224,0.2311,
36.841912,-1.8252,0.9144,-1.1641,0.5657,0.5224,0.2311,
36.899151,-1.8252,0.9144,-1.1641,1.0635,0.8451,-0.0397,
36.908511,-1.8252,0.9144,-1.1641,1.0635,0.8451,-0.0397,
36.909654,1.5315,-0.9924,0.4002,1.0635,0.8451,-0.0397,
36.964452,1.5315,-0.9924,0.4002,1.3563,0.6326,-0.3583,
36.972455,1.5315,-0.9924,0.4002,1.3563,0.6326,-0.3583,
36.973329,-0.4713,-1.6505,0.1975,1.3563,0.6326,-0.3583,
37.030945,-0.4713,-1.6505,0.1975,1.5110,0.1794,-0.6364,
37.039650,-0.4713,-1.6505,0.1975,1.5110,0.1794,-0.6364,
37.040603,-1.6851,0.5688,-0.4072,1.5110,0.1794,-0.6364,
37.096465,-1.6851,0.5688,-0.4072,0.5866,0.6889,-0.1571,
37.103409,-1.6851,0.5688,-0.4072,0.5866,0.6889,-0.1571,
37.104895,-0.8468,0.6322,0.4839,0.5866,0.6889,-0.1571,
37.161433,-0.8468,0.6322,0.4839,-0.0012,0.3512,0.0661,
37.170817,-0.8468,0.6322,0.4839,-0.0012,0.3512,0.0661,
37.172378,1.3090,0.1819,2.5310,-0.0012,0.3512,0.0661,
37.227842,1.3090,0.1819,2.5310,0.5570,0.2013,-0.2683,
37.236786,1.3090,0.1819,2.5310,0.5570,0.2013,-0.2683,
37.238467,0.6824,1.6388,1.7501,0.5570,0.2013,-0.2683,
37.293547,0.6824,1.6388,1.7501,0.0568,0.5739,-0.0431,
37.300802,0.6824,1.6388,1.7501,0.0568,0.5739,-0.0431,
37.302183,2.8845,1.7958,-1.5526,0.0568,0.5739,-0.0431,
37.357399,2.8845,1.7958,-1.5526,0.3670,0.4817,-0.3769,
37.365893,2.8845,1.7958,-1.5526,0.3670,0.4817,-0.3769,
37.367203,-1.4301,-2.3393,-3.9604,0.3670,0.4817,-0.3769,
37.424426,-1.4301,-2.3393,-3.9604,0.1524,0.8221,-0.1874,
37.431061,-1.4301,-2.3393,-3.9604,0.1524,0.8221,-0.1874,
37.432152,0.0359,-2.0656,-2.1334,0.1524,0.8221,-0.1874,
37.488339,0.0359,-2.0656,-2.1334,0.6584,-0.6361,-0.2639,
37.496204,0.0359,-2.0656,-2.1334,0.6584,-0.6361,-0.2639,
37.497446,-0.1443,0.7490,0.2056,0.6584,-0.6361,-0.2639,
37.554828,-0.1443,0.7490,0.2056,-0.2666,0.0249,-0.0322,
37.562423,-0.1443,0.7490,0.2056,-0.2666,0.0249,-0.0322,
37.563089,-2.0122,-1.0555,-0.0374,-0.2666,0.0249,-0.0322,
37.620402,-2.0122,-1.0555,-0.0374,-0.0507,-0.2679,0.1672,
37.629252,-2.0122,-1.0555,-0.0374,-0.0507,-0.2679,0.1672,
37.629983,-0.0738,-1.7652,0.2765,-0.0507,-0.2679,0.1672,
37.685279,-0.0738,-1.7652,0.2765,-0.0254,-0.4107,-0.0649,
37.693682,-0.0738,-1.7652,0.2765,-0.0254,-0.4107,-0.0649,
37.694956,2.0985,-0.5447,0.5351,-0.0254,-0.4107,-0.0649,
37.750985,2.0985,-0.5447,0.5351,-0.6727,-0.2454,0.0353,
37.760350,2.0985,-0.5447,0.5351,-0.6727,-0.2454,0.0353,
37.760933,2.2343,-0.4577,1.7027,-0.6727,-0.2454,0.0353,
37.816820,2.2343,-0.4577,1.7027,0.0577,0.4727,0.4142,
37.825461,2.2343,-0.4577,1.7027,0.0577,0.4727,0.4142,
37.826944,3.6337,0.3294,-0.0432,0.0577,0.4727,0.4142,
37.881869,3.6337,0.3294,-0.0432,-0.1666,0.0318,0.3852,
37.890688,3.6337,0.3294,-0.0432,-0.1666,0.0318,0.3852,
37.892028,-1.0004,0.3499,-2.0603,-0.1666,0.0318,0.3852,
37.948212,-1.0004,0.3499,-2.0603,0.1292,0.2059,0.3384,
37.957071,-1.0004,0.3499,-2.0603,0.1292,0.2059,0.3384,
37.959362,-3.1581,0.0914,-1.4695,0.1292,0.2059,0.3384,
38.012888,-3.1581,0.0914,-1.4695,0.6148,0.4021,0.2358,
38.022958,-3.1581,0.0914,-1.4695,0.6148,0.4021,0.2358,
38.024662,-0.4235,0.1891,-0.2943,0.6148,0.4021,0.2358,
38.079608,-0.4235,0.1891,-0.2943,0.7243,0.6810,-0.1161,
38.089948,-0.4235,0.1891,-0.2943,0.7243,0.6810,-0.1161,
38.092515,0.3148,-1.8454,0.4593,0.7243,0.6810,-0.1161,
38.144246,0.3148,-1.8454,0.4593,1.1570,0.0417,-0.4910,
38.154634,0.3148,-1.8454,0.4593,1.1570,0.0417,-0.4910,
38.156014,-0.3915,0.1287,0.2411,1.1570,0.0417,-0.4910,
38.210216,-0.3915,0.1287,0.2411,0.6180,0.6736,-0.2592,
38.217940,-0.3915,0.1287,0.2411,0.6180,0.6736,-0.2592,
38.218861,-0.7537,0.3475,0.6899,0.6180,0.6736,-0.2592,
38.275260,-0.7537,0.3475,0.6899,0.0996,0.7170,0.1570,
38.282596,-0.7537,0.3475,0.6899,0.0996,0.7170,0.1570,
38.283314,1.4213,-0.5023,1.7024,0.0996,0.7170,0.1570,
38.339854,1.4213,-0.5023,1.7024,0.4636,0.1526,-0.0649,
38.348199,1.4213,-0.5023,1.7024,0.4636,0.1526,-0.0649,
38.348826,1.3748,1.3405,2.3213,0.4636,0.1526,-0.0649,
38.404283,1.3748,1.3405,2.3213,-0.1269,0.8221,0.3684,
38.413955,1.3748,1.3405,2.3213,-0.1269,0.8221,0.3684,
38.414687,2.5185,2.4813,-0.1330,-0.1269,0.8221,0.3684,
38.471394,2.5185,2.4813,-0.1330,0.7834,-0.3743,-0.4957,
38.480395,2.5185,2.4813,-0.1330,0.7834,-0.3743,-0.4957,
38.480854,-2.0083,-0.7263,-3.8004,0.7834,-0.3743,-0.4957,
38.536796,-2.0083,-0.7263,-3.8004,0.2497,0.8512,-0.1819,
38.544485,-2.0083,-0.7263,-3.8004,0.2497,0.8512,-0.1819,
38.545523,-1.7392,-0.9863,-4.2767,0.2497,0.8512,-0.1819,
38.602318,-1.7392,-0.9863,-4.2767,-0.2193,-0.4375,-0.0715,
38.609374,-1.7392,-0.9863,-4.2767,-0.2193,-0.4375,-0.0715,
38.609796,0.8840,0.0010,0.7301,-0.2193,-0.4375,-0.0715,
38.667275,0.8840,0.0010,0.7301,-0.4097,-0.3787,-0.1289,
38.675085,0.8840,0.0010,0.7301,-0.4097,-0.3787,-0.1289,
38.675636,-2.0797,-1.2167,1.1754,-0.4097,-0.3787,-0.1289,
38.732679,-2.0797,-1.2167,1.1754,0.0383,-0.4249,0.0185,
38.743674,-2.0797,-1.2167,1.1754,0.0383,-0.4249,0.0185,
38.744130,-0.9298,-1.2965,0.2903,0.0383,-0.4249,0.0185,
38.800204,-0.9298,-1.2965,0.2903,0.1726,-0.4746,-0.0557,
38.805741,-0.9298,-1.2965,0.2903,0.1726,-0.4746,-0.0557,
38.806871,1.5700,-0.7713,0.6135,0.1726,-0.4746,-0.0557,
38.864006,1.5700,-0.7713,0.6135,-0.5800,-0.6008,-0.0118,
38.873513,1.5700,-0.7713,0.6135,-0.5800,-0.6008,-0.0118,
38.875545,1.9200,0.1649,1.3826,-0.5800,-0.6008,-0.0118,
38.929565,1.9200,0.1649,1.3826,-0.1726,0.2741,0.2899,
38.939206,1.9200,0.1649,1.3826,-0.1726,0.2741,0.2899,
38.940719,2.7541,0.6005,0.7582,-0.1726,0.2741,0.2899,
38.995571,2.7541,0.6005,0.7582,-0.2071,-0.1811,0.4636,
39.003258,2.7541,0.6005,0.7582,-0.2071,-0.1811,0.4636,
39.004160,-0.1533,0.8263,-1.6433,-0.2071,-0.1811,0.4636,
39.060360,-0.1533,0.8263,-1.6433,0.0331,0.1038,0.2627,
39.069165,-0.1533,0.8263,-1.6433,0.0331,0.1038,0.2627,
39.069757,-3.6900,0.0703,-1.2847,0.0331,0.1038,0.2627,
39.125312,-3.6900,0.0703,-1.2847,0.4432,-0.0643,0.1897,
39.133639,-3.6900,0.0703,-1.2847,0.4432,-0.0643,0.1897,
39.134113,-1.3119,1.2474,-0.6821,0.4432,-0.0643,0.1897,
39.191497,-1.3119,1.2474,-0.6821,0.3108,0.4065,-0.0783,
39.199389,-1.3119,1.2474,-0.6821,0.3108,0.4065,-0.0783,
39.200486,0.6252,-1.3066,0.8119,0.3108,0.4065,-0.0783,
39.256803,0.6252,-1.3066,0.8119,0.6640,0.0608,-0.3306,
39.265134,0.6252,-1.3066,0.8119,0.6640,0.0608,-0.3306,
39.265801,-0.5782,-0.3861,0.8656,0.6640,0.0608,-0.3306,
39.322863,-0.5782,-0.3861,0.8656,0.5641,0.1608,-0.4197,
39.332061,-0.5782,-0.3861,0.8656,0.5641,0.1608,-0.4197,
39.332692,-1.0160,1.0121,0.8058,0.5641,0.1608,-0.4197,
39.388986,-1.0160,1.0121,0.8058,-0.0166,0.6791,0.0538,
39.397498,-1.0160,1.0121,0.8058,-0.0166,0.6791,0.0538,
39.398824,0.6883,-0.1938,1.7861,-0.0166,0.6791,0.0538,
39.453582,0.6883,-0.1938,1.7861,0.3297,-0.0622,-0.2027,
39.461242,0.6883,-0.1938,1.7861,0.3297,-0.0622,-0.2027,
39.461720,0.8718,1.8858,2.2021,0.3297,-0.0622,-0.2027,
39.518213,0.8718,1.8858,2.2021,-0.2127,0.8328,0.1081,
39.526141,0.8718,1.8858,2.2021,-0.2127,0.8328,0.1081,
39.527282,2.3737,2.6120,0.2873,-0.2127,0.8328,0.1081,
39.584820,2.3737,2.6120,0.2873,0.1947,0.1917,-0.2928,
39.593077,2.3737,2.6120,0.2873,0.1947,0.1917,-0.2928,
39.594560,-1.2091,-1.2501,-2.9631,0.1947,0.1917,-0.2928,
39.648783,-1.2091,-1.2501,-2.9631,0.1516,0.4774,-0.1504,
39.657546,-1.2091,-1.2501,-2.9631,0.1516,0.4774,-0.1504,
39.658753,-1.0173,-1.6228,-4.0146,0.1516,0.4774,-0.1504,
39.715366,-1.0173,-1.6228,-4.0146,-0.1750,-0.3511,-0.1575,
39.723039,-1.0173,-1.6228,-4.0146,-0.1750,-0.3511,-0.1575,
39.723741,0.9648,0.5987,0.0901,-0.1750,-0.3511,-0.1575,
39.781571,0.9648,0.5987,0.0901,-0.5255,-0.4311,-0.1578,
39.789142,0.9648,0.5987,0.0901,-0.5255,-0.4311,-0.1578,
39.789613,-1.4845,-0.8903,0.5177,-0.5255,-0.4311,-0.1578,
39.845087,-1.4845,-0.8903,0.5177,-0.3595,-0.5046,-0.0305,
39.855419,-1.4845,-0.8903,0.5177,-0.3595,-0.5046,-0.0305,
39.856319,-2.0924,-1.7954,0.3690,-0.3595,-0.5046,-0.0305,
39.912208,-2.0924,-1.7954,0.3690,0.0693,-0.6545,0.0614,
39.920045,-2.0924,-1.7954,0.3690,0.0693,-0.6545,0.0614,
39.921594,0.9797,-1.1151,0.3543,0.0693,-0.6545,0.0614,
39.976635,0.9797,-1.1151,0.3543,-0.6292,-0.5977,0.1402,
39.985732,0.9797,-1.1151,0.3543,-0.6292,-0.5977,0.1402,
39.987470,3.6286,0.3546,1.4496,-0.6292,-0.5977,0.1402,
40.042674,3.6286,0.3546,1.4496,-0.3523,0.2841,0.3467,
40.049625,3.6286,0.3546,1.4496,-0.3523,0.2841,0.3467,
40.050220,2.1994,-0.0686,0.8423,-0.3523,0.2841,0.3467,
40.109355,2.1994,-0.0686,0.8423,-0.2534,-0.0223,0.5156,
40.116625,2.1994,-0.0686,0.8423,-0.2534,-0.0223,0.5156,
40.117617,-0.6461,0.1121,-1.6435,-0.2534,-0.0223,0.5156,
40.174422,-0.6461,0.1121,-1.6435,0.2787,-0.0069,0.1662,
40.181202,-0.6461,0.1121,-1.6435,0.2787,-0.0069,0.1662,
40.182421,-3.9332,0.6783,-1.8475,0.2787,-0.0069,0.1662,
40.239453,-3.9332,0.6783,-1.8475,0.5420,0.2274,0.2065,
40.248190,-3.9332,0.6783,-1.8475,0.5420,0.2274,0.2065,
40.248713,0.3051,1.5408,-0.4872,0.5420,0.2274,0.2065,
40.304496,0.3051,1.5408,-0.4872,0.2654,0.4730,-0.0541,
40.313501,0.3051,1.5408,-0.4872,0.2654,0.4730,-0.0541,
40.315157,0.6086,-2.0177,0.6832,0.2654,0.4730,-0.0541,
40.370326,0.6086,-2.0177,0.6832,0.9299,0.1903,-0.4198,
40.378393,0.6086,-2.0177,0.6832,0.9299,0.1903,-0.4198,
40.379790,-0.4526,-0.8787,0.6448,0.9299,0.1903,-0.4198,
40.436140,-0.4526,-0.8787,0.6448,0.8167,0.3934,-0.4939,
40.443674,-0.4526,-0.8787,0.6448,0.8167,0.3934,-0.4939,
40.445009,-1.2687,0.7862,0.7658,0.8167,0.3934,-0.4939,
40.501185,-1.2687,0.7862,0.7658,0.2472,0.5922,-0.0363,
40.509549,-1.2687,0.7862,0.7658,0.2472,0.5922,-0.0363,
40.510165,0.5216,0.3119,1.3774,0.2472,0.5922,-0.0363,
40.564865,0.5216,0.3119,1.3774,0.3769,-0.2311,-0.1529,
40.574486,0.5216,0.3119,1.3774,0.3769,-0.2311,-0.1529,
40.575392,1.9472,1.5809,2.0147,0.3769,-0.2311,-0.1529,
40.632262,1.9472,1.5809,2.0147,-0.1382,0.6883,0.0779,
40.641566,1.9472,1.5809,2.0147,-0.1382,0.6883,0.0779,
40.642077,2.4358,2.1369,-0.2221,-0.1382,0.6883,0.0779,
40.697234,2.4358,2.1369,-0.2221,0.5270,0.1443,-0.3264,
40.705170,2.4358,2.1369,-0.2221,0.5270,0.1443,-0.3264,
40.706905,-2.1426,-1.3970,-3.4303,0.5270,0.1443,-0.3264,
40.762720,-2.1426,-1.3970,-3.4303,0.0342,0.7581,-0.1319,
40.773758,-2.1426,-1.3970,-3.4303,0.0342,0.7581,-0.1319,
40.775641,-1.2764,-2.0293,-2.6538,0.0342,0.7581,-0.1319,
40.829076,-1.2764,-2.0293,-2.6538,0.2630,-0.3436,-0.3221,
40.837500,-1.2764,-2.0293,-2.6538,0.2630,-0.3436,-0.3221,
40.839292,0.1675,0.1733,0.5443,0.2630,-0.3436,-0.3221,
40.895210,0.1675,0.1733,0.5443,-0.2877,-0.2731,-0.1008,
40.903872,0.1675,0.1733,0.5443,-0.2877,-0.2731,-0.1008,
40.905208,-1.3122,-0.4954,0.2428,-0.2877,-0.2731,-0.1008,
40.959879,-1.3122,-0.4954,0.2428,-0.3760,-0.4665,0.0377,
40.967471,-1.3122,-0.4954,0.2428,-0.3760,-0.4665,0.0377,
40.968257,-1.1054,-1.5876,0.6094,-0.3760,-0.4665,0.0377,
41.025245,-1.1054,-1.5876,0.6094,0.0018,-0.4097,0.0341,
41.032991,-1.1054,-1.5876,0.6094,0.0018,-0.4097,0.0341,
41.034659,2.1970,-0.9240,0.5515,0.0018,-0.4097,0.0341,
41.090594,2.1970,-0.9240,0.5515,-0.5814,-0.5066,-0.0070,
41.098650,2.1970,-0.9240,0.5515,-0.5814,-0.5066,-0.0070,
41.099786,2.6261,-0.3575,1.4067,-0.5814,-0.5066,-0.0070,
41.156924,2.6261,-0.3575,1.4067,-0.1069,0.3511,0.3125,
41.163891,2.6261,-0.3575,1.4067,-0.1069,0.3511,0.3125,
41.164678,2.2291,0.0444,0.1222,-0.1069,0.3511,0.3125,
41.221668,2.2291,0.0444,0.1222,0.0780,-0.0014,0.4009,
41.230432,2.2291,0.0444,0.1222,0.0780,-0.0014,0.4009,
41.230891,-0.7979,0.2283,-1.9125,0.0780,-0.0014,0.4009,
41.285956,-0.7979,0.2283,-1.9125,0.2182,0.2120,0.2101,
41.294693,-0.7979,0.2283,-1.9125,0.2182,0.2120,0.2101,
41.295826,-3.5175,0.6973,-1.5575,0.2182,0.2120,0.2101,
41.353387,-3.5175,0.6973,-1.5575,0.5032,0.4769,0.2952,
41.361908,-3.5175,0.6973,-1.5575,0.5032,0.4769,0.2952,
41.363409,0.9593,0.7884,-0.2966,0.5032,0.4769,0.2952,
41.417438,0.9593,0.7884,-0.2966,0.5764,0.7462,-0.1155,
41.425304,0.9593,0.7884,-0.2966,0.5764,0.7462,-0.1155,
41.425745,0.4433,-1.8552,0.6463,0.5764,0.7462,-0.1155,
41.481333,0.4433,-1.8552,0.6463,1.0175,0.2758,-0.4151,
41.490593,0.4433,-1.8552,0.6463,1.0175,0.2758,-0.4151,
41.492044,-0.8428,-0.5192,0.3029,1.0175,0.2758,-0.4151,
41.549606,-0.8428,-0.5192,0.3029,0.8532,0.5458,-0.4430,
41.557895,-0.8428,-0.5192,0.3029,0.8532,0.5458,-0.4430,
41.559107,-1.7421,0.5713,0.2265,0.8532,0.5458,-0.4430,
41.615315,-1.7421,0.5713,0.2265,0.0589,0.5904,0.0622,
41.622716,-1.7421,0.5713,0.2265,0.0589,0.5904,0.0622,
41.623372,0.8666,-0.3505,1.4642,0.0589,0.5904,0.0622,
41.678183,0.8666,-0.3505,1.4642,0.5537,-0.0930,-0.2550,
41.687268,0.8666,-0.3505,1.4642,0.5537,-0.0930,-0.2550,
41.687727,1.6318,1.5511,2.2781,0.5537,-0.0930,-0.2550,
41.746245,1.6318,1.5511,2.2781,0.0643,0.8651,-0.0179,
41.753004,1.6318,1.5511,2.2781,0.0643,0.8651,-0.0179,
41.755278,2.6246,2.3614,-0.0125,0.0643,0.8651,-0.0179,
41.810407,2.6246,2.3614,-0.0125,0.4583,0.2120,-0.2085,
41.819331,2.6246,2.3614,-0.0125,0.4583,0.2120,-0.2085,
41.820770,-1.7087,-1.2218,-3.3515,0.4583,0.2120,-0.2085,
41.876393,-1.7087,-1.2218,-3.3515,-0.1341,0.8134,0.0018,
41.883719,-1.7087,-1.2218,-3.3515,-0.1341,0.8134,0.0018,
41.884251,-0.9228,-1.8049,-2.5514,-0.1341,0.8134,0.0018,
41.941673,-0.9228,-1.8049,-2.5514,0.3625,-0.1370,-0.2747,
41.949357,-0.9228,-1.8049,-2.5514,0.3625,-0.1370,-0.2747,
41.951354,0.1757,0.0454,0.1028,0.3625,-0.1370,-0.2747,
42.007478,0.1757,0.0454,0.1028,-0.1307,-0.2263,-0.1654,
42.016141,0.1757,0.0454,0.1028,-0.1307,-0.2263,-0.1654,
42.016757,-1.5487,-0.3314,-0.3033,-0.1307,-0.2263,-0.1654,
42.071965,-1.5487,-0.3314,-0.3033,-0.4607,-0.5137,0.0124,
42.079808,-1.5487,-0.3314,-0.3033,-0.4607,-0.5137,0.0124,
42.080571,-1.7132,-1.5696,0.2191,-0.4607,-0.5137,0.0124,
42.138655,-1.7132,-1.5696,0.2191,-0.0302,-0.4246,0.0985,
42.145852,-1.7132,-1.5696,0.2191,-0.0302,-0.4246,0.0985,
42.146999,1.8648,-1.3884,0.7572,-0.0302,-0.4246,0.0985,
42.202513,1.8648,-1.3884,0.7572,-0.4165,-0.4236,0.0002,
42.212680,1.8648,-1.3884,0.7572,-0.4165,-0.4236,0.0002,
42.214154,3.0406,-0.3466,1.2746,-0.4165,-0.4236,0.0002,
42.269817,3.0406,-0.3466,1.2746,-0.2560,0.3256,0.1762,
42.278520,3.0406,-0.3466,1.2746,-0.2560,0.3256,0.1762,
42.280020,2.2697,-0.3933,0.6370,-0.2560,0.3256,0.1762,
42.333163,2.2697,-0.3933,0.6370,-0.1523,-0.0116,0.3438,
42.341121,2.2697,-0.3933,0.6370,-0.1523,-0.0116,0.3438,
42.341818,-0.0135,0.7501,-1.8675,-0.1523,-0.0116,0.3438,
42.398884,-0.0135,0.7501,-1.8675,0.1035,0.2674,0.1750,
42.407517,-0.0135,0.7501,-1.8675,0.1035,0.2674,0.1750,
42.408523,-3.4282,-0.5512,-1.9367,0.1035,0.2674,0.1750,
42.464093,-3.4282,-0.5512,-1.9367,0.7114,0.5776,0.2280,
42.473318,-3.4282,-0.5512,-1.9367,0.7114,0.5776,0.2280,
42.474450,0.1922,0.4391,-0.4849,0.7114,0.5776,0.2280,
42.530674,0.1922,0.4391,-0.4849,1.0767,0.3207,-0.1686,
42.538775,0.1922,0.4391,-0.4849,1.0767,0.3207,-0.1686,
42.539328,1.2138,-1.5070,0.3882,1.0767,0.3207,-0.1686,
42.595396,1.2138,-1.5070,0.3882,1.1438,0.6187,-0.3966,
42.605379,1.2138,-1.5070,0.3882,1.1438,0.6187,-0.3966,
42.607106,-0.6581,-0.8311,0.1391,1.1438,0.6187,-0.3966,
42.662565,-0.6581,-0.8311,0.1391,1.2810,0.4711,-0.5550,
42.670324,-0.6581,-0.8311,0.1391,1.2810,0.4711,-0.5550,
42.671523,-1.6339,0.6070,0.0171,1.2810,0.4711,-0.5550,
42.726882,-1.6339,0.6070,0.0171,0.3589,0.6159,-0.0044,
42.735442,-1.6339,0.6070,0.0171,0.3589,0.6159,-0.0044,
42.736582,0.1030,-0.1460,1.1472,0.3589,0.6159,-0.0044,
42.792120,0.1030,-0.1460,1.1472,0.4856,-0.0031,-0.2567,
42.801131,0.1030,-0.1460,1.1472,0.4856,-0.0031,-0.2567,
42.801867,0.9079,1.5604,2.0843,0.4856,-0.0031,-0.2567,
42.858419,0.9079,1.5604,2.0843,0.1629,0.9496,0.0189,
42.866736,0.9079,1.5604,2.0843,0.1629,0.9496,0.0189,
42.867834,3.4013,2.4806,0.7324,0.1629,0.9496,0.0189,
42.923253,3.4013,2.4806,0.7324,0.4850,0.0423,-0.3140,
42.930948,3.4013,2.4806,0.7324,0.4850,0.0423,-0.3140,
42.931652,0.1591,-0.3350,-2.2179,0.4850,0.0423,-0.3140,
42.988437,0.1591,-0.3350,-2.2179,0.1506,0.8477,-0.1306,
42.997741,0.1591,-0.3350,-2.2179,0.1506,0.8477,-0.1306,
42.999348,-2.0089,-2.1805,-3.2905,0.1506,0.8477,-0.1306,
43.054799,-2.0089,-2.1805,-3.2905,0.3166,0.5469,-0.3105,
43.063249,-2.0089,-2.1805,-3.2905,0.3166,0.5469,-0.3105,
43.064196,0.3491,-0.7823,-1.2069,0.3166,0.5469,-0.3105,
43.119815,0.3491,-0.7823,-1.2069,0.2364,-0.6300,-0.1669,
43.127355,0.3491,-0.7823,-1.2069,0.2364,-0.6300,-0.1669,
43.128628,-0.5013,0.5541,-0.2140,0.2364,-0.6300,-0.1669,
43.185386,-0.5013,0.5541,-0.2140,-0.7408,-0.2097,0.0718,
43.193428,-0.5013,0.5541,-0.2140,-0.7408,-0.2097,0.0718,
43.195395,-1.9651,-1.2622,0.4605,-0.7408,-0.2097,0.0718,
43.250827,-1.9651,-1.2622,0.4605,0.0371,-0.3169,0.1874,
43.258544,-1.9651,-1.2622,0.4605,0.0371,-0.3169,0.1874,
43.259484,1.7330,-1.8066,0.6071,0.0371,-0.3169,0.1874,
43.314834,1.7330,-1.8066,0.6071,-0.1048,-0.3383,-0.1720,
43.325060,1.7330,-1.8066,0.6071,-0.1048,-0.3383,-0.1720,
43.325720,2.2153,-0.8626,0.9301,-0.1048,-0.3383,-0.1720,
43.381776,2.2153,-0.8626,0.9301,-0.4574,-0.3389,0.0646,
43.390346,2.2153,-0.8626,0.9301,-0.4574,-0.3389,0.0646,
43.391079,1.6473,0.1341,0.8344,-0.4574,-0.3389,0.0646,
43.447248,1.6473,0.1341,0.8344,-0.3519,0.2338,0.4439,
43.455577,1.6473,0.1341,0.8344,-0.3519,0.2338,0.4439,
43.456226,1.6796,0.7848,-1.1353,-0.3519,0.2338,0.4439,
43.512561,1.6796,0.7848,-1.1353,-0.0638,0.2398,0.2517,
43.521818,1.6796,0.7848,-1.1353,-0.0638,0.2398,0.2517,
43.523094,-2.6652,-1.0849,-1.8040,-0.0638,0.2398,0.2517,
43.578367,-2.6652,-1.0849,-1.8040,0.6173,0.4171,0.2801,
43.585960,-2.6652,-1.0849,-1.8040,0.6173,0.4171,0.2801,
43.586563,-1.1105,0.1763,-1.3008,0.6173,0.4171,0.2801,
43.643942,-1.1105,0.1763,-1.3008,1.2404,0.6707,-0.0081,
43.653753,-1.1105,0.1763,-1.3008,1.2404,0.6707,-0.0081,
43.654599,1.9016,-1.4922,0.7522,1.2404,0.6707,-0.0081,
43.709691,1.9016,-1.4922,0.7522,1.2520,0.6836,-0.3383,
43.716964,1.9016,-1.4922,0.7522,1.2520,0.6836,-0.3383,
43.717353,-0.1043,-1.1107,0.4627,1.2520,0.6836,-0.3383,
43.774281,-0.1043,-1.1107,0.4627,1.4352,0.5556,-0.6448,
43.783815,-0.1043,-1.1107,0.4627,1.4352,0.5556,-0.6448,
43.784282,-1.4258,0.1607,-0.2202,1.4352,0.5556,-0.6448,
43.840037,-1.4258,0.1607,-0.2202,0.5609,0.9082,-0.0869,
43.849094,-1.4258,0.1607,-0.2202,0.5609,0.9082,-0.0869,
43.849856,-0.2606,-0.2099,0.6840,0.5609,0.9082,-0.0869,
43.906188,-0.2606,-0.2099,0.6840,0.1396,0.3467,-0.0889,
43.914549,-0.2606,-0.2099,0.6840,0.1396,0.3467,-0.0889,
43.915235,1.6103,0.9578,2.5055,0.1396,0.3467,-0.0889,
43.972656,1.6103,0.9578,2.5055,0.4246,0.8679,-0.0573,
43.981312,1.6103,0.9578,2.5055,0.4246,0.8679,-0.0573,
43.982147,2.2851,1.0153,1.2472,0.4246,0.8679,-0.0573,
44.036591,2.2851,1.0153,1.2472,0.5823,0.6503,-0.2245,
44.046155,2.2851,1.0153,1.2472,0.5823,0.6503,-0.2245,
44.048759,2.1923,0.6526,-2.0699,0.5823,0.6503,-0.2245,
44.101507,2.1923,0.6526,-2.0699,1.1219,0.6895,-0.5793,
44.109762,2.1923,0.6526,-2.0699,1.1219,0.6895,-0.5793,
44.110762,-2.1509,-3.4097,-4.5507,1.1219,0.6895,-0.5793,
44.166827,-2.1509,-3.4097,-4.5507,0.2894,0.8699,-0.0782,
44.176623,-2.1509,-3.4097,-4.5507,0.2894,0.8699,-0.0782,
44.177910,0.5937,-1.6643,-2.3614,0.2894,0.8699,-0.0782,
44.231816,0.5937,-1.6643,-2.3614,0.7587,-1.1330,-0.4122,
44.240990,0.5937,-1.6643,-2.3614,0.7587,-1.1330,-0.4122,
44.242322,-0.8777,0.5930,0.2295,0.7587,-1.1330,-0.4122,
44.298878,-0.8777,0.5930,0.2295,-0.2408,0.0725,-0.1529,
44.307729,-0.8777,0.5930,0.2295,-0.2408,0.0725,-0.1529,
44.308702,-1.7416,-0.7874,0.5069,-0.2408,0.0725,-0.1529,
44.364702,-1.7416,-0.7874,0.5069,0.1785,0.0351,0.1454,
44.372969,-1.7416,-0.7874,0.5069,0.1785,0.0351,0.1454,
44.374324,1.3938,-2.3119,1.7054,0.1785,0.0351,0.1454,
44.429647,1.3938,-2.3119,1.7054,0.1352,-0.1545,-0.0594,
44.436640,1.3938,-2.3119,1.7054,0.1352,-0.1545,-0.0594,
44.437435,2.9072,-0.8531,0.6795,0.1352,-0.1545,-0.0594,
44.494354,2.9072,-0.8531,0.6795,-0.5143,-0.2320,-0.0228,
44.502576,2.9072,-0.8531,0.6795,-0.5143,-0.2320,-0.0228,
44.503684,1.5041,-0.2934,0.5285,-0.5143,-0.2320,-0.0228,
44.561912,1.5041,-0.2934,0.5285,-0.4213,0.1914,0.3601,
44.570267,1.5041,-0.2934,0.5285,-0.4213,0.1914,0.3601,
44.571509,1.7915,0.8034,-1.0303,-0.4213,0.1914,0.3601,
44.627148,1.7915,0.8034,-1.0303,-0.0130,0.2352,0.4195,
44.633916,1.7915,0.8034,-1.0303,-0.0130,0.2352,0.4195,
44.635006,-1.6697,-0.5646,-2.2600,-0.0130,0.2352,0.4195,
44.690596,-1.6697,-0.5646,-2.2600,0.6066,0.3013,0.2164,
44.698742,-1.6697,-0.5646,-2.2600,0.6066,0.3013,0.2164,
44.699375,-1.5760,0.7958,-1.8407,0.6066,0.3013,0.2164,
44.756646,-1.5760,0.7958,-1.8407,1.0499,0.8066,-0.0695,
44.765643,-1.5760,0.7958,-1.8407,1.0499,0.8066,-0.0695,
44.767134,1.3597,-1.4336,0.8113,1.0499,0.8066,-0.0695,
44.823001,1.3597,-1.4336,0.8113,1.4978,0.8854,-0.4311,
44.829906,1.3597,-1.4336,0.8113,1.4978,0.8854,-0.4311,
44.831209,0.2690,-2.1771,0.3329,1.4978,0.8854,-0.4311,
44.888880,0.2690,-2.1771,0.3329,1.7591,0.4036,-0.9090,
44.896666,0.2690,-2.1771,0.3329,1.7591,0.4036,-0.9090,
44.897884,-0.9521,0.6195,-0.8218,1.7591,0.4036,-0.9090,
44.953933,-0.9521,0.6195,-0.8218,0.5777,0.9685,-0.1333,
44.962724,-0.9521,0.6195,-0.8218,0.5777,0.9685,-0.1333,
44.964171,-1.1731,0.2291,0.9671,0.5777,0.9685,-0.1333,
45.018428,-1.1731,0.2291,0.9671,-0.1034,0.8873,0.1828,
45.028742,-1.1731,0.2291,0.9671,-0.1034,0.8873,0.1828,
45.030448,1.2434,0.1576,2.0345,-0.1034,0.8873,0.1828,
45.085573,1.2434,0.1576,2.0345,0.6358,0.3083,-0.1967,
45.092664,1.2434,0.1576,2.0345,0.6358,0.3083,-0.1967,
45.093384,0.8981,1.8442,2.3706,0.6358,0.3083,-0.1967,
45.148610,0.8981,1.8442,2.3706,-0.0596,1.3233,0.2268,
45.157812,0.8981,1.8442,2.3706,-0.0596,1.3233,0.2268,
45.158542,4.2035,2.1174,-0.5570,-0.0596,1.3233,0.2268,
45.214311,4.2035,2.1174,-0.5570,1.2489,-0.2042,-0.7807,
45.223743,4.2035,2.1174,-0.5570,1.2489,-0.2042,-0.7807,
45.225075,-1.9199,-2.1669,-5.0723,1.2489,-0.2042,-0.7807,
45.281133,-1.9199,-2.1669,-5.0723,0.0137,1.2947,0.2688,
45.289518,-1.9199,-2.1669,-5.0723,0.0137,1.2947,0.2688,
45.290935,-0.5980,-1.9414,-4.4722,0.0137,1.2947,0.2688,
45.346394,-0.5980,-1.9414,-4.4722,0.2590,-0.8318,-0.2007,
45.353812,-0.5980,-1.9414,-4.4722,0.2590,-0.8318,-0.2007,
45.354570,-0.5521,0.4430,1.2835,0.2590,-0.8318,-0.2007,
45.411080,-0.5521,0.4430,1.2835,-0.2384,-0.4279,-0.1006,
45.419958,-0.5521,0.4430,1.2835,-0.2384,-0.4279,-0.1006,
45.421935,-2.1719,-0.5887,0.5779,-0.2384,-0.4279,-0.1006,
45.476747,-2.1719,-0.5887,0.5779,-0.2543,0.1542,0.1947,
45.485148,-2.1719,-0.5887,0.5779,-0.2543,0.1542,0.1947,
45.486305,-0.2803,-2.5170,1.2252,-0.2543,0.1542,0.1947,
45.542494,-0.2803,-2.5170,1.2252,0.3632,-0.3749,0.0589,
45.551689,-0.2803,-2.5170,1.2252,0.3632,-0.3749,0.0589,
45.552199,2.4749,-1.2905,0.6539,0.3632,-0.3749,0.0589,
45.608692,2.4749,-1.2905,0.6539,-0.5151,-0.1756,0.0443,
45.616744,2.4749,-1.2905,0.6539,-0.5151,-0.1756,0.0443,
45.617839,1.4952,-0.4397,0.9930,-0.5151,-0.1756,0.0443,
45.673192,1.4952,-0.4397,0.9930,-0.0105,-0.0399,0.2706,
45.681287,1.4952,-0.4397,0.9930,-0.0105,-0.0399,0.2706,
45.681714,2.7899,1.1435,-0.1601,-0.0105,-0.0399,0.2706,
45.738520,2.7899,1.1435,-0.1601,-0.5707,-0.0501,0.4603,
45.746366,2.7899,1.1435,-0.1601,-0.5707,-0.0501,0.4603,
45.746977,0.1646,0.5926,-1.9627,-0.5707,-0.0501,0.4603,
45.805166,0.1646,0.5926,-1.9627,0.0838,0.0504,0.1918,
45.811375,0.1646,0.5926,-1.9627,0.0838,0.0504,0.1918,
45.812244,-2.9088,0.3449,-1.9634,0.0838,0.0504,0.1918,
45.869926,-2.9088,0.3449,-1.9634,0.4777,0.0322,0.1316,
45.880980,-2.9088,0.3449,-1.9634,0.4777,0.0322,0.1316,
45.882820,-1.1103,1.2950,-0.1943,0.4777,0.0322,0.1316,
45.934995,-1.1103,1.2950,-0.1943,0.6164,0.4566,-0.2040,
45.946718,-1.1103,1.2950,-0.1943,0.6164,0.4566,-0.2040,
45.948235,0.2622,-2.0875,1.0297,0.6164,0.4566,-0.2040,
46.001694,0.2622,-2.0875,1.0297,1.2321,0.1237,-0.5840,
46.010485,0.2622,-2.0875,1.0297,1.2321,0.1237,-0.5840,
46.011548,-0.1151,-0.8059,0.5676,1.2321,0.1237,-0.5840,
46.064651,-0.1151,-0.8059,0.5676,0.8184,0.4213,-0.5953,
46.073327,-0.1151,-0.8059,0.5676,0.8184,0.4213,-0.5953,
46.074143,-1.6922,0.9918,0.9481,0.8184,0.4213,-0.5953,
46.130832,-1.6922,0.9918,0.9481,0.0964,0.7877,0.1368,
46.139034,-1.6922,0.9918,0.9481,0.0964,0.7877,0.1368,
46.140025,-0.1521,-0.2960,1.5849,0.0964,0.7877,0.1368,
46.196444,-0.1521,-0.2960,1.5849,0.0875,0.3293,0.0351,
46.205541,-0.1521,-0.2960,1.5849,0.0875,0.3293,0.0351,
46.206678,0.9263,0.5390,2.4951,0.0875,0.3293,0.0351,
46.262697,0.9263,0.5390,2.4951,0.3528,0.6246,0.0156,
46.271411,0.9263,0.5390,2.4951,0.3528,0.6246,0.0156,
46.272051,3.3943,3.2214,0.3596,0.3528,0.6246,0.0156,
46.329103,3.3943,3.2214,0.3596,0.8494,-0.4765,-0.6281,
46.338616,3.3943,3.2214,0.3596,0.8494,-0.4765,-0.6281,
46.339709,-0.1663,-0.2147,-4.0722,0.8494,-0.4765,-0.6281,
46.394314,-0.1663,-0.2147,-4.0722,-0.0748,1.5351,0.0933,
46.402541,-0.1663,-0.2147,-4.0722,-0.0748,1.5351,0.0933,
46.403692,-1.6586,-2.3069,-4.5901,-0.0748,1.5351,0.0933,
46.459367,-1.6586,-2.3069,-4.5901,-0.2140,-0.1284,-0.0938,
46.466881,-1.6586,-2.3069,-4.5901,-0.2140,-0.1284,-0.0938,
46.467322,0.4891,0.0678,0.4663,-0.2140,-0.1284,-0.0938,
46.526454,0.4891,0.0678,0.4663,-0.1694,-0.6634,-0.0770,
46.534595,0.4891,0.0678,0.4663,-0.1694,-0.6634,-0.0770,
46.535438,-1.9350,-0.2124,0.7500,-0.1694,-0.6634,-0.0770,
46.591890,-1.9350,-0.2124,0.7500,-0.6251,-0.1805,0.0670,
46.598330,-1.9350,-0.2124,0.7500,-0.6251,-0.1805,0.0670,
46.599540,-1.6552,-1.5743,0.3337,-0.6251,-0.1805,0.0670,
46.657237,-1.6552,-1.5743,0.3337,0.0063,-0.4884,0.0363,
46.665081,-1.6552,-1.5743,0.3337,0.0063,-0.4884,0.0363,
46.665579,1.1137,-2.2683,0.7572,0.0063,-0.4884,0.0363,
46.721302,1.1137,-2.2683,0.7572,-0.3981,-0.5235,0.0182,
46.728796,1.1137,-2.2683,0.7572,-0.3981,-0.5235,0.0182,
46.729490,2.4768,-1.2197,1.7684,-0.3981,-0.5235,0.0182,
46.785590,2.4768,-1.2197,1.7684,-0.0843,0.1387,0.2025,
46.794224,2.4768,-1.2197,1.7684,-0.0843,0.1387,0.2025,
46.794914,2.3733,-0.0557,0.9307,-0.0843,0.1387,0.2025,
46.852298,2.3733,-0.0557,0.9307,-0.1420,-0.0617,0.5134,
46.859973,2.3733,-0.0557,0.9307,-0.1420,-0.0617,0.5134,
46.860991,1.0580,1.8538,-2.4274,-0.1420,-0.0617,0.5134,
46.916707,1.0580,1.8538,-2.4274,-0.1263,0.2523,0.2709,
46.926209,1.0580,1.8538,-2.4274,-0.1263,0.2523,0.2709,
46.927306,-2.4283,1.5745,-2.2161,-0.1263,0.2523,0.2709,
46.982662,-2.4283,1.5745,-2.2161,0.4542,0.2071,0.1688,
46.991069,-2.4283,1.5745,-2.2161,0.4542,0.2071,0.1688,
46.991816,-0.8489,1.0512,-0.3114,0.4542,0.2071,0.1688,
47.049160,-0.8489,1.0512,-0.3114,0.4844,0.7010,-0.0362,
47.057260,-0.8489,1.0512,-0.3114,0.4844,0.7010,-0.0362,
47.057960,-0.2412,-2.8140,0.7263,0.4844,0.7010,-0.0362,
47.115058,-0.2412,-2.8140,0.7263,1.4244,0.3308,-0.5110,
47.122942,-0.2412,-2.8140,0.7263,1.4244,0.3308,-0.5110,
47.123822,-0.5012,-1.3231,0.2224,1.4244,0.3308,-0.5110,
47.179890,-0.5012,-1.3231,0.2224,1.2529,0.3030,-0.6130,
47.187644,-0.5012,-1.3231,0.2224,1.2529,0.3030,-0.6130,
47.188797,-1.2313,1.2735,0.2009,1.2529,0.3030,-0.6130,
47.245034,-1.2313,1.2735,0.2009,0.1136,0.7590,0.0055,
47.253590,-1.2313,1.2735,0.2009,0.1136,0.7590,0.0055,
47.255414,0.3602,0.4393,2.1149,0.1136,0.7590,0.0055,
47.309712,0.3602,0.4393,2.1149,0.4302,0.0845,-0.3383,
47.325324,0.3602,0.4393,2.1149,0.4302,0.0845,-0.3383,
47.325846,0.4498,1.3081,2.2269,0.4302,0.0845,-0.3383,
